"success","timeout","failed_images","failed_audio","failed_video","trial_type","trial_index","time_elapsed","internal_node_id","subject_id","study_id","session_id","task","rt","stimulus","response","item","answer","correct","spm_correct","spm_rt","view_history","mouse_click","stim_duration","block_duration","timing_post_trial","current_position","tol_num_moves_made","tol_target","tol_problem_id","tol_rt","key_press","possible_responses","tol_correct","preplanning","tol_rt_per_trial","tol_min_moves","fiar_detect_rt","fiar_detect_correct","total_correct_fiar_detect","post_trial_gap","choices"
"true","false","[]","[]","[]","preload","0","645","0.0-0.0","63034df51d918e1e3b97e5ce","E1","batch5","","","","","","","","","","","","","","","","","","","","","","","","","","","","","",""
"true","","","","","fullscreen","1","20716","0.0-1.0-0.0","63034df51d918e1e3b97e5ce","E1","batch5","","","","","","","","","","","","","","","","","","","","","","","","","","","","","",""
"true","","","","","fullscreen","2","24114","0.0-2.0-0.0","63034df51d918e1e3b97e5ce","E1","batch5","spm_fullscreen","","","","","","","","","","","","","","","","","","","","","","","","","","","","",""
"","","","","","html-button-response","3","160978","0.0-2.0-1.0","63034df51d918e1e3b97e5ce","E1","batch5","","136864.09999996424","<p class = block-text><b>Instructions</b> <br>This is a widely used intelligence test in research. <br>In this test, a figure with a missing piece will be presented.<br>Below the figure are alternative pieces to complete the figure, only one of which is correct.<br> Different figures might involve different principles for obtaining the missing piece<br>Your job is to select the most logical piece to complete the figure.</p>","0","","","","","","","","","","","","","","","","","","","","","","","","","",""
"","","","","","html-keyboard-response","4","161779","0.0-2.0-2.0-0.0","63034df51d918e1e3b97e5ce","E1","batch5","spm_show_trial_num","null","<p class=block-text>Trial 1 out of 60</p>","null","","","","","","","","","","","","","","","","","","","","","","","","","",""
"","","","","","image-button-response","5","165595","0.0-2.0-2.0-1.0","63034df51d918e1e3b97e5ce","E1","batch5","spm_respsonse","3813.800000011921","img/question_1_1.jpeg","3","mat_01","4","1","1","3813.800000011921","","","","","","","","","","","","","","","","","","","","",""
"","","","","","html-keyboard-response","6","166648","0.0-2.0-2.0-0.1","63034df51d918e1e3b97e5ce","E1","batch5","spm_show_trial_num","null","<p class=block-text>Trial 2 out of 60</p>","null","","","","","","","","","","","","","","","","","","","","","","","","","",""
"","","","","","image-button-response","7","169912","0.0-2.0-2.0-1.1","63034df51d918e1e3b97e5ce","E1","batch5","spm_respsonse","3263","img/question_1_2.jpeg","4","mat_02","5","1","1","3263","","","","","","","","","","","","","","","","","","","","",""
"","","","","","html-keyboard-response","8","170986","0.0-2.0-2.0-0.2","63034df51d918e1e3b97e5ce","E1","batch5","spm_show_trial_num","null","<p class=block-text>Trial 3 out of 60</p>","null","","","","","","","","","","","","","","","","","","","","","","","","","",""
"","","","","","image-button-response","9","177838","0.0-2.0-2.0-1.2","63034df51d918e1e3b97e5ce","E1","batch5","spm_respsonse","6850.600000023842","img/question_1_3.jpeg","0","mat_03","1","1","1","6850.600000023842","","","","","","","","","","","","","","","","","","","","",""
"","","","","","html-keyboard-response","10","178916","0.0-2.0-2.0-0.3","63034df51d918e1e3b97e5ce","E1","batch5","spm_show_trial_num","null","<p class=block-text>Trial 4 out of 60</p>","null","","","","","","","","","","","","","","","","","","","","","","","","","",""
"","","","","","image-button-response","11","182548","0.0-2.0-2.0-1.3","63034df51d918e1e3b97e5ce","E1","batch5","spm_respsonse","3630.100000023842","img/question_1_4.jpeg","1","mat_04","2","1","1","3630.100000023842","","","","","","","","","","","","","","","","","","","","",""
"","","","","","html-keyboard-response","12","183609","0.0-2.0-2.0-0.4","63034df51d918e1e3b97e5ce","E1","batch5","spm_show_trial_num","null","<p class=block-text>Trial 5 out of 60</p>","null","","","","","","","","","","","","","","","","","","","","","","","","","",""
"","","","","","image-button-response","13","187034","0.0-2.0-2.0-1.4","63034df51d918e1e3b97e5ce","E1","batch5","spm_respsonse","3423.600000023842","img/question_1_5.jpeg","5","mat_05","6","1","1","3423.600000023842","","","","","","","","","","","","","","","","","","","","",""
"","","","","","html-keyboard-response","14","188087","0.0-2.0-2.0-0.5","63034df51d918e1e3b97e5ce","E1","batch5","spm_show_trial_num","null","<p class=block-text>Trial 6 out of 60</p>","null","","","","","","","","","","","","","","","","","","","","","","","","","",""
"","","","","","image-button-response","15","191033","0.0-2.0-2.0-1.5","63034df51d918e1e3b97e5ce","E1","batch5","spm_respsonse","2945.199999988079","img/question_1_6.jpeg","2","mat_06","3","1","1","2945.199999988079","","","","","","","","","","","","","","","","","","","","",""
"","","","","","html-keyboard-response","16","192100","0.0-2.0-2.0-0.6","63034df51d918e1e3b97e5ce","E1","batch5","spm_show_trial_num","null","<p class=block-text>Trial 7 out of 60</p>","null","","","","","","","","","","","","","","","","","","","","","","","","","",""
"","","","","","image-button-response","17","196238","0.0-2.0-2.0-1.6","63034df51d918e1e3b97e5ce","E1","batch5","spm_respsonse","4136.800000011921","img/question_1_7.jpeg","5","mat_07","6","1","1","4136.800000011921","","","","","","","","","","","","","","","","","","","","",""
"","","","","","html-keyboard-response","18","197297","0.0-2.0-2.0-0.7","63034df51d918e1e3b97e5ce","E1","batch5","spm_show_trial_num","null","<p class=block-text>Trial 8 out of 60</p>","null","","","","","","","","","","","","","","","","","","","","","","","","","",""
"","","","","","image-button-response","19","204526","0.0-2.0-2.0-1.7","63034df51d918e1e3b97e5ce","E1","batch5","spm_respsonse","7227.699999988079","img/question_1_8.jpeg","1","mat_08","2","1","1","7227.699999988079","","","","","","","","","","","","","","","","","","","","",""
"","","","","","html-keyboard-response","20","205596","0.0-2.0-2.0-0.8","63034df51d918e1e3b97e5ce","E1","batch5","spm_show_trial_num","null","<p class=block-text>Trial 9 out of 60</p>","null","","","","","","","","","","","","","","","","","","","","","","","","","",""
"","","","","","image-button-response","21","210622","0.0-2.0-2.0-1.8","63034df51d918e1e3b97e5ce","E1","batch5","spm_respsonse","5025.300000011921","img/question_1_9.jpeg","0","mat_09","1","1","1","5025.300000011921","","","","","","","","","","","","","","","","","","","","",""
"","","","","","html-keyboard-response","22","211681","0.0-2.0-2.0-0.9","63034df51d918e1e3b97e5ce","E1","batch5","spm_show_trial_num","null","<p class=block-text>Trial 10 out of 60</p>","null","","","","","","","","","","","","","","","","","","","","","","","","","",""
"","","","","","image-button-response","23","217548","0.0-2.0-2.0-1.9","63034df51d918e1e3b97e5ce","E1","batch5","spm_respsonse","5866.300000011921","img/question_1_10.jpeg","2","mat_10","3","1","1","5866.300000011921","","","","","","","","","","","","","","","","","","","","",""
"","","","","","html-keyboard-response","24","218618","0.0-2.0-2.0-0.10","63034df51d918e1e3b97e5ce","E1","batch5","spm_show_trial_num","null","<p class=block-text>Trial 11 out of 60</p>","null","","","","","","","","","","","","","","","","","","","","","","","","","",""
"","","","","","image-button-response","25","228511","0.0-2.0-2.0-1.10","63034df51d918e1e3b97e5ce","E1","batch5","spm_respsonse","9892.400000035763","img/question_1_11.jpeg","3","mat_11","4","1","1","9892.400000035763","","","","","","","","","","","","","","","","","","","","",""
"","","","","","html-keyboard-response","26","229585","0.0-2.0-2.0-0.11","63034df51d918e1e3b97e5ce","E1","batch5","spm_show_trial_num","null","<p class=block-text>Trial 12 out of 60</p>","null","","","","","","","","","","","","","","","","","","","","","","","","","",""
"","","","","","image-button-response","27","267609","0.0-2.0-2.0-1.11","63034df51d918e1e3b97e5ce","E1","batch5","spm_respsonse","38022.80000001192","img/question_1_12.jpeg","4","mat_12","5","1","1","38022.80000001192","","","","","","","","","","","","","","","","","","","","",""
"","","","","","html-keyboard-response","28","268678","0.0-2.0-2.0-0.12","63034df51d918e1e3b97e5ce","E1","batch5","spm_show_trial_num","null","<p class=block-text>Trial 13 out of 60</p>","null","","","","","","","","","","","","","","","","","","","","","","","","","",""
"","","","","","image-button-response","29","274509","0.0-2.0-2.0-1.12","63034df51d918e1e3b97e5ce","E1","batch5","spm_respsonse","5829.600000023842","img/question_2_1.jpeg","1","mat_13","2","1","1","5829.600000023842","","","","","","","","","","","","","","","","","","","","",""
"","","","","","html-keyboard-response","30","275573","0.0-2.0-2.0-0.13","63034df51d918e1e3b97e5ce","E1","batch5","spm_show_trial_num","null","<p class=block-text>Trial 14 out of 60</p>","null","","","","","","","","","","","","","","","","","","","","","","","","","",""
"","","","","","image-button-response","31","286294","0.0-2.0-2.0-1.13","63034df51d918e1e3b97e5ce","E1","batch5","spm_respsonse","10719.900000035763","img/question_2_2.jpeg","5","mat_14","6","1","1","10719.900000035763","","","","","","","","","","","","","","","","","","","","",""
"","","","","","html-keyboard-response","32","287370","0.0-2.0-2.0-0.14","63034df51d918e1e3b97e5ce","E1","batch5","spm_show_trial_num","null","<p class=block-text>Trial 15 out of 60</p>","null","","","","","","","","","","","","","","","","","","","","","","","","","",""
"","","","","","image-button-response","33","295872","0.0-2.0-2.0-1.14","63034df51d918e1e3b97e5ce","E1","batch5","spm_respsonse","8501","img/question_2_3.jpeg","0","mat_15","1","1","1","8501","","","","","","","","","","","","","","","","","","","","",""
"","","","","","html-keyboard-response","34","296938","0.0-2.0-2.0-0.15","63034df51d918e1e3b97e5ce","E1","batch5","spm_show_trial_num","null","<p class=block-text>Trial 16 out of 60</p>","null","","","","","","","","","","","","","","","","","","","","","","","","","",""
"","","","","","image-button-response","35","305822","0.0-2.0-2.0-1.15","63034df51d918e1e3b97e5ce","E1","batch5","spm_respsonse","8883.399999976158","img/question_2_4.jpeg","1","mat_16","2","1","1","8883.399999976158","","","","","","","","","","","","","","","","","","","","",""
"","","","","","html-keyboard-response","36","306893","0.0-2.0-2.0-0.16","63034df51d918e1e3b97e5ce","E1","batch5","spm_show_trial_num","null","<p class=block-text>Trial 17 out of 60</p>","null","","","","","","","","","","","","","","","","","","","","","","","","","",""
"","","","","","image-button-response","37","314792","0.0-2.0-2.0-1.16","63034df51d918e1e3b97e5ce","E1","batch5","spm_respsonse","7897.800000011921","img/question_2_5.jpeg","0","mat_17","1","1","1","7897.800000011921","","","","","","","","","","","","","","","","","","","","",""
"","","","","","html-keyboard-response","38","315850","0.0-2.0-2.0-0.17","63034df51d918e1e3b97e5ce","E1","batch5","spm_show_trial_num","null","<p class=block-text>Trial 18 out of 60</p>","null","","","","","","","","","","","","","","","","","","","","","","","","","",""
"","","","","","image-button-response","39","327255","0.0-2.0-2.0-1.17","63034df51d918e1e3b97e5ce","E1","batch5","spm_respsonse","11404.900000035763","img/question_2_6.jpeg","2","mat_18","3","1","1","11404.900000035763","","","","","","","","","","","","","","","","","","","","",""
"","","","","","html-keyboard-response","40","328311","0.0-2.0-2.0-0.18","63034df51d918e1e3b97e5ce","E1","batch5","spm_show_trial_num","null","<p class=block-text>Trial 19 out of 60</p>","null","","","","","","","","","","","","","","","","","","","","","","","","","",""
"","","","","","image-button-response","41","342812","0.0-2.0-2.0-1.18","63034df51d918e1e3b97e5ce","E1","batch5","spm_respsonse","14500.5","img/question_2_7.jpeg","4","mat_19","5","1","1","14500.5","","","","","","","","","","","","","","","","","","","","",""
"","","","","","html-keyboard-response","42","343873","0.0-2.0-2.0-0.19","63034df51d918e1e3b97e5ce","E1","batch5","spm_show_trial_num","null","<p class=block-text>Trial 20 out of 60</p>","null","","","","","","","","","","","","","","","","","","","","","","","","","",""
"","","","","","image-button-response","43","356844","0.0-2.0-2.0-1.19","63034df51d918e1e3b97e5ce","E1","batch5","spm_respsonse","12970.100000023842","img/question_2_8.jpeg","5","mat_20","6","1","1","12970.100000023842","","","","","","","","","","","","","","","","","","","","",""
"","","","","","html-keyboard-response","44","357922","0.0-2.0-2.0-0.20","63034df51d918e1e3b97e5ce","E1","batch5","spm_show_trial_num","null","<p class=block-text>Trial 21 out of 60</p>","null","","","","","","","","","","","","","","","","","","","","","","","","","",""
"","","","","","image-button-response","45","370998","0.0-2.0-2.0-1.20","63034df51d918e1e3b97e5ce","E1","batch5","spm_respsonse","13075.5","img/question_2_9.jpeg","3","mat_21","4","1","1","13075.5","","","","","","","","","","","","","","","","","","","","",""
"","","","","","html-keyboard-response","46","372065","0.0-2.0-2.0-0.21","63034df51d918e1e3b97e5ce","E1","batch5","spm_show_trial_num","null","<p class=block-text>Trial 22 out of 60</p>","null","","","","","","","","","","","","","","","","","","","","","","","","","",""
"","","","","","image-button-response","47","388600","0.0-2.0-2.0-1.21","63034df51d918e1e3b97e5ce","E1","batch5","spm_respsonse","16534.100000023842","img/question_2_10.jpeg","2","mat_22","3","1","1","16534.100000023842","","","","","","","","","","","","","","","","","","","","",""
"","","","","","html-keyboard-response","48","389665","0.0-2.0-2.0-0.22","63034df51d918e1e3b97e5ce","E1","batch5","spm_show_trial_num","null","<p class=block-text>Trial 23 out of 60</p>","null","","","","","","","","","","","","","","","","","","","","","","","","","",""
"","","","","","image-button-response","49","408176","0.0-2.0-2.0-1.22","63034df51d918e1e3b97e5ce","E1","batch5","spm_respsonse","18510.5","img/question_2_11.jpeg","3","mat_23","4","1","1","18510.5","","","","","","","","","","","","","","","","","","","","",""
"","","","","","html-keyboard-response","50","409234","0.0-2.0-2.0-0.23","63034df51d918e1e3b97e5ce","E1","batch5","spm_show_trial_num","null","<p class=block-text>Trial 24 out of 60</p>","null","","","","","","","","","","","","","","","","","","","","","","","","","",""
"","","","","","image-button-response","51","437305","0.0-2.0-2.0-1.23","63034df51d918e1e3b97e5ce","E1","batch5","spm_respsonse","28070.5","img/question_2_12.jpeg","4","mat_24","5","1","1","28070.5","","","","","","","","","","","","","","","","","","","","",""
"","","","","","html-button-response","52","439332","0.0-2.0-3.0","63034df51d918e1e3b97e5ce","E1","batch5","attention_check","1761.800000011921","<p class = block-text>Attention check: Please choose 1<br></p>","0","","","true","","","","","","","","","","","","","","","","","","","","","","",""
"","","","","","html-keyboard-response","53","440133","0.0-2.0-4.0-0.0","63034df51d918e1e3b97e5ce","E1","batch5","spm_show_trial_num","null","<p class=block-text>Trial 25 out of 60</p>","null","","","","","","","","","","","","","","","","","","","","","","","","","",""
"","","","","","image-button-response","54","460908","0.0-2.0-4.0-1.0","63034df51d918e1e3b97e5ce","E1","batch5","spm_respsonse","20773.80000001192","img/question_3_1.jpeg","7","mat_25","8","1","1","20773.80000001192","","","","","","","","","","","","","","","","","","","","",""
"","","","","","html-keyboard-response","55","461981","0.0-2.0-4.0-0.1","63034df51d918e1e3b97e5ce","E1","batch5","spm_show_trial_num","null","<p class=block-text>Trial 26 out of 60</p>","null","","","","","","","","","","","","","","","","","","","","","","","","","",""
"","","","","","image-button-response","56","485083","0.0-2.0-4.0-1.1","63034df51d918e1e3b97e5ce","E1","batch5","spm_respsonse","23100.5","img/question_3_2.jpeg","1","mat_26","2","1","1","23100.5","","","","","","","","","","","","","","","","","","","","",""
"","","","","","html-keyboard-response","57","486136","0.0-2.0-4.0-0.2","63034df51d918e1e3b97e5ce","E1","batch5","spm_show_trial_num","null","<p class=block-text>Trial 27 out of 60</p>","null","","","","","","","","","","","","","","","","","","","","","","","","","",""
"","","","","","image-button-response","58","512651","0.0-2.0-4.0-1.2","63034df51d918e1e3b97e5ce","E1","batch5","spm_respsonse","26514.80000001192","img/question_3_3.jpeg","2","mat_27","3","1","1","26514.80000001192","","","","","","","","","","","","","","","","","","","","",""
"","","","","","html-keyboard-response","59","513708","0.0-2.0-4.0-0.3","63034df51d918e1e3b97e5ce","E1","batch5","spm_show_trial_num","null","<p class=block-text>Trial 28 out of 60</p>","null","","","","","","","","","","","","","","","","","","","","","","","","","",""
"","","","","","image-button-response","60","529759","0.0-2.0-4.0-1.3","63034df51d918e1e3b97e5ce","E1","batch5","spm_respsonse","16049.800000011921","img/question_3_4.jpeg","7","mat_28","8","1","1","16049.800000011921","","","","","","","","","","","","","","","","","","","","",""
"","","","","","html-keyboard-response","61","530814","0.0-2.0-4.0-0.4","63034df51d918e1e3b97e5ce","E1","batch5","spm_show_trial_num","null","<p class=block-text>Trial 29 out of 60</p>","null","","","","","","","","","","","","","","","","","","","","","","","","","",""
"","","","","","image-button-response","62","560159","0.0-2.0-4.0-1.4","63034df51d918e1e3b97e5ce","E1","batch5","spm_respsonse","29344.19999998808","img/question_3_5.jpeg","6","mat_29","7","1","1","29344.19999998808","","","","","","","","","","","","","","","","","","","","",""
"","","","","","html-keyboard-response","63","561212","0.0-2.0-4.0-0.5","63034df51d918e1e3b97e5ce","E1","batch5","spm_show_trial_num","null","<p class=block-text>Trial 30 out of 60</p>","null","","","","","","","","","","","","","","","","","","","","","","","","","",""
"","","","","","image-button-response","64","584753","0.0-2.0-4.0-1.5","63034df51d918e1e3b97e5ce","E1","batch5","spm_respsonse","23540","img/question_3_6.jpeg","3","mat_30","4","1","1","23540","","","","","","","","","","","","","","","","","","","","",""
"","","","","","html-keyboard-response","65","585820","0.0-2.0-4.0-0.6","63034df51d918e1e3b97e5ce","E1","batch5","spm_show_trial_num","null","<p class=block-text>Trial 31 out of 60</p>","null","","","","","","","","","","","","","","","","","","","","","","","","","",""
"","","","","","image-button-response","66","601002","0.0-2.0-4.0-1.6","63034df51d918e1e3b97e5ce","E1","batch5","spm_respsonse","15180.799999952316","img/question_3_7.jpeg","4","mat_31","5","1","1","15180.799999952316","","","","","","","","","","","","","","","","","","","","",""
"","","","","","html-keyboard-response","67","602074","0.0-2.0-4.0-0.7","63034df51d918e1e3b97e5ce","E1","batch5","spm_show_trial_num","null","<p class=block-text>Trial 32 out of 60</p>","null","","","","","","","","","","","","","","","","","","","","","","","","","",""
"","","","","","image-button-response","68","670045","0.0-2.0-4.0-1.7","63034df51d918e1e3b97e5ce","E1","batch5","spm_respsonse","67969.69999998808","img/question_3_8.jpeg","0","mat_32","1","1","1","67969.69999998808","","","","","","","","","","","","","","","","","","","","",""
"","","","","","html-keyboard-response","69","671103","0.0-2.0-4.0-0.8","63034df51d918e1e3b97e5ce","E1","batch5","spm_show_trial_num","null","<p class=block-text>Trial 33 out of 60</p>","null","","","","","","","","","","","","","","","","","","","","","","","","","",""
"","","","","","image-button-response","70","682487","0.0-2.0-4.0-1.8","63034df51d918e1e3b97e5ce","E1","batch5","spm_respsonse","11382","img/question_3_9.jpeg","6","mat_33","7","1","1","11382","","","","","","","","","","","","","","","","","","","","",""
"","","","","","html-keyboard-response","71","683549","0.0-2.0-4.0-0.9","63034df51d918e1e3b97e5ce","E1","batch5","spm_show_trial_num","null","<p class=block-text>Trial 34 out of 60</p>","null","","","","","","","","","","","","","","","","","","","","","","","","","",""
"","","","","","image-button-response","72","726977","0.0-2.0-4.0-1.9","63034df51d918e1e3b97e5ce","E1","batch5","spm_respsonse","43426.19999998808","img/question_3_10.jpeg","5","mat_34","6","1","1","43426.19999998808","","","","","","","","","","","","","","","","","","","","",""
"","","","","","html-keyboard-response","73","728034","0.0-2.0-4.0-0.10","63034df51d918e1e3b97e5ce","E1","batch5","spm_show_trial_num","null","<p class=block-text>Trial 35 out of 60</p>","null","","","","","","","","","","","","","","","","","","","","","","","","","",""
"","","","","","image-button-response","74","758368","0.0-2.0-4.0-1.10","63034df51d918e1e3b97e5ce","E1","batch5","spm_respsonse","30333.600000023842","img/question_3_11.jpeg","0","mat_35","1","1","1","30333.600000023842","","","","","","","","","","","","","","","","","","","","",""
"","","","","","html-keyboard-response","75","759421","0.0-2.0-4.0-0.11","63034df51d918e1e3b97e5ce","E1","batch5","spm_show_trial_num","null","<p class=block-text>Trial 36 out of 60</p>","null","","","","","","","","","","","","","","","","","","","","","","","","","",""
"","","","","","image-button-response","76","783823","0.0-2.0-4.0-1.11","63034df51d918e1e3b97e5ce","E1","batch5","spm_respsonse","24400.80000001192","img/question_3_12.jpeg","1","mat_36","2","1","1","24400.80000001192","","","","","","","","","","","","","","","","","","","","",""
"","","","","","html-keyboard-response","77","784879","0.0-2.0-4.0-0.12","63034df51d918e1e3b97e5ce","E1","batch5","spm_show_trial_num","null","<p class=block-text>Trial 37 out of 60</p>","null","","","","","","","","","","","","","","","","","","","","","","","","","",""
"","","","","","image-button-response","78","797583","0.0-2.0-4.0-1.12","63034df51d918e1e3b97e5ce","E1","batch5","spm_respsonse","12702.600000023842","img/question_4_1.jpeg","2","mat_37","3","1","1","12702.600000023842","","","","","","","","","","","","","","","","","","","","",""
"","","","","","html-keyboard-response","79","798643","0.0-2.0-4.0-0.13","63034df51d918e1e3b97e5ce","E1","batch5","spm_show_trial_num","null","<p class=block-text>Trial 38 out of 60</p>","null","","","","","","","","","","","","","","","","","","","","","","","","","",""
"","","","","","image-button-response","80","834662","0.0-2.0-4.0-1.13","63034df51d918e1e3b97e5ce","E1","batch5","spm_respsonse","36016.60000002384","img/question_4_2.jpeg","3","mat_38","4","1","1","36016.60000002384","","","","","","","","","","","","","","","","","","","","",""
"","","","","","html-keyboard-response","81","835719","0.0-2.0-4.0-0.14","63034df51d918e1e3b97e5ce","E1","batch5","spm_show_trial_num","null","<p class=block-text>Trial 39 out of 60</p>","null","","","","","","","","","","","","","","","","","","","","","","","","","",""
"","","","","","image-button-response","82","914710","0.0-2.0-4.0-1.14","63034df51d918e1e3b97e5ce","E1","batch5","spm_respsonse","78990","img/question_4_3.jpeg","2","mat_39","3","1","1","78990","","","","","","","","","","","","","","","","","","","","",""
"","","","","","html-keyboard-response","83","915772","0.0-2.0-4.0-0.15","63034df51d918e1e3b97e5ce","E1","batch5","spm_show_trial_num","null","<p class=block-text>Trial 40 out of 60</p>","null","","","","","","","","","","","","","","","","","","","","","","","","","",""
"","","","","","image-button-response","84","925563","0.0-2.0-4.0-1.15","63034df51d918e1e3b97e5ce","E1","batch5","spm_respsonse","9789.699999988079","img/question_4_4.jpeg","6","mat_40","7","1","1","9789.699999988079","","","","","","","","","","","","","","","","","","","","",""
"","","","","","html-keyboard-response","85","926618","0.0-2.0-4.0-0.16","63034df51d918e1e3b97e5ce","E1","batch5","spm_show_trial_num","null","<p class=block-text>Trial 41 out of 60</p>","null","","","","","","","","","","","","","","","","","","","","","","","","","",""
"","","","","","image-button-response","86","936657","0.0-2.0-4.0-1.16","63034df51d918e1e3b97e5ce","E1","batch5","spm_respsonse","10038.100000023842","img/question_4_5.jpeg","7","mat_41","8","1","1","10038.100000023842","","","","","","","","","","","","","","","","","","","","",""
"","","","","","html-keyboard-response","87","937717","0.0-2.0-4.0-0.17","63034df51d918e1e3b97e5ce","E1","batch5","spm_show_trial_num","null","<p class=block-text>Trial 42 out of 60</p>","null","","","","","","","","","","","","","","","","","","","","","","","","","",""
"","","","","","image-button-response","88","960433","0.0-2.0-4.0-1.17","63034df51d918e1e3b97e5ce","E1","batch5","spm_respsonse","22714.30000001192","img/question_4_6.jpeg","5","mat_42","6","1","1","22714.30000001192","","","","","","","","","","","","","","","","","","","","",""
"","","","","","html-keyboard-response","89","961495","0.0-2.0-4.0-0.18","63034df51d918e1e3b97e5ce","E1","batch5","spm_show_trial_num","null","<p class=block-text>Trial 43 out of 60</p>","null","","","","","","","","","","","","","","","","","","","","","","","","","",""
"","","","","","image-button-response","90","996200","0.0-2.0-4.0-1.18","63034df51d918e1e3b97e5ce","E1","batch5","spm_respsonse","34703.80000001192","img/question_4_7.jpeg","4","mat_43","5","1","1","34703.80000001192","","","","","","","","","","","","","","","","","","","","",""
"","","","","","html-keyboard-response","91","997265","0.0-2.0-4.0-0.19","63034df51d918e1e3b97e5ce","E1","batch5","spm_show_trial_num","null","<p class=block-text>Trial 44 out of 60</p>","null","","","","","","","","","","","","","","","","","","","","","","","","","",""
"","","","","","image-button-response","92","1059081","0.0-2.0-4.0-1.19","63034df51d918e1e3b97e5ce","E1","batch5","spm_respsonse","61814.60000002384","img/question_4_8.jpeg","3","mat_44","4","1","1","61814.60000002384","","","","","","","","","","","","","","","","","","","","",""
"","","","","","html-keyboard-response","93","1060153","0.0-2.0-4.0-0.20","63034df51d918e1e3b97e5ce","E1","batch5","spm_show_trial_num","null","<p class=block-text>Trial 45 out of 60</p>","null","","","","","","","","","","","","","","","","","","","","","","","","","",""
"","","","","","image-button-response","94","1105982","0.0-2.0-4.0-1.20","63034df51d918e1e3b97e5ce","E1","batch5","spm_respsonse","45827.89999997616","img/question_4_9.jpeg","0","mat_45","1","1","1","45827.89999997616","","","","","","","","","","","","","","","","","","","","",""
"","","","","","html-keyboard-response","95","1107034","0.0-2.0-4.0-0.21","63034df51d918e1e3b97e5ce","E1","batch5","spm_show_trial_num","null","<p class=block-text>Trial 46 out of 60</p>","null","","","","","","","","","","","","","","","","","","","","","","","","","",""
"","","","","","image-button-response","96","1146338","0.0-2.0-4.0-1.21","63034df51d918e1e3b97e5ce","E1","batch5","spm_respsonse","39301.80000001192","img/question_4_10.jpeg","1","mat_46","2","1","1","39301.80000001192","","","","","","","","","","","","","","","","","","","","",""
"","","","","","html-keyboard-response","97","1147401","0.0-2.0-4.0-0.22","63034df51d918e1e3b97e5ce","E1","batch5","spm_show_trial_num","null","<p class=block-text>Trial 47 out of 60</p>","null","","","","","","","","","","","","","","","","","","","","","","","","","",""
"","","","","","image-button-response","98","1205489","0.0-2.0-4.0-1.22","63034df51d918e1e3b97e5ce","E1","batch5","spm_respsonse","58087.80000001192","img/question_4_11.jpeg","4","mat_47","5","1","1","58087.80000001192","","","","","","","","","","","","","","","","","","","","",""
"","","","","","html-keyboard-response","99","1206556","0.0-2.0-4.0-0.23","63034df51d918e1e3b97e5ce","E1","batch5","spm_show_trial_num","null","<p class=block-text>Trial 48 out of 60</p>","null","","","","","","","","","","","","","","","","","","","","","","","","","",""
"","","","","","image-button-response","100","1308429","0.0-2.0-4.0-1.23","63034df51d918e1e3b97e5ce","E1","batch5","spm_respsonse","101871.60000002384","img/question_4_12.jpeg","2","mat_48","6","0","0","101871.60000002384","","","","","","","","","","","","","","","","","","","","",""
"","","","","","html-keyboard-response","101","1309492","0.0-2.0-4.0-0.24","63034df51d918e1e3b97e5ce","E1","batch5","spm_show_trial_num","null","<p class=block-text>Trial 49 out of 60</p>","null","","","","","","","","","","","","","","","","","","","","","","","","","",""
"","","","","","image-button-response","102","1331979","0.0-2.0-4.0-1.24","63034df51d918e1e3b97e5ce","E1","batch5","spm_respsonse","22486.600000023842","img/question_5_1.jpeg","6","mat_49","7","1","1","22486.600000023842","","","","","","","","","","","","","","","","","","","","",""
"","","","","","html-keyboard-response","103","1333050","0.0-2.0-4.0-0.25","63034df51d918e1e3b97e5ce","E1","batch5","spm_show_trial_num","null","<p class=block-text>Trial 50 out of 60</p>","null","","","","","","","","","","","","","","","","","","","","","","","","","",""
"","","","","","image-button-response","104","1420344","0.0-2.0-4.0-1.25","63034df51d918e1e3b97e5ce","E1","batch5","spm_respsonse","87293.59999996424","img/question_5_2.jpeg","6","mat_50","6","0","0","87293.59999996424","","","","","","","","","","","","","","","","","","","","",""
"","","","","","html-keyboard-response","105","1421397","0.0-2.0-4.0-0.26","63034df51d918e1e3b97e5ce","E1","batch5","spm_show_trial_num","null","<p class=block-text>Trial 51 out of 60</p>","null","","","","","","","","","","","","","","","","","","","","","","","","","",""
"","","","","","image-button-response","106","1441106","0.0-2.0-4.0-1.26","63034df51d918e1e3b97e5ce","E1","batch5","spm_respsonse","19707.19999998808","img/question_5_3.jpeg","7","mat_51","8","1","1","19707.19999998808","","","","","","","","","","","","","","","","","","","","",""
"","","","","","html-keyboard-response","107","1442161","0.0-2.0-4.0-0.27","63034df51d918e1e3b97e5ce","E1","batch5","spm_show_trial_num","null","<p class=block-text>Trial 52 out of 60</p>","null","","","","","","","","","","","","","","","","","","","","","","","","","",""
"","","","","","image-button-response","108","1521974","0.0-2.0-4.0-1.27","63034df51d918e1e3b97e5ce","E1","batch5","spm_respsonse","79811.5","img/question_5_4.jpeg","7","mat_52","2","0","0","79811.5","","","","","","","","","","","","","","","","","","","","",""
"","","","","","html-keyboard-response","109","1523036","0.0-2.0-4.0-0.28","63034df51d918e1e3b97e5ce","E1","batch5","spm_show_trial_num","null","<p class=block-text>Trial 53 out of 60</p>","null","","","","","","","","","","","","","","","","","","","","","","","","","",""
"","","","","","image-button-response","110","1640478","0.0-2.0-4.0-1.28","63034df51d918e1e3b97e5ce","E1","batch5","spm_respsonse","117440.5","img/question_5_5.jpeg","6","mat_53","1","0","0","117440.5","","","","","","","","","","","","","","","","","","","","",""
"","","","","","html-keyboard-response","111","1641539","0.0-2.0-4.0-0.29","63034df51d918e1e3b97e5ce","E1","batch5","spm_show_trial_num","null","<p class=block-text>Trial 54 out of 60</p>","null","","","","","","","","","","","","","","","","","","","","","","","","","",""
"","","","","","image-button-response","112","1706110","0.0-2.0-4.0-1.29","63034df51d918e1e3b97e5ce","E1","batch5","spm_respsonse","64570.80000001192","img/question_5_6.jpeg","4","mat_54","5","1","1","64570.80000001192","","","","","","","","","","","","","","","","","","","","",""
"","","","","","html-keyboard-response","113","1707163","0.0-2.0-4.0-0.30","63034df51d918e1e3b97e5ce","E1","batch5","spm_show_trial_num","null","<p class=block-text>Trial 55 out of 60</p>","null","","","","","","","","","","","","","","","","","","","","","","","","","",""
"","","","","","image-button-response","114","1765058","0.0-2.0-4.0-1.30","63034df51d918e1e3b97e5ce","E1","batch5","spm_respsonse","57894.69999998808","img/question_5_7.jpeg","0","mat_55","1","1","1","57894.69999998808","","","","","","","","","","","","","","","","","","","","",""
"","","","","","html-keyboard-response","115","1766118","0.0-2.0-4.0-0.31","63034df51d918e1e3b97e5ce","E1","batch5","spm_show_trial_num","null","<p class=block-text>Trial 56 out of 60</p>","null","","","","","","","","","","","","","","","","","","","","","","","","","",""
"","","","","","image-button-response","116","1835342","0.0-2.0-4.0-1.31","63034df51d918e1e3b97e5ce","E1","batch5","spm_respsonse","69222.70000004768","img/question_5_8.jpeg","5","mat_56","6","1","1","69222.70000004768","","","","","","","","","","","","","","","","","","","","",""
"","","","","","html-keyboard-response","117","1836395","0.0-2.0-4.0-0.32","63034df51d918e1e3b97e5ce","E1","batch5","spm_show_trial_num","null","<p class=block-text>Trial 57 out of 60</p>","null","","","","","","","","","","","","","","","","","","","","","","","","","",""
"","","","","","image-button-response","118","1958446","0.0-2.0-4.0-1.32","63034df51d918e1e3b97e5ce","E1","batch5","spm_respsonse","122050.60000002384","img/question_5_9.jpeg","2","mat_57","3","1","1","122050.60000002384","","","","","","","","","","","","","","","","","","","","",""
"","","","","","html-keyboard-response","119","1959503","0.0-2.0-4.0-0.33","63034df51d918e1e3b97e5ce","E1","batch5","spm_show_trial_num","null","<p class=block-text>Trial 58 out of 60</p>","null","","","","","","","","","","","","","","","","","","","","","","","","","",""
"","","","","","image-button-response","120","2090714","0.0-2.0-4.0-1.33","63034df51d918e1e3b97e5ce","E1","batch5","spm_respsonse","131209.5","img/question_5_10.jpeg","1","mat_58","2","1","1","131209.5","","","","","","","","","","","","","","","","","","","","",""
"","","","","","html-keyboard-response","121","2091782","0.0-2.0-4.0-0.34","63034df51d918e1e3b97e5ce","E1","batch5","spm_show_trial_num","null","<p class=block-text>Trial 59 out of 60</p>","null","","","","","","","","","","","","","","","","","","","","","","","","","",""
"","","","","","image-button-response","122","2237867","0.0-2.0-4.0-1.34","63034df51d918e1e3b97e5ce","E1","batch5","spm_respsonse","146084.09999996424","img/question_5_11.jpeg","6","mat_59","4","0","0","146084.09999996424","","","","","","","","","","","","","","","","","","","","",""
"","","","","","html-keyboard-response","123","2238927","0.0-2.0-4.0-0.35","63034df51d918e1e3b97e5ce","E1","batch5","spm_show_trial_num","null","<p class=block-text>Trial 60 out of 60</p>","null","","","","","","","","","","","","","","","","","","","","","","","","","",""
"","","","","","image-button-response","124","2315281","0.0-2.0-4.0-1.35","63034df51d918e1e3b97e5ce","E1","batch5","spm_respsonse","76352.19999998808","img/question_5_12.jpeg","1","mat_60","5","0","0","76352.19999998808","","","","","","","","","","","","","","","","","","","","",""
"","","","","","html-button-response","125","2317812","0.0-2.0-5.0","63034df51d918e1e3b97e5ce","E1","batch5","spm_goodbye","2264.300000011921","<p class= block-text>This concludes the Standard Progressive Matrix game. Thank you for your responses!<br> When you are ready, click the button continue</p>","0","","","","","","","","","","","","","","","","","","","","","","","","","",""
"true","","","","","fullscreen","126","2320446","0.0-3.0-0.0","63034df51d918e1e3b97e5ce","E1","batch5","","","","","","","","","","","","","","","","","","","","","","","","","","","","","",""
"","","","","","instructions","127","2386044","0.0-3.0-1.0-0.0-0.0","63034df51d918e1e3b97e5ce","E1","batch5","tol-instructions","65597.40000003576","","","","","","","","[{""page_index"":0,""viewing_time"":34405.80000001192},{""page_index"":1,""viewing_time"":3608.300000011921},{""page_index"":2,""viewing_time"":6078.699999988079},{""page_index"":3,""viewing_time"":8128},{""page_index"":4,""viewing_time"":5240.5},{""page_index"":5,""viewing_time"":4982.600000023842},{""page_index"":6,""viewing_time"":3153.399999976158}]","","","","","","","","","","","","","","","","","","","",""
"","","","","","html-button-response","128","2387099","0.0-3.0-1.0-1.0-0.0","63034df51d918e1e3b97e5ce","E1","batch5","tol_enter_quiz","1054.5","<p class=block-text> Let's answer a few questions <br>","0","","","","","","","","","","","","","","","","","","","","","","","","","",""
"","","","","","html-button-response","129","2391887","0.0-3.0-1.0-1.0-1.0","63034df51d918e1e3b97e5ce","E1","batch5","tol_quiz","4788.100000023842","<p class = block-text>True or False: You can only move the ball on top of a peg. <br></p>","0","","","true","","","","","","","","","","","","","","","","","","","","","","",""
"","","","","","html-button-response","130","2392921","0.0-3.0-1.0-1.0-2.0","63034df51d918e1e3b97e5ce","E1","batch5","tol_quiz_feedback","1032.8999999761581","<p class = block-text>Correct! You can only move the ball on top of a peg.</p>","0","","","","","","","","","","","","","","","","","","","","","","","","","",""
"","","","","","html-button-response","131","2396082","0.0-3.0-1.0-1.0-3.0","63034df51d918e1e3b97e5ce","E1","batch5","tol_quiz","3159.800000011921","<p class = block-text>True or False: You should try to match your board with the target board with fewest moves possible. <br></p>","0","","","true","","","","","","","","","","","","","","","","","","","","","","",""
"","","","","","html-button-response","132","2396596","0.0-3.0-1.0-1.0-4.0","63034df51d918e1e3b97e5ce","E1","batch5","tol_quiz_feedback","513.5","<p class = block-text>Correct! </p>","0","","","","","","","","","","","","","","","","","","","","","","","","","",""
"","","","","","html-button-response","133","2398326","0.0-3.0-2.0","63034df51d918e1e3b97e5ce","E1","batch5","","1729.2999999523163","<p class=block-text> Now that you've understood the game, let's practice a few easier examples before we start!<br> <br>","0","","","","","","","","","","","","","","","","","","","","","","","","","",""
"","","","","","single-stim-button","134","2400715","0.0-3.0-3.0-0.0","63034df51d918e1e3b97e5ce","E1","batch5","tol_practice","2388","","","","","","","","","tol_peg_2","2388","2388","0","[[1,2,0],[0,0],[0]]","1","[[1,2,0],[0,0],[3]]","practice","2388","","","","","","","","","","",""
"","","","","","single-stim-button","135","2401801","0.0-3.0-3.0-1.0","63034df51d918e1e3b97e5ce","E1","batch5","tol_practice","1086","","","","","","","","","tol_peg_3","1086","1086","0","[[1,2,0],[0,0],[3]]","1","[[1,2,0],[0,0],[3]]","practice","1086","","","","","","","","","","",""
"","","","","","poldrack-single-stim","136","2402804","0.0-3.0-4.0","63034df51d918e1e3b97e5ce","E1","batch5","tol_feedback","-1","","","","","true","","","","","1000","1000","500","","","","","","-1","none","true","","0","","","","","",""
"","","","","","single-stim-button","137","2408111","0.0-3.0-5.0-0.0","63034df51d918e1e3b97e5ce","E1","batch5","tol_practice","5307","","","","","","","","","tol_peg_1","5307","5307","0","[[1,0,0],[3,0],[0]]","2","[[0,0,0],[3,1],[2]]","practice","5307","","","","","","","","","","",""
"","","","","","single-stim-button","138","2409956","0.0-3.0-5.0-1.0","63034df51d918e1e3b97e5ce","E1","batch5","tol_practice","1845","","","","","","","","","tol_peg_3","1845","1845","0","[[1,0,0],[3,0],[2]]","2","[[0,0,0],[3,1],[2]]","practice","1845","","","","","","","","","","",""
"","","","","","single-stim-button","139","2410610","0.0-3.0-5.1-0.1","63034df51d918e1e3b97e5ce","E1","batch5","tol_practice","652","","","","","","","","","tol_peg_1","652","652","0","[[0,0,0],[3,0],[2]]","3","[[0,0,0],[3,1],[2]]","practice","652","","","","","","","","","","",""
"","","","","","single-stim-button","140","2411207","0.0-3.0-5.1-1.1","63034df51d918e1e3b97e5ce","E1","batch5","tol_practice","597","","","","","","","","","tol_peg_2","597","597","0","[[0,0,0],[3,1],[2]]","3","[[0,0,0],[3,1],[2]]","practice","597","","","","","","","","","","",""
"","","","","","poldrack-single-stim","141","2412215","0.0-3.0-6.0","63034df51d918e1e3b97e5ce","E1","batch5","tol_feedback","-1","","","","","true","","","","","1000","1000","500","","","","","","-1","none","true","","0","","","","","",""
"","","","","","single-stim-button","142","2416815","0.0-3.0-7.0-0.0","63034df51d918e1e3b97e5ce","E1","batch5","tol_practice","4600","","","","","","","","","tol_peg_2","4600","4600","0","[[1,2,0],[0,0],[0]]","4","[[1,0,0],[2,0],[3]]","practice","4600","","","","","","","","","","",""
"","","","","","single-stim-button","143","2417669","0.0-3.0-7.0-1.0","63034df51d918e1e3b97e5ce","E1","batch5","tol_practice","854","","","","","","","","","tol_peg_3","854","854","0","[[1,2,0],[0,0],[3]]","4","[[1,0,0],[2,0],[3]]","practice","854","","","","","","","","","","",""
"","","","","","single-stim-button","144","2418424","0.0-3.0-7.1-0.1","63034df51d918e1e3b97e5ce","E1","batch5","tol_practice","754","","","","","","","","","tol_peg_1","754","754","0","[[1,0,0],[0,0],[3]]","5","[[1,0,0],[2,0],[3]]","practice","754","","","","","","","","","","",""
"","","","","","single-stim-button","145","2419160","0.0-3.0-7.1-1.1","63034df51d918e1e3b97e5ce","E1","batch5","tol_practice","736","","","","","","","","","tol_peg_2","736","736","0","[[1,0,0],[2,0],[3]]","5","[[1,0,0],[2,0],[3]]","practice","736","","","","","","","","","","",""
"","","","","","poldrack-single-stim","146","2420166","0.0-3.0-8.0","63034df51d918e1e3b97e5ce","E1","batch5","tol_feedback","-1","","","","","true","","","","","1000","1000","500","","","","","","-1","none","true","","0","","","","","",""
"","","","","","html-button-response","147","2421465","0.0-3.0-9.0","63034df51d918e1e3b97e5ce","E1","batch5","tol_instruction","1298.699999988079","<div class = centerbox><p class = center-block-text>Great job! You are done with practice trials<br>You are about to start official trials.<br> <br> Problem <strong>1</strong> out of 25 problems</p></div>","0","","","","","","","","","","","","","","","","","","","","","","","","","",""
"","","","","","single-stim-button","148","2429476","0.0-3.0-10.0-0.0","63034df51d918e1e3b97e5ce","E1","batch5","tol_tohand","7010","","","","","","","","","tol_peg_1","7010","7010","0","[[1,0,0],[3,0],[0]]","1","[[1,3,0],[2,0],[0]]","0","0","","","","","","3","","","","",""
"","","","","","single-stim-button","149","2430277","0.0-3.0-10.0-1.0","63034df51d918e1e3b97e5ce","E1","batch5","tol_toboard","799","","","","","","","","","tol_peg_3","799","799","0","[[1,0,0],[3,0],[2]]","1","[[1,3,0],[2,0],[0]]","0","0","","","","","","3","","","","",""
"","","","","","single-stim-button","150","2430662","0.0-3.0-10.1-0.1","63034df51d918e1e3b97e5ce","E1","batch5","tol_tohand","384","","","","","","","","","tol_peg_2","384","384","0","[[1,0,0],[0,0],[2]]","2","[[1,3,0],[2,0],[0]]","0","0","","","","","","3","","","","",""
"","","","","","single-stim-button","151","2431537","0.0-3.0-10.1-1.1","63034df51d918e1e3b97e5ce","E1","batch5","tol_toboard","875","","","","","","","","","tol_peg_1","875","875","0","[[1,3,0],[0,0],[2]]","2","[[1,3,0],[2,0],[0]]","0","0","","","","","","3","","","","",""
"","","","","","single-stim-button","152","2432395","0.0-3.0-10.2-0.2","63034df51d918e1e3b97e5ce","E1","batch5","tol_tohand","858","","","","","","","","","tol_peg_3","858","858","0","[[1,3,0],[0,0],[0]]","3","[[1,3,0],[2,0],[0]]","0","0","","","","","","3","","","","",""
"","","","","","single-stim-button","153","2433769","0.0-3.0-10.2-1.2","63034df51d918e1e3b97e5ce","E1","batch5","tol_toboard","1374","","","","","","","","","tol_peg_2","1374","1374","0","[[1,3,0],[2,0],[0]]","3","[[1,3,0],[2,0],[0]]","0","0","","","","","","3","","","","",""
"","","","","","poldrack-single-stim","154","2434771","0.0-3.0-11.0","63034df51d918e1e3b97e5ce","E1","batch5","tol_feedback","-1","","","","","true","","","","","1000","1000","500","","","","","","-1","none","true","7010","8252","","","","","",""
"","","","","","html-button-response","155","2435970","0.0-3.0-12.0","63034df51d918e1e3b97e5ce","E1","batch5","tol_trial_num","1198.699999988079","<div class = centerbox><p class = center-block-text>problem <strong>2</strong> out of 25 problems</p></div>","0","","","","","","","","","","","","","","","","","","","","","","","","","",""
"","","","","","single-stim-button","156","2442785","0.0-3.0-13.0-0.0","63034df51d918e1e3b97e5ce","E1","batch5","tol_tohand","6815","","","","","","","","","tol_peg_1","6815","6815","0","[[1,0,0],[3,0],[0]]","1","[[2,1,3],[0,0],[0]]","1","0","","","","","","5","","","","",""
"","","","","","single-stim-button","157","2459369","0.0-3.0-13.0-1.0","63034df51d918e1e3b97e5ce","E1","batch5","tol_toboard","16584","","","","","","","","","tol_peg_2","16584","16584","0","[[1,0,0],[3,2],[0]]","1","[[2,1,3],[0,0],[0]]","1","0","","","","","","5","","","","",""
"","","","","","single-stim-button","158","2460348","0.0-3.0-13.1-0.1","63034df51d918e1e3b97e5ce","E1","batch5","tol_tohand","979","","","","","","","","","tol_peg_1","979","979","0","[[0,0,0],[3,2],[0]]","2","[[2,1,3],[0,0],[0]]","1","0","","","","","","5","","","","",""
"","","","","","single-stim-button","159","2461715","0.0-3.0-13.1-1.1","63034df51d918e1e3b97e5ce","E1","batch5","tol_toboard","1367","","","","","","","","","tol_peg_3","1367","1367","0","[[0,0,0],[3,2],[1]]","2","[[2,1,3],[0,0],[0]]","1","0","","","","","","5","","","","",""
"","","","","","single-stim-button","160","2462877","0.0-3.0-13.2-0.2","63034df51d918e1e3b97e5ce","E1","batch5","tol_tohand","1162","","","","","","","","","tol_peg_2","1162","1162","0","[[0,0,0],[3,0],[1]]","3","[[2,1,3],[0,0],[0]]","1","0","","","","","","5","","","","",""
"","","","","","single-stim-button","161","2463638","0.0-3.0-13.2-1.2","63034df51d918e1e3b97e5ce","E1","batch5","tol_toboard","761","","","","","","","","","tol_peg_1","761","761","0","[[2,0,0],[3,0],[1]]","3","[[2,1,3],[0,0],[0]]","1","0","","","","","","5","","","","",""
"","","","","","single-stim-button","162","2464262","0.0-3.0-13.3-0.3","63034df51d918e1e3b97e5ce","E1","batch5","tol_tohand","624","","","","","","","","","tol_peg_3","624","624","0","[[2,0,0],[3,0],[0]]","4","[[2,1,3],[0,0],[0]]","1","0","","","","","","5","","","","",""
"","","","","","single-stim-button","163","2464891","0.0-3.0-13.3-1.3","63034df51d918e1e3b97e5ce","E1","batch5","tol_toboard","629","","","","","","","","","tol_peg_1","629","629","0","[[2,1,0],[3,0],[0]]","4","[[2,1,3],[0,0],[0]]","1","0","","","","","","5","","","","",""
"","","","","","single-stim-button","164","2465385","0.0-3.0-13.4-0.4","63034df51d918e1e3b97e5ce","E1","batch5","tol_tohand","493","","","","","","","","","tol_peg_2","493","493","0","[[2,1,0],[0,0],[0]]","5","[[2,1,3],[0,0],[0]]","1","0","","","","","","5","","","","",""
"","","","","","single-stim-button","165","2466039","0.0-3.0-13.4-1.4","63034df51d918e1e3b97e5ce","E1","batch5","tol_toboard","653","","","","","","","","","tol_peg_1","653","653","0","[[2,1,3],[0,0],[0]]","5","[[2,1,3],[0,0],[0]]","1","0","","","","","","5","","","","",""
"","","","","","poldrack-single-stim","166","2467040","0.0-3.0-14.0","63034df51d918e1e3b97e5ce","E1","batch5","tol_feedback","-1","","","","","true","","","","","1000","1000","500","","","","","","-1","none","true","6815","10073","","","","","",""
"","","","","","html-button-response","167","2467694","0.0-3.0-15.0","63034df51d918e1e3b97e5ce","E1","batch5","tol_trial_num","652.8000000119209","<div class = centerbox><p class = center-block-text>problem <strong>3</strong> out of 25 problems</p></div>","0","","","","","","","","","","","","","","","","","","","","","","","","","",""
"","","","","","single-stim-button","168","2475139","0.0-3.0-16.0-0.0","63034df51d918e1e3b97e5ce","E1","batch5","tol_tohand","7444","","","","","","","","","tol_peg_1","7444","7444","0","[[2,0,0],[0,0],[1]]","1","[[1,2,0],[3,0],[0]]","2","0","","","","","","4","","","","",""
"","","","","","single-stim-button","169","2476023","0.0-3.0-16.0-1.0","63034df51d918e1e3b97e5ce","E1","batch5","tol_toboard","883","","","","","","","","","tol_peg_2","883","883","0","[[2,0,0],[3,0],[1]]","1","[[1,2,0],[3,0],[0]]","2","0","","","","","","4","","","","",""
"","","","","","single-stim-button","170","2476863","0.0-3.0-16.1-0.1","63034df51d918e1e3b97e5ce","E1","batch5","tol_tohand","840","","","","","","","","","tol_peg_1","840","840","0","[[0,0,0],[3,0],[1]]","2","[[1,2,0],[3,0],[0]]","2","0","","","","","","4","","","","",""
"","","","","","single-stim-button","171","2477336","0.0-3.0-16.1-1.1","63034df51d918e1e3b97e5ce","E1","batch5","tol_toboard","473","","","","","","","","","tol_peg_2","473","473","0","[[0,0,0],[3,2],[1]]","2","[[1,2,0],[3,0],[0]]","2","0","","","","","","4","","","","",""
"","","","","","single-stim-button","172","2477757","0.0-3.0-16.2-0.2","63034df51d918e1e3b97e5ce","E1","batch5","tol_tohand","421","","","","","","","","","tol_peg_3","421","421","0","[[0,0,0],[3,2],[0]]","3","[[1,2,0],[3,0],[0]]","2","0","","","","","","4","","","","",""
"","","","","","single-stim-button","173","2478351","0.0-3.0-16.2-1.2","63034df51d918e1e3b97e5ce","E1","batch5","tol_toboard","594","","","","","","","","","tol_peg_1","594","594","0","[[1,0,0],[3,2],[0]]","3","[[1,2,0],[3,0],[0]]","2","0","","","","","","4","","","","",""
"","","","","","single-stim-button","174","2478708","0.0-3.0-16.3-0.3","63034df51d918e1e3b97e5ce","E1","batch5","tol_tohand","357","","","","","","","","","tol_peg_2","357","357","0","[[1,0,0],[3,0],[0]]","4","[[1,2,0],[3,0],[0]]","2","0","","","","","","4","","","","",""
"","","","","","single-stim-button","175","2479243","0.0-3.0-16.3-1.3","63034df51d918e1e3b97e5ce","E1","batch5","tol_toboard","535","","","","","","","","","tol_peg_1","535","535","0","[[1,2,0],[3,0],[0]]","4","[[1,2,0],[3,0],[0]]","2","0","","","","","","4","","","","",""
"","","","","","poldrack-single-stim","176","2480245","0.0-3.0-17.0","63034df51d918e1e3b97e5ce","E1","batch5","tol_feedback","-1","","","","","true","","","","","1000","1000","500","","","","","","-1","none","true","7444","9062","","","","","",""
"","","","","","html-button-response","177","2480994","0.0-3.0-18.0","63034df51d918e1e3b97e5ce","E1","batch5","tol_trial_num","748.1000000238419","<div class = centerbox><p class = center-block-text>problem <strong>4</strong> out of 25 problems</p></div>","0","","","","","","","","","","","","","","","","","","","","","","","","","",""
"","","","","","single-stim-button","178","2488099","0.0-3.0-19.0-0.0","63034df51d918e1e3b97e5ce","E1","batch5","tol_tohand","7105","","","","","","","","","tol_peg_2","7105","7105","0","[[3,0,0],[2,0],[0]]","1","[[3,0,0],[1,0],[2]]","3","0","","","","","","3","","","","",""
"","","","","","single-stim-button","179","2488685","0.0-3.0-19.0-1.0","63034df51d918e1e3b97e5ce","E1","batch5","tol_toboard","586","","","","","","","","","tol_peg_1","586","586","0","[[3,1,0],[2,0],[0]]","1","[[3,0,0],[1,0],[2]]","3","0","","","","","","3","","","","",""
"","","","","","single-stim-button","180","2489164","0.0-3.0-19.1-0.1","63034df51d918e1e3b97e5ce","E1","batch5","tol_tohand","479","","","","","","","","","tol_peg_2","479","479","0","[[3,1,0],[0,0],[0]]","2","[[3,0,0],[1,0],[2]]","3","0","","","","","","3","","","","",""
"","","","","","single-stim-button","181","2490466","0.0-3.0-19.1-1.1","63034df51d918e1e3b97e5ce","E1","batch5","tol_toboard","1302","","","","","","","","","tol_peg_3","1302","1302","0","[[3,1,0],[0,0],[2]]","2","[[3,0,0],[1,0],[2]]","3","0","","","","","","3","","","","",""
"","","","","","single-stim-button","182","2490866","0.0-3.0-19.2-0.2","63034df51d918e1e3b97e5ce","E1","batch5","tol_tohand","400","","","","","","","","","tol_peg_1","400","400","0","[[3,0,0],[0,0],[2]]","3","[[3,0,0],[1,0],[2]]","3","0","","","","","","3","","","","",""
"","","","","","single-stim-button","183","2491619","0.0-3.0-19.2-1.2","63034df51d918e1e3b97e5ce","E1","batch5","tol_toboard","752","","","","","","","","","tol_peg_2","752","752","0","[[3,0,0],[1,0],[2]]","3","[[3,0,0],[1,0],[2]]","3","0","","","","","","3","","","","",""
"","","","","","poldrack-single-stim","184","2492632","0.0-3.0-20.0","63034df51d918e1e3b97e5ce","E1","batch5","tol_feedback","-1","","","","","true","","","","","1000","1000","500","","","","","","-1","none","true","7105","7984","","","","","",""
"","","","","","html-button-response","185","2493625","0.0-3.0-21.0","63034df51d918e1e3b97e5ce","E1","batch5","tol_trial_num","991.7000000476837","<div class = centerbox><p class = center-block-text>problem <strong>5</strong> out of 25 problems</p></div>","0","","","","","","","","","","","","","","","","","","","","","","","","","",""
"","","","","","single-stim-button","186","2564429","0.0-3.0-22.0-0.0","63034df51d918e1e3b97e5ce","E1","batch5","tol_tohand","70804","","","","","","","","","tol_peg_3","70804","70804","0","[[1,0,0],[2,0],[0]]","1","[[0,0,0],[1,2],[3]]","4","0","","","","","","7","","","","",""
"","","","","","single-stim-button","187","2580732","0.0-3.0-22.0-1.0","63034df51d918e1e3b97e5ce","E1","batch5","tol_toboard","16302","","","","","","","","","tol_peg_2","16302","16302","0","[[1,0,0],[2,3],[0]]","1","[[0,0,0],[1,2],[3]]","4","0","","","","","","7","","","","",""
"","","","","","single-stim-button","188","2581690","0.0-3.0-22.1-0.1","63034df51d918e1e3b97e5ce","E1","batch5","tol_tohand","958","","","","","","","","","tol_peg_1","958","958","0","[[0,0,0],[2,3],[0]]","2","[[0,0,0],[1,2],[3]]","4","0","","","","","","7","","","","",""
"","","","","","single-stim-button","189","2587232","0.0-3.0-22.1-1.1","63034df51d918e1e3b97e5ce","E1","batch5","tol_toboard","5542","","","","","","","","","tol_peg_3","5542","5542","0","[[0,0,0],[2,3],[1]]","2","[[0,0,0],[1,2],[3]]","4","0","","","","","","7","","","","",""
"","","","","","single-stim-button","190","2587856","0.0-3.0-22.2-0.2","63034df51d918e1e3b97e5ce","E1","batch5","tol_tohand","624","","","","","","","","","tol_peg_2","624","624","0","[[0,0,0],[2,0],[1]]","3","[[0,0,0],[1,2],[3]]","4","0","","","","","","7","","","","",""
"","","","","","single-stim-button","191","2588507","0.0-3.0-22.2-1.2","63034df51d918e1e3b97e5ce","E1","batch5","tol_toboard","651","","","","","","","","","tol_peg_1","651","651","0","[[3,0,0],[2,0],[1]]","3","[[0,0,0],[1,2],[3]]","4","0","","","","","","7","","","","",""
"","","","","","single-stim-button","192","2590161","0.0-3.0-22.3-0.3","63034df51d918e1e3b97e5ce","E1","batch5","tol_tohand","1653","","","","","","","","","tol_peg_2","1653","1653","0","[[3,0,0],[0,0],[1]]","4","[[0,0,0],[1,2],[3]]","4","0","","","","","","7","","","","",""
"","","","","","single-stim-button","193","2590727","0.0-3.0-22.3-1.3","63034df51d918e1e3b97e5ce","E1","batch5","tol_toboard","565","","","","","","","","","tol_peg_1","565","565","0","[[3,2,0],[0,0],[1]]","4","[[0,0,0],[1,2],[3]]","4","0","","","","","","7","","","","",""
"","","","","","single-stim-button","194","2591268","0.0-3.0-22.4-0.4","63034df51d918e1e3b97e5ce","E1","batch5","tol_tohand","540","","","","","","","","","tol_peg_3","540","540","0","[[3,2,0],[0,0],[0]]","5","[[0,0,0],[1,2],[3]]","4","0","","","","","","7","","","","",""
"","","","","","single-stim-button","195","2591827","0.0-3.0-22.4-1.4","63034df51d918e1e3b97e5ce","E1","batch5","tol_toboard","559","","","","","","","","","tol_peg_2","559","559","0","[[3,2,0],[1,0],[0]]","5","[[0,0,0],[1,2],[3]]","4","0","","","","","","7","","","","",""
"","","","","","single-stim-button","196","2592237","0.0-3.0-22.5-0.5","63034df51d918e1e3b97e5ce","E1","batch5","tol_tohand","409","","","","","","","","","tol_peg_1","409","409","0","[[3,0,0],[1,0],[0]]","6","[[0,0,0],[1,2],[3]]","4","0","","","","","","7","","","","",""
"","","","","","single-stim-button","197","2593368","0.0-3.0-22.5-1.5","63034df51d918e1e3b97e5ce","E1","batch5","tol_toboard","1131","","","","","","","","","tol_peg_2","1131","1131","0","[[3,0,0],[1,2],[0]]","6","[[0,0,0],[1,2],[3]]","4","0","","","","","","7","","","","",""
"","","","","","single-stim-button","198","2593990","0.0-3.0-22.6-0.6","63034df51d918e1e3b97e5ce","E1","batch5","tol_tohand","622","","","","","","","","","tol_peg_1","622","622","0","[[0,0,0],[1,2],[0]]","7","[[0,0,0],[1,2],[3]]","4","0","","","","","","7","","","","",""
"","","","","","single-stim-button","199","2594509","0.0-3.0-22.6-1.6","63034df51d918e1e3b97e5ce","E1","batch5","tol_toboard","519","","","","","","","","","tol_peg_3","519","519","0","[[0,0,0],[1,2],[3]]","7","[[0,0,0],[1,2],[3]]","4","0","","","","","","7","","","","",""
"","","","","","poldrack-single-stim","200","2595510","0.0-3.0-23.0","63034df51d918e1e3b97e5ce","E1","batch5","tol_feedback","-1","","","","","true","","","","","1000","1000","500","","","","","","-1","none","true","70804","75610","","","","","",""
"","","","","","html-button-response","201","2596497","0.0-3.0-24.0","63034df51d918e1e3b97e5ce","E1","batch5","tol_trial_num","986.6000000238419","<div class = centerbox><p class = center-block-text>problem <strong>6</strong> out of 25 problems</p></div>","0","","","","","","","","","","","","","","","","","","","","","","","","","",""
"","","","","","single-stim-button","202","2604333","0.0-3.0-25.0-0.0","63034df51d918e1e3b97e5ce","E1","batch5","tol_tohand","7836","","","","","","","","","tol_peg_2","7836","7836","0","[[0,0,0],[1,0],[3]]","1","[[1,0,0],[2,3],[0]]","5","0","","","","","","6","","","","",""
"","","","","","single-stim-button","203","2629085","0.0-3.0-25.0-1.0","63034df51d918e1e3b97e5ce","E1","batch5","tol_toboard","24752","","","","","","","","","tol_peg_2","24752","24752","0","[[0,0,0],[1,2],[3]]","1","[[1,0,0],[2,3],[0]]","5","0","","","","","","6","","","","",""
"","","","","","single-stim-button","204","2629444","0.0-3.0-25.1-0.1","63034df51d918e1e3b97e5ce","E1","batch5","tol_tohand","359","","","","","","","","","tol_peg_3","359","359","0","[[0,0,0],[1,2],[0]]","2","[[1,0,0],[2,3],[0]]","5","0","","","","","","6","","","","",""
"","","","","","single-stim-button","205","2630156","0.0-3.0-25.1-1.1","63034df51d918e1e3b97e5ce","E1","batch5","tol_toboard","712","","","","","","","","","tol_peg_1","712","712","0","[[3,0,0],[1,2],[0]]","2","[[1,0,0],[2,3],[0]]","5","0","","","","","","6","","","","",""
"","","","","","single-stim-button","206","2630659","0.0-3.0-25.2-0.2","63034df51d918e1e3b97e5ce","E1","batch5","tol_tohand","502","","","","","","","","","tol_peg_2","502","502","0","[[3,0,0],[1,0],[0]]","3","[[1,0,0],[2,3],[0]]","5","0","","","","","","6","","","","",""
"","","","","","single-stim-button","207","2633244","0.0-3.0-25.2-1.2","63034df51d918e1e3b97e5ce","E1","batch5","tol_toboard","2585","","","","","","","","","tol_peg_3","2585","2585","0","[[3,0,0],[1,0],[2]]","3","[[1,0,0],[2,3],[0]]","5","0","","","","","","6","","","","",""
"","","","","","single-stim-button","208","2634363","0.0-3.0-25.3-0.3","63034df51d918e1e3b97e5ce","E1","batch5","tol_tohand","1118","","","","","","","","","tol_peg_2","1118","1118","0","[[3,0,0],[0,0],[2]]","4","[[1,0,0],[2,3],[0]]","5","0","","","","","","6","","","","",""
"","","","","","single-stim-button","209","2634986","0.0-3.0-25.3-1.3","63034df51d918e1e3b97e5ce","E1","batch5","tol_toboard","623","","","","","","","","","tol_peg_1","623","623","0","[[3,1,0],[0,0],[2]]","4","[[1,0,0],[2,3],[0]]","5","0","","","","","","6","","","","",""
"","","","","","single-stim-button","210","2636846","0.0-3.0-25.4-0.4","63034df51d918e1e3b97e5ce","E1","batch5","tol_tohand","1859","","","","","","","","","tol_peg_3","1859","1859","0","[[3,1,0],[0,0],[0]]","5","[[1,0,0],[2,3],[0]]","5","0","","","","","","6","","","","",""
"","","","","","single-stim-button","211","2637272","0.0-3.0-25.4-1.4","63034df51d918e1e3b97e5ce","E1","batch5","tol_toboard","425","","","","","","","","","tol_peg_2","425","425","0","[[3,1,0],[2,0],[0]]","5","[[1,0,0],[2,3],[0]]","5","0","","","","","","6","","","","",""
"","","","","","single-stim-button","212","2637744","0.0-3.0-25.5-0.5","63034df51d918e1e3b97e5ce","E1","batch5","tol_tohand","472","","","","","","","","","tol_peg_1","472","472","0","[[3,0,0],[2,0],[0]]","6","[[1,0,0],[2,3],[0]]","5","0","","","","","","6","","","","",""
"","","","","","single-stim-button","213","2638120","0.0-3.0-25.5-1.5","63034df51d918e1e3b97e5ce","E1","batch5","tol_toboard","376","","","","","","","","","tol_peg_2","376","376","0","[[3,0,0],[2,1],[0]]","6","[[1,0,0],[2,3],[0]]","5","0","","","","","","6","","","","",""
"","","","","","single-stim-button","214","2638543","0.0-3.0-25.6-0.6","63034df51d918e1e3b97e5ce","E1","batch5","tol_tohand","422","","","","","","","","","tol_peg_1","422","422","0","[[0,0,0],[2,1],[0]]","7","[[1,0,0],[2,3],[0]]","5","0","","","","","","6","","","","",""
"","","","","","single-stim-button","215","2639998","0.0-3.0-25.6-1.6","63034df51d918e1e3b97e5ce","E1","batch5","tol_toboard","1455","","","","","","","","","tol_peg_3","1455","1455","0","[[0,0,0],[2,1],[3]]","7","[[1,0,0],[2,3],[0]]","5","0","","","","","","6","","","","",""
"","","","","","single-stim-button","216","2640378","0.0-3.0-25.7-0.7","63034df51d918e1e3b97e5ce","E1","batch5","tol_tohand","380","","","","","","","","","tol_peg_2","380","380","0","[[0,0,0],[2,0],[3]]","8","[[1,0,0],[2,3],[0]]","5","0","","","","","","6","","","","",""
"","","","","","single-stim-button","217","2640695","0.0-3.0-25.7-1.7","63034df51d918e1e3b97e5ce","E1","batch5","tol_toboard","317","","","","","","","","","tol_peg_1","317","317","0","[[1,0,0],[2,0],[3]]","8","[[1,0,0],[2,3],[0]]","5","0","","","","","","6","","","","",""
"","","","","","single-stim-button","218","2641179","0.0-3.0-25.8-0.8","63034df51d918e1e3b97e5ce","E1","batch5","tol_tohand","484","","","","","","","","","tol_peg_3","484","484","0","[[1,0,0],[2,0],[0]]","9","[[1,0,0],[2,3],[0]]","5","0","","","","","","6","","","","",""
"","","","","","single-stim-button","219","2641498","0.0-3.0-25.8-1.8","63034df51d918e1e3b97e5ce","E1","batch5","tol_toboard","319","","","","","","","","","tol_peg_2","319","319","0","[[1,0,0],[2,3],[0]]","9","[[1,0,0],[2,3],[0]]","5","0","","","","","","6","","","","",""
"","","","","","poldrack-single-stim","220","2642499","0.0-3.0-26.0","63034df51d918e1e3b97e5ce","E1","batch5","tol_feedback","-1","","","","","true","","","","","1000","1000","500","","","","","","-1","none","true","7836","13432","","","","","",""
"","","","","","html-button-response","221","2643244","0.0-3.0-27.0","63034df51d918e1e3b97e5ce","E1","batch5","tol_trial_num","744.4000000357628","<div class = centerbox><p class = center-block-text>problem <strong>7</strong> out of 25 problems</p></div>","0","","","","","","","","","","","","","","","","","","","","","","","","","",""
"","","","","","single-stim-button","222","2654670","0.0-3.0-28.0-0.0","63034df51d918e1e3b97e5ce","E1","batch5","tol_tohand","11426","","","","","","","","","tol_peg_3","11426","11426","0","[[2,1,0],[0,0],[0]]","1","[[1,2,0],[3,0],[0]]","6","0","","","","","","5","","","","",""
"","","","","","single-stim-button","223","2655485","0.0-3.0-28.0-1.0","63034df51d918e1e3b97e5ce","E1","batch5","tol_toboard","814","","","","","","","","","tol_peg_2","814","814","0","[[2,1,0],[3,0],[0]]","1","[[1,2,0],[3,0],[0]]","6","0","","","","","","5","","","","",""
"","","","","","single-stim-button","224","2656725","0.0-3.0-28.1-0.1","63034df51d918e1e3b97e5ce","E1","batch5","tol_tohand","1238","","","","","","","","","tol_peg_1","1238","1238","0","[[2,0,0],[3,0],[0]]","2","[[1,2,0],[3,0],[0]]","6","0","","","","","","5","","","","",""
"","","","","","single-stim-button","225","2658367","0.0-3.0-28.1-1.1","63034df51d918e1e3b97e5ce","E1","batch5","tol_toboard","1642","","","","","","","","","tol_peg_3","1642","1642","0","[[2,0,0],[3,0],[1]]","2","[[1,2,0],[3,0],[0]]","6","0","","","","","","5","","","","",""
"","","","","","single-stim-button","226","2658796","0.0-3.0-28.2-0.2","63034df51d918e1e3b97e5ce","E1","batch5","tol_tohand","429","","","","","","","","","tol_peg_1","429","429","0","[[0,0,0],[3,0],[1]]","3","[[1,2,0],[3,0],[0]]","6","0","","","","","","5","","","","",""
"","","","","","single-stim-button","227","2659233","0.0-3.0-28.2-1.2","63034df51d918e1e3b97e5ce","E1","batch5","tol_toboard","436","","","","","","","","","tol_peg_2","436","436","0","[[0,0,0],[3,2],[1]]","3","[[1,2,0],[3,0],[0]]","6","0","","","","","","5","","","","",""
"","","","","","single-stim-button","228","2659633","0.0-3.0-28.3-0.3","63034df51d918e1e3b97e5ce","E1","batch5","tol_tohand","400","","","","","","","","","tol_peg_3","400","400","0","[[0,0,0],[3,2],[0]]","4","[[1,2,0],[3,0],[0]]","6","0","","","","","","5","","","","",""
"","","","","","single-stim-button","229","2660076","0.0-3.0-28.3-1.3","63034df51d918e1e3b97e5ce","E1","batch5","tol_toboard","443","","","","","","","","","tol_peg_1","443","443","0","[[1,0,0],[3,2],[0]]","4","[[1,2,0],[3,0],[0]]","6","0","","","","","","5","","","","",""
"","","","","","single-stim-button","230","2660420","0.0-3.0-28.4-0.4","63034df51d918e1e3b97e5ce","E1","batch5","tol_tohand","344","","","","","","","","","tol_peg_2","344","344","0","[[1,0,0],[3,0],[0]]","5","[[1,2,0],[3,0],[0]]","6","0","","","","","","5","","","","",""
"","","","","","single-stim-button","231","2660750","0.0-3.0-28.4-1.4","63034df51d918e1e3b97e5ce","E1","batch5","tol_toboard","330","","","","","","","","","tol_peg_1","330","330","0","[[1,2,0],[3,0],[0]]","5","[[1,2,0],[3,0],[0]]","6","0","","","","","","5","","","","",""
"","","","","","poldrack-single-stim","232","2661756","0.0-3.0-29.0","63034df51d918e1e3b97e5ce","E1","batch5","tol_feedback","-1","","","","","true","","","","","1000","1000","500","","","","","","-1","none","true","11426","13837","","","","","",""
"","","","","","html-button-response","233","2663863","0.0-3.0-30.0","63034df51d918e1e3b97e5ce","E1","batch5","tol_trial_num","2107.100000023842","<div class = centerbox><p class = center-block-text>problem <strong>8</strong> out of 25 problems</p></div>","0","","","","","","","","","","","","","","","","","","","","","","","","","",""
"","","","","","single-stim-button","234","2709080","0.0-3.0-31.0-0.0","63034df51d918e1e3b97e5ce","E1","batch5","tol_tohand","45216","","","","","","","","","tol_peg_3","45216","45216","0","[[0,0,0],[2,3],[0]]","1","[[1,2,0],[3,0],[0]]","7","0","","","","","","4","","","","",""
"","","","","","single-stim-button","235","2709713","0.0-3.0-31.0-1.0","63034df51d918e1e3b97e5ce","E1","batch5","tol_toboard","633","","","","","","","","","tol_peg_1","633","633","0","[[1,0,0],[2,3],[0]]","1","[[1,2,0],[3,0],[0]]","7","0","","","","","","4","","","","",""
"","","","","","single-stim-button","236","2710054","0.0-3.0-31.1-0.1","63034df51d918e1e3b97e5ce","E1","batch5","tol_tohand","341","","","","","","","","","tol_peg_2","341","341","0","[[1,0,0],[2,0],[0]]","2","[[1,2,0],[3,0],[0]]","7","0","","","","","","4","","","","",""
"","","","","","single-stim-button","237","2710590","0.0-3.0-31.1-1.1","63034df51d918e1e3b97e5ce","E1","batch5","tol_toboard","536","","","","","","","","","tol_peg_3","536","536","0","[[1,0,0],[2,0],[3]]","2","[[1,2,0],[3,0],[0]]","7","0","","","","","","4","","","","",""
"","","","","","single-stim-button","238","2715090","0.0-3.0-31.2-0.2","63034df51d918e1e3b97e5ce","E1","batch5","tol_tohand","4500","","","","","","","","","tol_peg_3","4500","4500","0","[[1,0,0],[2,0],[0]]","3","[[1,2,0],[3,0],[0]]","7","0","","","","","","4","","","","",""
"","","","","","single-stim-button","239","2715612","0.0-3.0-31.2-1.2","63034df51d918e1e3b97e5ce","E1","batch5","tol_toboard","520","","","","","","","","","tol_peg_1","520","520","0","[[1,3,0],[2,0],[0]]","3","[[1,2,0],[3,0],[0]]","7","0","","","","","","4","","","","",""
"","","","","","single-stim-button","240","2716327","0.0-3.0-31.3-0.3","63034df51d918e1e3b97e5ce","E1","batch5","tol_tohand","714","","","","","","","","","tol_peg_2","714","714","0","[[1,3,0],[0,0],[0]]","4","[[1,2,0],[3,0],[0]]","7","0","","","","","","4","","","","",""
"","","","","","single-stim-button","241","2716724","0.0-3.0-31.3-1.3","63034df51d918e1e3b97e5ce","E1","batch5","tol_toboard","396","","","","","","","","","tol_peg_3","396","396","0","[[1,3,0],[0,0],[2]]","4","[[1,2,0],[3,0],[0]]","7","0","","","","","","4","","","","",""
"","","","","","single-stim-button","242","2717147","0.0-3.0-31.4-0.4","63034df51d918e1e3b97e5ce","E1","batch5","tol_tohand","422","","","","","","","","","tol_peg_1","422","422","0","[[1,0,0],[0,0],[2]]","5","[[1,2,0],[3,0],[0]]","7","0","","","","","","4","","","","",""
"","","","","","single-stim-button","243","2718604","0.0-3.0-31.4-1.4","63034df51d918e1e3b97e5ce","E1","batch5","tol_toboard","1457","","","","","","","","","tol_peg_2","1457","1457","0","[[1,0,0],[3,0],[2]]","5","[[1,2,0],[3,0],[0]]","7","0","","","","","","4","","","","",""
"","","","","","single-stim-button","244","2721882","0.0-3.0-31.5-0.5","63034df51d918e1e3b97e5ce","E1","batch5","tol_tohand","3278","","","","","","","","","tol_peg_3","3278","3278","0","[[1,0,0],[3,0],[0]]","6","[[1,2,0],[3,0],[0]]","7","0","","","","","","4","","","","",""
"","","","","","single-stim-button","245","2722297","0.0-3.0-31.5-1.5","63034df51d918e1e3b97e5ce","E1","batch5","tol_toboard","415","","","","","","","","","tol_peg_1","415","415","0","[[1,2,0],[3,0],[0]]","6","[[1,2,0],[3,0],[0]]","7","0","","","","","","4","","","","",""
"","","","","","poldrack-single-stim","246","2723298","0.0-3.0-32.0","63034df51d918e1e3b97e5ce","E1","batch5","tol_feedback","-1","","","","","true","","","","","1000","1000","500","","","","","","-1","none","true","45216","54471","","","","","",""
"","","","","","html-button-response","247","2724110","0.0-3.0-33.0","63034df51d918e1e3b97e5ce","E1","batch5","tol_trial_num","812","<div class = centerbox><p class = center-block-text>problem <strong>9</strong> out of 25 problems</p></div>","0","","","","","","","","","","","","","","","","","","","","","","","","","",""
"","","","","","single-stim-button","248","2742906","0.0-3.0-34.0-0.0","63034df51d918e1e3b97e5ce","E1","batch5","tol_tohand","18795","","","","","","","","","tol_peg_1","18795","18795","0","[[3,0,0],[0,0],[1]]","1","[[2,1,0],[3,0],[0]]","8","0","","","","","","6","","","","",""
"","","","","","single-stim-button","249","2743586","0.0-3.0-34.0-1.0","63034df51d918e1e3b97e5ce","E1","batch5","tol_toboard","680","","","","","","","","","tol_peg_2","680","680","0","[[3,0,0],[2,0],[1]]","1","[[2,1,0],[3,0],[0]]","8","0","","","","","","6","","","","",""
"","","","","","single-stim-button","250","2745350","0.0-3.0-34.1-0.1","63034df51d918e1e3b97e5ce","E1","batch5","tol_tohand","1764","","","","","","","","","tol_peg_3","1764","1764","0","[[3,0,0],[2,0],[0]]","2","[[2,1,0],[3,0],[0]]","8","0","","","","","","6","","","","",""
"","","","","","single-stim-button","251","2745930","0.0-3.0-34.1-1.1","63034df51d918e1e3b97e5ce","E1","batch5","tol_toboard","580","","","","","","","","","tol_peg_2","580","580","0","[[3,0,0],[2,1],[0]]","2","[[2,1,0],[3,0],[0]]","8","0","","","","","","6","","","","",""
"","","","","","single-stim-button","252","2746512","0.0-3.0-34.2-0.2","63034df51d918e1e3b97e5ce","E1","batch5","tol_tohand","582","","","","","","","","","tol_peg_1","582","582","0","[[0,0,0],[2,1],[0]]","3","[[2,1,0],[3,0],[0]]","8","0","","","","","","6","","","","",""
"","","","","","single-stim-button","253","2747209","0.0-3.0-34.2-1.2","63034df51d918e1e3b97e5ce","E1","batch5","tol_toboard","697","","","","","","","","","tol_peg_3","697","697","0","[[0,0,0],[2,1],[3]]","3","[[2,1,0],[3,0],[0]]","8","0","","","","","","6","","","","",""
"","","","","","single-stim-button","254","2753459","0.0-3.0-34.3-0.3","63034df51d918e1e3b97e5ce","E1","batch5","tol_tohand","6250","","","","","","","","","tol_peg_2","6250","6250","0","[[0,0,0],[2,0],[3]]","4","[[2,1,0],[3,0],[0]]","8","0","","","","","","6","","","","",""
"","","","","","single-stim-button","255","2754424","0.0-3.0-34.3-1.3","63034df51d918e1e3b97e5ce","E1","batch5","tol_toboard","965","","","","","","","","","tol_peg_1","965","965","0","[[1,0,0],[2,0],[3]]","4","[[2,1,0],[3,0],[0]]","8","0","","","","","","6","","","","",""
"","","","","","single-stim-button","256","2754741","0.0-3.0-34.4-0.4","63034df51d918e1e3b97e5ce","E1","batch5","tol_tohand","317","","","","","","","","","tol_peg_2","317","317","0","[[1,0,0],[0,0],[3]]","5","[[2,1,0],[3,0],[0]]","8","0","","","","","","6","","","","",""
"","","","","","single-stim-button","257","2755146","0.0-3.0-34.4-1.4","63034df51d918e1e3b97e5ce","E1","batch5","tol_toboard","404","","","","","","","","","tol_peg_1","404","404","0","[[1,2,0],[0,0],[3]]","5","[[2,1,0],[3,0],[0]]","8","0","","","","","","6","","","","",""
"","","","","","single-stim-button","258","2755619","0.0-3.0-34.5-0.5","63034df51d918e1e3b97e5ce","E1","batch5","tol_tohand","473","","","","","","","","","tol_peg_3","473","473","0","[[1,2,0],[0,0],[0]]","6","[[2,1,0],[3,0],[0]]","8","0","","","","","","6","","","","",""
"","","","","","single-stim-button","259","2756039","0.0-3.0-34.5-1.5","63034df51d918e1e3b97e5ce","E1","batch5","tol_toboard","420","","","","","","","","","tol_peg_2","420","420","0","[[1,2,0],[3,0],[0]]","6","[[2,1,0],[3,0],[0]]","8","0","","","","","","6","","","","",""
"","","","","","single-stim-button","260","2757033","0.0-3.0-34.6-0.6","63034df51d918e1e3b97e5ce","E1","batch5","tol_tohand","994","","","","","","","","","tol_peg_1","994","994","0","[[1,0,0],[3,0],[0]]","7","[[2,1,0],[3,0],[0]]","8","0","","","","","","6","","","","",""
"","","","","","single-stim-button","261","2757453","0.0-3.0-34.6-1.6","63034df51d918e1e3b97e5ce","E1","batch5","tol_toboard","420","","","","","","","","","tol_peg_2","420","420","0","[[1,0,0],[3,2],[0]]","7","[[2,1,0],[3,0],[0]]","8","0","","","","","","6","","","","",""
"","","","","","single-stim-button","262","2758915","0.0-3.0-34.7-0.7","63034df51d918e1e3b97e5ce","E1","batch5","tol_tohand","1462","","","","","","","","","tol_peg_1","1462","1462","0","[[0,0,0],[3,2],[0]]","8","[[2,1,0],[3,0],[0]]","8","0","","","","","","6","","","","",""
"","","","","","single-stim-button","263","2759469","0.0-3.0-34.7-1.7","63034df51d918e1e3b97e5ce","E1","batch5","tol_toboard","553","","","","","","","","","tol_peg_3","553","553","0","[[0,0,0],[3,2],[1]]","8","[[2,1,0],[3,0],[0]]","8","0","","","","","","6","","","","",""
"","","","","","single-stim-button","264","2759802","0.0-3.0-34.8-0.8","63034df51d918e1e3b97e5ce","E1","batch5","tol_tohand","332","","","","","","","","","tol_peg_2","332","332","0","[[0,0,0],[3,0],[1]]","9","[[2,1,0],[3,0],[0]]","8","0","","","","","","6","","","","",""
"","","","","","single-stim-button","265","2760225","0.0-3.0-34.8-1.8","63034df51d918e1e3b97e5ce","E1","batch5","tol_toboard","423","","","","","","","","","tol_peg_1","423","423","0","[[2,0,0],[3,0],[1]]","9","[[2,1,0],[3,0],[0]]","8","0","","","","","","6","","","","",""
"","","","","","single-stim-button","266","2760670","0.0-3.0-34.9-0.9","63034df51d918e1e3b97e5ce","E1","batch5","tol_tohand","445","","","","","","","","","tol_peg_3","445","445","0","[[2,0,0],[3,0],[0]]","10","[[2,1,0],[3,0],[0]]","8","0","","","","","","6","","","","",""
"","","","","","single-stim-button","267","2761218","0.0-3.0-34.9-1.9","63034df51d918e1e3b97e5ce","E1","batch5","tol_toboard","547","","","","","","","","","tol_peg_1","547","547","0","[[2,1,0],[3,0],[0]]","10","[[2,1,0],[3,0],[0]]","8","0","","","","","","6","","","","",""
"","","","","","poldrack-single-stim","268","2762220","0.0-3.0-35.0","63034df51d918e1e3b97e5ce","E1","batch5","tol_feedback","-1","","","","","true","","","","","1000","1000","500","","","","","","-1","none","true","18795","31414","","","","","",""
"","","","","","html-button-response","269","2762964","0.0-3.0-36.0","63034df51d918e1e3b97e5ce","E1","batch5","tol_trial_num","743.5","<div class = centerbox><p class = center-block-text>problem <strong>10</strong> out of 25 problems</p></div>","0","","","","","","","","","","","","","","","","","","","","","","","","","",""
"","","","","","single-stim-button","270","2768693","0.0-3.0-37.0-0.0","63034df51d918e1e3b97e5ce","E1","batch5","tol_tohand","5728","","","","","","","","","tol_peg_2","5728","5728","0","[[3,0,0],[0,0],[2]]","1","[[3,0,0],[2,1],[0]]","9","0","","","","","","3","","","","",""
"","","","","","single-stim-button","271","2769101","0.0-3.0-37.0-1.0","63034df51d918e1e3b97e5ce","E1","batch5","tol_toboard","408","","","","","","","","","tol_peg_1","408","408","0","[[3,1,0],[0,0],[2]]","1","[[3,0,0],[2,1],[0]]","9","0","","","","","","3","","","","",""
"","","","","","single-stim-button","272","2769567","0.0-3.0-37.1-0.1","63034df51d918e1e3b97e5ce","E1","batch5","tol_tohand","465","","","","","","","","","tol_peg_3","465","465","0","[[3,1,0],[0,0],[0]]","2","[[3,0,0],[2,1],[0]]","9","0","","","","","","3","","","","",""
"","","","","","single-stim-button","273","2769969","0.0-3.0-37.1-1.1","63034df51d918e1e3b97e5ce","E1","batch5","tol_toboard","401","","","","","","","","","tol_peg_2","401","401","0","[[3,1,0],[2,0],[0]]","2","[[3,0,0],[2,1],[0]]","9","0","","","","","","3","","","","",""
"","","","","","single-stim-button","274","2770338","0.0-3.0-37.2-0.2","63034df51d918e1e3b97e5ce","E1","batch5","tol_tohand","368","","","","","","","","","tol_peg_1","368","368","0","[[3,0,0],[2,0],[0]]","3","[[3,0,0],[2,1],[0]]","9","0","","","","","","3","","","","",""
"","","","","","single-stim-button","275","2770776","0.0-3.0-37.2-1.2","63034df51d918e1e3b97e5ce","E1","batch5","tol_toboard","436","","","","","","","","","tol_peg_2","436","436","0","[[3,0,0],[2,1],[0]]","3","[[3,0,0],[2,1],[0]]","9","0","","","","","","3","","","","",""
"","","","","","poldrack-single-stim","276","2771777","0.0-3.0-38.0","63034df51d918e1e3b97e5ce","E1","batch5","tol_feedback","-1","","","","","true","","","","","1000","1000","500","","","","","","-1","none","true","5728","6561","","","","","",""
"","","","","","html-button-response","277","2772389","0.0-3.0-39.0","63034df51d918e1e3b97e5ce","E1","batch5","tol_trial_num","611.5","<div class = centerbox><p class = center-block-text>problem <strong>11</strong> out of 25 problems</p></div>","0","","","","","","","","","","","","","","","","","","","","","","","","","",""
"","","","","","single-stim-button","278","2821412","0.0-3.0-40.0-0.0","63034df51d918e1e3b97e5ce","E1","batch5","tol_tohand","49023","","","","","","","","","tol_peg_1","49023","49023","0","[[1,0,0],[3,0],[0]]","1","[[2,0,0],[1,3],[0]]","10","0","","","","","","6","","","","",""
"","","","","","single-stim-button","279","2822107","0.0-3.0-40.0-1.0","63034df51d918e1e3b97e5ce","E1","batch5","tol_toboard","694","","","","","","","","","tol_peg_3","694","694","0","[[1,0,0],[3,0],[2]]","1","[[2,0,0],[1,3],[0]]","10","0","","","","","","6","","","","",""
"","","","","","single-stim-button","280","2822772","0.0-3.0-40.1-0.1","63034df51d918e1e3b97e5ce","E1","batch5","tol_tohand","664","","","","","","","","","tol_peg_1","664","664","0","[[0,0,0],[3,0],[2]]","2","[[2,0,0],[1,3],[0]]","10","0","","","","","","6","","","","",""
"","","","","","single-stim-button","281","2823200","0.0-3.0-40.1-1.1","63034df51d918e1e3b97e5ce","E1","batch5","tol_toboard","428","","","","","","","","","tol_peg_2","428","428","0","[[0,0,0],[3,1],[2]]","2","[[2,0,0],[1,3],[0]]","10","0","","","","","","6","","","","",""
"","","","","","single-stim-button","282","2823580","0.0-3.0-40.2-0.2","63034df51d918e1e3b97e5ce","E1","batch5","tol_tohand","379","","","","","","","","","tol_peg_3","379","379","0","[[0,0,0],[3,1],[0]]","3","[[2,0,0],[1,3],[0]]","10","0","","","","","","6","","","","",""
"","","","","","single-stim-button","283","2824493","0.0-3.0-40.2-1.2","63034df51d918e1e3b97e5ce","E1","batch5","tol_toboard","911","","","","","","","","","tol_peg_1","911","911","0","[[2,0,0],[3,1],[0]]","3","[[2,0,0],[1,3],[0]]","10","0","","","","","","6","","","","",""
"","","","","","single-stim-button","284","2827038","0.0-3.0-40.3-0.3","63034df51d918e1e3b97e5ce","E1","batch5","tol_tohand","2545","","","","","","","","","tol_peg_2","2545","2545","0","[[2,0,0],[3,0],[0]]","4","[[2,0,0],[1,3],[0]]","10","0","","","","","","6","","","","",""
"","","","","","single-stim-button","285","2827426","0.0-3.0-40.3-1.3","63034df51d918e1e3b97e5ce","E1","batch5","tol_toboard","388","","","","","","","","","tol_peg_1","388","388","0","[[2,1,0],[3,0],[0]]","4","[[2,0,0],[1,3],[0]]","10","0","","","","","","6","","","","",""
"","","","","","single-stim-button","286","2827763","0.0-3.0-40.4-0.4","63034df51d918e1e3b97e5ce","E1","batch5","tol_tohand","337","","","","","","","","","tol_peg_2","337","337","0","[[2,1,0],[0,0],[0]]","5","[[2,0,0],[1,3],[0]]","10","0","","","","","","6","","","","",""
"","","","","","single-stim-button","287","2828152","0.0-3.0-40.4-1.4","63034df51d918e1e3b97e5ce","E1","batch5","tol_toboard","389","","","","","","","","","tol_peg_3","389","389","0","[[2,1,0],[0,0],[3]]","5","[[2,0,0],[1,3],[0]]","10","0","","","","","","6","","","","",""
"","","","","","single-stim-button","288","2828594","0.0-3.0-40.5-0.5","63034df51d918e1e3b97e5ce","E1","batch5","tol_tohand","442","","","","","","","","","tol_peg_1","442","442","0","[[2,0,0],[0,0],[3]]","6","[[2,0,0],[1,3],[0]]","10","0","","","","","","6","","","","",""
"","","","","","single-stim-button","289","2829096","0.0-3.0-40.5-1.5","63034df51d918e1e3b97e5ce","E1","batch5","tol_toboard","502","","","","","","","","","tol_peg_2","502","502","0","[[2,0,0],[1,0],[3]]","6","[[2,0,0],[1,3],[0]]","10","0","","","","","","6","","","","",""
"","","","","","single-stim-button","290","2829485","0.0-3.0-40.6-0.6","63034df51d918e1e3b97e5ce","E1","batch5","tol_tohand","389","","","","","","","","","tol_peg_3","389","389","0","[[2,0,0],[1,0],[0]]","7","[[2,0,0],[1,3],[0]]","10","0","","","","","","6","","","","",""
"","","","","","single-stim-button","291","2830030","0.0-3.0-40.6-1.6","63034df51d918e1e3b97e5ce","E1","batch5","tol_toboard","545","","","","","","","","","tol_peg_2","545","545","0","[[2,0,0],[1,3],[0]]","7","[[2,0,0],[1,3],[0]]","10","0","","","","","","6","","","","",""
"","","","","","poldrack-single-stim","292","2831032","0.0-3.0-41.0","63034df51d918e1e3b97e5ce","E1","batch5","tol_feedback","-1","","","","","true","","","","","1000","1000","500","","","","","","-1","none","true","49023","53779","","","","","",""
"","","","","","html-button-response","293","2831707","0.0-3.0-42.0","63034df51d918e1e3b97e5ce","E1","batch5","tol_trial_num","674.3999999761581","<div class = centerbox><p class = center-block-text>problem <strong>12</strong> out of 25 problems</p></div>","0","","","","","","","","","","","","","","","","","","","","","","","","","",""
"","","","","","single-stim-button","294","2839234","0.0-3.0-43.0-0.0","63034df51d918e1e3b97e5ce","E1","batch5","tol_tohand","7526","","","","","","","","","tol_peg_1","7526","7526","0","[[1,0,0],[3,0],[0]]","1","[[2,3,0],[0,0],[1]]","11","0","","","","","","4","","","","",""
"","","","","","single-stim-button","295","2845128","0.0-3.0-43.0-1.0","63034df51d918e1e3b97e5ce","E1","batch5","tol_toboard","5893","","","","","","","","","tol_peg_1","5893","5893","0","[[1,2,0],[3,0],[0]]","1","[[2,3,0],[0,0],[1]]","11","0","","","","","","4","","","","",""
"","","","","","single-stim-button","296","2845489","0.0-3.0-43.1-0.1","63034df51d918e1e3b97e5ce","E1","batch5","tol_tohand","361","","","","","","","","","tol_peg_2","361","361","0","[[1,2,0],[0,0],[0]]","2","[[2,3,0],[0,0],[1]]","11","0","","","","","","4","","","","",""
"","","","","","single-stim-button","297","2845857","0.0-3.0-43.1-1.1","63034df51d918e1e3b97e5ce","E1","batch5","tol_toboard","368","","","","","","","","","tol_peg_3","368","368","0","[[1,2,0],[0,0],[3]]","2","[[2,3,0],[0,0],[1]]","11","0","","","","","","4","","","","",""
"","","","","","single-stim-button","298","2849378","0.0-3.0-43.2-0.2","63034df51d918e1e3b97e5ce","E1","batch5","tol_tohand","3521","","","","","","","","","tol_peg_1","3521","3521","0","[[1,0,0],[0,0],[3]]","3","[[2,3,0],[0,0],[1]]","11","0","","","","","","4","","","","",""
"","","","","","single-stim-button","299","2853654","0.0-3.0-43.2-1.2","63034df51d918e1e3b97e5ce","E1","batch5","tol_toboard","4275","","","","","","","","","tol_peg_2","4275","4275","0","[[1,0,0],[2,0],[3]]","3","[[2,3,0],[0,0],[1]]","11","0","","","","","","4","","","","",""
"","","","","","single-stim-button","300","2855993","0.0-3.0-43.3-0.3","63034df51d918e1e3b97e5ce","E1","batch5","tol_tohand","2339","","","","","","","","","tol_peg_1","2339","2339","0","[[0,0,0],[2,0],[3]]","4","[[2,3,0],[0,0],[1]]","11","0","","","","","","4","","","","",""
"","","","","","single-stim-button","301","2857109","0.0-3.0-43.3-1.3","63034df51d918e1e3b97e5ce","E1","batch5","tol_toboard","1116","","","","","","","","","tol_peg_2","1116","1116","0","[[0,0,0],[2,1],[3]]","4","[[2,3,0],[0,0],[1]]","11","0","","","","","","4","","","","",""
"","","","","","single-stim-button","302","2857532","0.0-3.0-43.4-0.4","63034df51d918e1e3b97e5ce","E1","batch5","tol_tohand","421","","","","","","","","","tol_peg_3","421","421","0","[[0,0,0],[2,1],[0]]","5","[[2,3,0],[0,0],[1]]","11","0","","","","","","4","","","","",""
"","","","","","single-stim-button","303","2857987","0.0-3.0-43.4-1.4","63034df51d918e1e3b97e5ce","E1","batch5","tol_toboard","455","","","","","","","","","tol_peg_1","455","455","0","[[3,0,0],[2,1],[0]]","5","[[2,3,0],[0,0],[1]]","11","0","","","","","","4","","","","",""
"","","","","","single-stim-button","304","2858484","0.0-3.0-43.5-0.5","63034df51d918e1e3b97e5ce","E1","batch5","tol_tohand","496","","","","","","","","","tol_peg_2","496","496","0","[[3,0,0],[2,0],[0]]","6","[[2,3,0],[0,0],[1]]","11","0","","","","","","4","","","","",""
"","","","","","single-stim-button","305","2858930","0.0-3.0-43.5-1.5","63034df51d918e1e3b97e5ce","E1","batch5","tol_toboard","445","","","","","","","","","tol_peg_3","445","445","0","[[3,0,0],[2,0],[1]]","6","[[2,3,0],[0,0],[1]]","11","0","","","","","","4","","","","",""
"","","","","","single-stim-button","306","2860031","0.0-3.0-43.6-0.6","63034df51d918e1e3b97e5ce","E1","batch5","tol_tohand","1101","","","","","","","","","tol_peg_1","1101","1101","0","[[0,0,0],[2,0],[1]]","7","[[2,3,0],[0,0],[1]]","11","0","","","","","","4","","","","",""
"","","","","","single-stim-button","307","2861791","0.0-3.0-43.6-1.6","63034df51d918e1e3b97e5ce","E1","batch5","tol_toboard","1760","","","","","","","","","tol_peg_1","1760","1760","0","[[3,0,0],[2,0],[1]]","7","[[2,3,0],[0,0],[1]]","11","0","","","","","","4","","","","",""
"","","","","","single-stim-button","308","2862093","0.0-3.0-43.7-0.7","63034df51d918e1e3b97e5ce","E1","batch5","tol_tohand","302","","","","","","","","","tol_peg_2","302","302","0","[[3,0,0],[0,0],[1]]","8","[[2,3,0],[0,0],[1]]","11","0","","","","","","4","","","","",""
"","","","","","single-stim-button","309","2862391","0.0-3.0-43.7-1.7","63034df51d918e1e3b97e5ce","E1","batch5","tol_toboard","298","","","","","","","","","tol_peg_1","298","298","0","[[3,2,0],[0,0],[1]]","8","[[2,3,0],[0,0],[1]]","11","0","","","","","","4","","","","",""
"","","","","","single-stim-button","310","2862633","0.0-3.0-43.8-0.8","63034df51d918e1e3b97e5ce","E1","batch5","tol_tohand","242","","","","","","","","","tol_peg_1","242","242","0","[[3,0,0],[0,0],[1]]","9","[[2,3,0],[0,0],[1]]","11","0","","","","","","4","","","","",""
"","","","","","single-stim-button","311","2863745","0.0-3.0-43.8-1.8","63034df51d918e1e3b97e5ce","E1","batch5","tol_toboard","1112","","","","","","","","","tol_peg_2","1112","1112","0","[[3,0,0],[2,0],[1]]","9","[[2,3,0],[0,0],[1]]","11","0","","","","","","4","","","","",""
"","","","","","single-stim-button","312","2864986","0.0-3.0-43.9-0.9","63034df51d918e1e3b97e5ce","E1","batch5","tol_tohand","1241","","","","","","","","","tol_peg_3","1241","1241","0","[[3,0,0],[2,0],[0]]","10","[[2,3,0],[0,0],[1]]","11","0","","","","","","4","","","","",""
"","","","","","single-stim-button","313","2865330","0.0-3.0-43.9-1.9","63034df51d918e1e3b97e5ce","E1","batch5","tol_toboard","344","","","","","","","","","tol_peg_2","344","344","0","[[3,0,0],[2,1],[0]]","10","[[2,3,0],[0,0],[1]]","11","0","","","","","","4","","","","",""
"","","","","","single-stim-button","314","2866312","0.0-3.0-43.10-0.10","63034df51d918e1e3b97e5ce","E1","batch5","tol_tohand","981","","","","","","","","","tol_peg_2","981","981","0","[[3,0,0],[2,0],[0]]","11","[[2,3,0],[0,0],[1]]","11","0","","","","","","4","","","","",""
"","","","","","single-stim-button","315","2866535","0.0-3.0-43.10-1.10","63034df51d918e1e3b97e5ce","E1","batch5","tol_toboard","223","","","","","","","","","tol_peg_1","223","223","0","[[3,1,0],[2,0],[0]]","11","[[2,3,0],[0,0],[1]]","11","0","","","","","","4","","","","",""
"","","","","","single-stim-button","316","2867786","0.0-3.0-43.11-0.11","63034df51d918e1e3b97e5ce","E1","batch5","tol_tohand","1251","","","","","","","","","tol_peg_2","1251","1251","0","[[3,1,0],[0,0],[0]]","12","[[2,3,0],[0,0],[1]]","11","0","","","","","","4","","","","",""
"","","","","","single-stim-button","317","2868026","0.0-3.0-43.11-1.11","63034df51d918e1e3b97e5ce","E1","batch5","tol_toboard","240","","","","","","","","","tol_peg_3","240","240","0","[[3,1,0],[0,0],[2]]","12","[[2,3,0],[0,0],[1]]","11","0","","","","","","4","","","","",""
"","","","","","single-stim-button","318","2868506","0.0-3.0-43.12-0.12","63034df51d918e1e3b97e5ce","E1","batch5","tol_tohand","479","","","","","","","","","tol_peg_1","479","479","0","[[3,0,0],[0,0],[2]]","13","[[2,3,0],[0,0],[1]]","11","0","","","","","","4","","","","",""
"","","","","","single-stim-button","319","2868791","0.0-3.0-43.12-1.12","63034df51d918e1e3b97e5ce","E1","batch5","tol_toboard","285","","","","","","","","","tol_peg_2","285","285","0","[[3,0,0],[1,0],[2]]","13","[[2,3,0],[0,0],[1]]","11","0","","","","","","4","","","","",""
"","","","","","single-stim-button","320","2869304","0.0-3.0-43.13-0.13","63034df51d918e1e3b97e5ce","E1","batch5","tol_tohand","512","","","","","","","","","tol_peg_1","512","512","0","[[0,0,0],[1,0],[2]]","14","[[2,3,0],[0,0],[1]]","11","0","","","","","","4","","","","",""
"","","","","","single-stim-button","321","2871425","0.0-3.0-43.13-1.13","63034df51d918e1e3b97e5ce","E1","batch5","tol_toboard","2121","","","","","","","","","tol_peg_2","2121","2121","0","[[0,0,0],[1,3],[2]]","14","[[2,3,0],[0,0],[1]]","11","0","","","","","","4","","","","",""
"","","","","","single-stim-button","322","2871761","0.0-3.0-43.14-0.14","63034df51d918e1e3b97e5ce","E1","batch5","tol_tohand","336","","","","","","","","","tol_peg_3","336","336","0","[[0,0,0],[1,3],[0]]","15","[[2,3,0],[0,0],[1]]","11","0","","","","","","4","","","","",""
"","","","","","single-stim-button","323","2872228","0.0-3.0-43.14-1.14","63034df51d918e1e3b97e5ce","E1","batch5","tol_toboard","467","","","","","","","","","tol_peg_1","467","467","0","[[2,0,0],[1,3],[0]]","15","[[2,3,0],[0,0],[1]]","11","0","","","","","","4","","","","",""
"","","","","","single-stim-button","324","2872519","0.0-3.0-43.15-0.15","63034df51d918e1e3b97e5ce","E1","batch5","tol_tohand","291","","","","","","","","","tol_peg_2","291","291","0","[[2,0,0],[1,0],[0]]","16","[[2,3,0],[0,0],[1]]","11","0","","","","","","4","","","","",""
"","","","","","single-stim-button","325","2872884","0.0-3.0-43.15-1.15","63034df51d918e1e3b97e5ce","E1","batch5","tol_toboard","364","","","","","","","","","tol_peg_1","364","364","0","[[2,3,0],[1,0],[0]]","16","[[2,3,0],[0,0],[1]]","11","0","","","","","","4","","","","",""
"","","","","","single-stim-button","326","2873326","0.0-3.0-43.16-0.16","63034df51d918e1e3b97e5ce","E1","batch5","tol_tohand","442","","","","","","","","","tol_peg_2","442","442","0","[[2,3,0],[0,0],[0]]","17","[[2,3,0],[0,0],[1]]","11","0","","","","","","4","","","","",""
"","","","","","single-stim-button","327","2873675","0.0-3.0-43.16-1.16","63034df51d918e1e3b97e5ce","E1","batch5","tol_toboard","349","","","","","","","","","tol_peg_3","349","349","0","[[2,3,0],[0,0],[1]]","17","[[2,3,0],[0,0],[1]]","11","0","","","","","","4","","","","",""
"","","","","","poldrack-single-stim","328","2874680","0.0-3.0-44.0","63034df51d918e1e3b97e5ce","E1","batch5","tol_feedback","-1","","","","","true","","","","","1000","1000","500","","","","","","-1","none","true","7526","21842","","","","","",""
"","","","","","html-button-response","329","2875922","0.0-3.0-45.0","63034df51d918e1e3b97e5ce","E1","batch5","tol_trial_num","1241.800000011921","<div class = centerbox><p class = center-block-text>problem <strong>13</strong> out of 25 problems</p></div>","0","","","","","","","","","","","","","","","","","","","","","","","","","",""
"","","","","","single-stim-button","330","2893707","0.0-3.0-46.0-0.0","63034df51d918e1e3b97e5ce","E1","batch5","tol_tohand","17783","","","","","","","","","tol_peg_2","17783","17783","0","[[1,2,0],[0,0],[0]]","1","[[0,0,0],[2,3],[1]]","12","0","","","","","","4","","","","",""
"","","","","","single-stim-button","331","2894403","0.0-3.0-46.0-1.0","63034df51d918e1e3b97e5ce","E1","batch5","tol_toboard","696","","","","","","","","","tol_peg_3","696","696","0","[[1,2,0],[0,0],[3]]","1","[[0,0,0],[2,3],[1]]","12","0","","","","","","4","","","","",""
"","","","","","single-stim-button","332","2895139","0.0-3.0-46.1-0.1","63034df51d918e1e3b97e5ce","E1","batch5","tol_tohand","734","","","","","","","","","tol_peg_1","734","734","0","[[1,0,0],[0,0],[3]]","2","[[0,0,0],[2,3],[1]]","12","0","","","","","","4","","","","",""
"","","","","","single-stim-button","333","2895916","0.0-3.0-46.1-1.1","63034df51d918e1e3b97e5ce","E1","batch5","tol_toboard","776","","","","","","","","","tol_peg_2","776","776","0","[[1,0,0],[2,0],[3]]","2","[[0,0,0],[2,3],[1]]","12","0","","","","","","4","","","","",""
"","","","","","single-stim-button","334","2896218","0.0-3.0-46.2-0.2","63034df51d918e1e3b97e5ce","E1","batch5","tol_tohand","302","","","","","","","","","tol_peg_3","302","302","0","[[1,0,0],[2,0],[0]]","3","[[0,0,0],[2,3],[1]]","12","0","","","","","","4","","","","",""
"","","","","","single-stim-button","335","2896738","0.0-3.0-46.2-1.2","63034df51d918e1e3b97e5ce","E1","batch5","tol_toboard","519","","","","","","","","","tol_peg_2","519","519","0","[[1,0,0],[2,3],[0]]","3","[[0,0,0],[2,3],[1]]","12","0","","","","","","4","","","","",""
"","","","","","single-stim-button","336","2897136","0.0-3.0-46.3-0.3","63034df51d918e1e3b97e5ce","E1","batch5","tol_tohand","398","","","","","","","","","tol_peg_1","398","398","0","[[0,0,0],[2,3],[0]]","4","[[0,0,0],[2,3],[1]]","12","0","","","","","","4","","","","",""
"","","","","","single-stim-button","337","2897604","0.0-3.0-46.3-1.3","63034df51d918e1e3b97e5ce","E1","batch5","tol_toboard","467","","","","","","","","","tol_peg_3","467","467","0","[[0,0,0],[2,3],[1]]","4","[[0,0,0],[2,3],[1]]","12","0","","","","","","4","","","","",""
"","","","","","poldrack-single-stim","338","2898605","0.0-3.0-47.0","63034df51d918e1e3b97e5ce","E1","batch5","tol_feedback","-1","","","","","true","","","","","1000","1000","500","","","","","","-1","none","true","17783","19217","","","","","",""
"","","","","","html-button-response","339","2902673","0.0-3.0-48.0","63034df51d918e1e3b97e5ce","E1","batch5","attention_check","4067.900000035763","<p class = block-text>How many balls are in your board<br></p>","1","","","true","","","","","","","","","","","","","","","","","","","","","","",""
"","","","","","html-button-response","340","2903585","0.0-3.0-49.0","63034df51d918e1e3b97e5ce","E1","batch5","tol_trial_num","911.5","<div class = centerbox><p class = center-block-text>problem <strong>14</strong> out of 25 problems</p></div>","0","","","","","","","","","","","","","","","","","","","","","","","","","",""
"","","","","","single-stim-button","341","2916312","0.0-3.0-50.0-0.0","63034df51d918e1e3b97e5ce","E1","batch5","tol_tohand","12726","","","","","","","","","tol_peg_1","12726","12726","0","[[2,0,0],[3,0],[0]]","1","[[1,2,0],[3,0],[0]]","13","0","","","","","","4","","","","",""
"","","","","","single-stim-button","342","2916738","0.0-3.0-50.0-1.0","63034df51d918e1e3b97e5ce","E1","batch5","tol_toboard","426","","","","","","","","","tol_peg_2","426","426","0","[[2,0,0],[3,1],[0]]","1","[[1,2,0],[3,0],[0]]","13","0","","","","","","4","","","","",""
"","","","","","single-stim-button","343","2917816","0.0-3.0-50.1-0.1","63034df51d918e1e3b97e5ce","E1","batch5","tol_tohand","1078","","","","","","","","","tol_peg_1","1078","1078","0","[[0,0,0],[3,1],[0]]","2","[[1,2,0],[3,0],[0]]","13","0","","","","","","4","","","","",""
"","","","","","single-stim-button","344","2918512","0.0-3.0-50.1-1.1","63034df51d918e1e3b97e5ce","E1","batch5","tol_toboard","696","","","","","","","","","tol_peg_3","696","696","0","[[0,0,0],[3,1],[2]]","2","[[1,2,0],[3,0],[0]]","13","0","","","","","","4","","","","",""
"","","","","","single-stim-button","345","2918874","0.0-3.0-50.2-0.2","63034df51d918e1e3b97e5ce","E1","batch5","tol_tohand","362","","","","","","","","","tol_peg_2","362","362","0","[[0,0,0],[3,0],[2]]","3","[[1,2,0],[3,0],[0]]","13","0","","","","","","4","","","","",""
"","","","","","single-stim-button","346","2919539","0.0-3.0-50.2-1.2","63034df51d918e1e3b97e5ce","E1","batch5","tol_toboard","665","","","","","","","","","tol_peg_1","665","665","0","[[1,0,0],[3,0],[2]]","3","[[1,2,0],[3,0],[0]]","13","0","","","","","","4","","","","",""
"","","","","","single-stim-button","347","2919923","0.0-3.0-50.3-0.3","63034df51d918e1e3b97e5ce","E1","batch5","tol_tohand","383","","","","","","","","","tol_peg_3","383","383","0","[[1,0,0],[3,0],[0]]","4","[[1,2,0],[3,0],[0]]","13","0","","","","","","4","","","","",""
"","","","","","single-stim-button","348","2920685","0.0-3.0-50.3-1.3","63034df51d918e1e3b97e5ce","E1","batch5","tol_toboard","761","","","","","","","","","tol_peg_1","761","761","0","[[1,2,0],[3,0],[0]]","4","[[1,2,0],[3,0],[0]]","13","0","","","","","","4","","","","",""
"","","","","","poldrack-single-stim","349","2921687","0.0-3.0-51.0","63034df51d918e1e3b97e5ce","E1","batch5","tol_feedback","-1","","","","","true","","","","","1000","1000","500","","","","","","-1","none","true","12726","14549","","","","","",""
"","","","","","html-button-response","350","2922421","0.0-3.0-52.0","63034df51d918e1e3b97e5ce","E1","batch5","tol_trial_num","733.3000000119209","<div class = centerbox><p class = center-block-text>problem <strong>15</strong> out of 25 problems</p></div>","0","","","","","","","","","","","","","","","","","","","","","","","","","",""
"","","","","","single-stim-button","351","2926576","0.0-3.0-53.0-0.0","63034df51d918e1e3b97e5ce","E1","batch5","tol_tohand","4155","","","","","","","","","tol_peg_1","4155","4155","0","[[1,0,0],[3,0],[0]]","1","[[2,0,0],[3,0],[1]]","14","0","","","","","","3","","","","",""
"","","","","","single-stim-button","352","2927038","0.0-3.0-53.0-1.0","63034df51d918e1e3b97e5ce","E1","batch5","tol_toboard","462","","","","","","","","","tol_peg_2","462","462","0","[[1,0,0],[3,2],[0]]","1","[[2,0,0],[3,0],[1]]","14","0","","","","","","3","","","","",""
"","","","","","single-stim-button","353","2927403","0.0-3.0-53.1-0.1","63034df51d918e1e3b97e5ce","E1","batch5","tol_tohand","365","","","","","","","","","tol_peg_1","365","365","0","[[0,0,0],[3,2],[0]]","2","[[2,0,0],[3,0],[1]]","14","0","","","","","","3","","","","",""
"","","","","","single-stim-button","354","2928106","0.0-3.0-53.1-1.1","63034df51d918e1e3b97e5ce","E1","batch5","tol_toboard","703","","","","","","","","","tol_peg_3","703","703","0","[[0,0,0],[3,2],[1]]","2","[[2,0,0],[3,0],[1]]","14","0","","","","","","3","","","","",""
