"success","timeout","failed_images","failed_audio","failed_video","trial_type","trial_index","time_elapsed","internal_node_id","subject_id","study_id","session_id","view_history","rt","task","stimulus","response","correct","mouse_click","stim_duration","block_duration","timing_post_trial","current_position","tol_num_moves_made","tol_target","tol_problem_id","tol_rt","key_press","possible_responses","tol_correct","preplanning","tol_rt_per_trial","tol_min_moves","answer","item","fiar_detect_rt","fiar_detect_correct","total_correct_fiar_detect","post_trial_gap","choices","spm_correct","spm_rt"
"true","false","[]","[]","[]","preload","0","3819","0.0-0.0","6310b35d758f80e9cf3f4e41","A3","batch1","","","","","","","","","","","","","","","","","","","","","","","","","","","","","",""
"true","","","","","fullscreen","1","19091","0.0-1.0-0.0","6310b35d758f80e9cf3f4e41","A3","batch1","","","","","","","","","","","","","","","","","","","","","","","","","","","","","",""
"true","","","","","fullscreen","2","25723","0.0-2.0-0.0","6310b35d758f80e9cf3f4e41","A3","batch1","","","","","","","","","","","","","","","","","","","","","","","","","","","","","",""
"","","","","","instructions","3","158038","0.0-2.0-1.0-0.0-0.0","6310b35d758f80e9cf3f4e41","A3","batch1","[{""page_index"":0,""viewing_time"":17666.09999999404},{""page_index"":1,""viewing_time"":5607.4000000059605},{""page_index"":2,""viewing_time"":5575.800000011921},{""page_index"":3,""viewing_time"":9839.199999988079},{""page_index"":4,""viewing_time"":11145.90000000596},{""page_index"":5,""viewing_time"":77244},{""page_index"":6,""viewing_time"":5231.699999988079}]","132310.30000001192","tol-instructions","","","","","","","","","","","","","","","","","","","","","","","","","","",""
"","","","","","html-button-response","4","159270","0.0-2.0-1.0-1.0-0.0","6310b35d758f80e9cf3f4e41","A3","batch1","","1230.4000000059605","tol_enter_quiz","<p class=block-text> Let's answer a few questions <br>","0","","","","","","","","","","","","","","","","","","","","","","","","",""
"","","","","","html-button-response","5","179153","0.0-2.0-1.0-1.0-1.0","6310b35d758f80e9cf3f4e41","A3","batch1","","19880.30000001192","tol_quiz","<p class = block-text>True or False: You can only move the ball on top of a peg. <br></p>","0","true","","","","","","","","","","","","","","","","","","","","","","","",""
"","","","","","html-button-response","6","181944","0.0-2.0-1.0-1.0-2.0","6310b35d758f80e9cf3f4e41","A3","batch1","","2790.300000011921","tol_quiz_feedback","<p class = block-text>Correct! You can only move the ball on top of a peg.</p>","0","","","","","","","","","","","","","","","","","","","","","","","","",""
"","","","","","html-button-response","7","186507","0.0-2.0-1.0-1.0-3.0","6310b35d758f80e9cf3f4e41","A3","batch1","","4561.4000000059605","tol_quiz","<p class = block-text>True or False: You should try to match your board with the target board with fewest moves possible. <br></p>","0","true","","","","","","","","","","","","","","","","","","","","","","","",""
"","","","","","html-button-response","8","187473","0.0-2.0-1.0-1.0-4.0","6310b35d758f80e9cf3f4e41","A3","batch1","","965.2999999821186","tol_quiz_feedback","<p class = block-text>Correct! </p>","0","","","","","","","","","","","","","","","","","","","","","","","","",""
"","","","","","html-button-response","9","189716","0.0-2.0-2.0","6310b35d758f80e9cf3f4e41","A3","batch1","","2241.0999999940395","","<p class=block-text> Now that you've understood the game, let's practice a few easier examples before we start!<br> <br>","0","","","","","","","","","","","","","","","","","","","","","","","","",""
"","","","","","single-stim-button","10","191959","0.0-2.0-3.0-0.0","6310b35d758f80e9cf3f4e41","A3","batch1","","2240","tol_practice","","","","tol_peg_2","2240","2240","0","[[1,2,0],[0,0],[0]]","1","[[1,2,0],[0,0],[3]]","practice","2240","","","","","","","","","","","","","","",""
"","","","","","single-stim-button","11","192804","0.0-2.0-3.0-1.0","6310b35d758f80e9cf3f4e41","A3","batch1","","844","tol_practice","","","","tol_peg_3","844","844","0","[[1,2,0],[0,0],[3]]","1","[[1,2,0],[0,0],[3]]","practice","844","","","","","","","","","","","","","","",""
"","","","","","poldrack-single-stim","12","193818","0.0-2.0-4.0","6310b35d758f80e9cf3f4e41","A3","batch1","","-1","tol_feedback","","","true","","1000","1000","500","","","","","","-1","none","true","","0","","","","","","","","","",""
"","","","","","single-stim-button","13","196508","0.0-2.0-5.0-0.0","6310b35d758f80e9cf3f4e41","A3","batch1","","2689","tol_practice","","","","tol_peg_1","2689","2689","0","[[1,0,0],[3,0],[0]]","2","[[0,0,0],[3,1],[2]]","practice","2689","","","","","","","","","","","","","","",""
"","","","","","single-stim-button","14","197314","0.0-2.0-5.0-1.0","6310b35d758f80e9cf3f4e41","A3","batch1","","806","tol_practice","","","","tol_peg_3","806","806","0","[[1,0,0],[3,0],[2]]","2","[[0,0,0],[3,1],[2]]","practice","806","","","","","","","","","","","","","","",""
"","","","","","single-stim-button","15","198204","0.0-2.0-5.1-0.1","6310b35d758f80e9cf3f4e41","A3","batch1","","888","tol_practice","","","","tol_peg_1","888","888","0","[[0,0,0],[3,0],[2]]","3","[[0,0,0],[3,1],[2]]","practice","888","","","","","","","","","","","","","","",""
"","","","","","single-stim-button","16","198961","0.0-2.0-5.1-1.1","6310b35d758f80e9cf3f4e41","A3","batch1","","756","tol_practice","","","","tol_peg_2","756","756","0","[[0,0,0],[3,1],[2]]","3","[[0,0,0],[3,1],[2]]","practice","756","","","","","","","","","","","","","","",""
"","","","","","poldrack-single-stim","17","199967","0.0-2.0-6.0","6310b35d758f80e9cf3f4e41","A3","batch1","","-1","tol_feedback","","","true","","1000","1000","500","","","","","","-1","none","true","","0","","","","","","","","","",""
"","","","","","single-stim-button","18","202010","0.0-2.0-7.0-0.0","6310b35d758f80e9cf3f4e41","A3","batch1","","2043","tol_practice","","","","tol_peg_2","2043","2043","0","[[1,2,0],[0,0],[0]]","4","[[1,0,0],[2,0],[3]]","practice","2043","","","","","","","","","","","","","","",""
"","","","","","single-stim-button","19","203031","0.0-2.0-7.0-1.0","6310b35d758f80e9cf3f4e41","A3","batch1","","1020","tol_practice","","","","tol_peg_3","1020","1020","0","[[1,2,0],[0,0],[3]]","4","[[1,0,0],[2,0],[3]]","practice","1020","","","","","","","","","","","","","","",""
"","","","","","single-stim-button","20","203705","0.0-2.0-7.1-0.1","6310b35d758f80e9cf3f4e41","A3","batch1","","673","tol_practice","","","","tol_peg_1","673","673","0","[[1,0,0],[0,0],[3]]","5","[[1,0,0],[2,0],[3]]","practice","673","","","","","","","","","","","","","","",""
"","","","","","single-stim-button","21","204490","0.0-2.0-7.1-1.1","6310b35d758f80e9cf3f4e41","A3","batch1","","784","tol_practice","","","","tol_peg_2","784","784","0","[[1,0,0],[2,0],[3]]","5","[[1,0,0],[2,0],[3]]","practice","784","","","","","","","","","","","","","","",""
"","","","","","poldrack-single-stim","22","205494","0.0-2.0-8.0","6310b35d758f80e9cf3f4e41","A3","batch1","","-1","tol_feedback","","","true","","1000","1000","500","","","","","","-1","none","true","","0","","","","","","","","","",""
"","","","","","html-button-response","23","209311","0.0-2.0-9.0","6310b35d758f80e9cf3f4e41","A3","batch1","","3815.5","tol_instruction","<div class = centerbox><p class = center-block-text>Great job! You are done with practice trials<br>You are about to start official trials.<br> <br> Problem <strong>1</strong> out of 25 problems</p></div>","0","","","","","","","","","","","","","","","","","","","","","","","","",""
"","","","","","single-stim-button","24","213821","0.0-2.0-10.0-0.0","6310b35d758f80e9cf3f4e41","A3","batch1","","3497","tol_tohand","","","","tol_peg_2","3497","3497","0","[[1,2,0],[0,0],[0]]","1","[[1,3,0],[2,0],[0]]","0","0","","","","","","3","","","","","","","","",""
"","","","","","single-stim-button","25","214821","0.0-2.0-10.0-1.0","6310b35d758f80e9cf3f4e41","A3","batch1","","1000","tol_toboard","","","","tol_peg_3","1000","1000","0","[[1,2,0],[0,0],[3]]","1","[[1,3,0],[2,0],[0]]","0","0","","","","","","3","","","","","","","","",""
"","","","","","single-stim-button","26","215745","0.0-2.0-10.1-0.1","6310b35d758f80e9cf3f4e41","A3","batch1","","924","tol_tohand","","","","tol_peg_1","924","924","0","[[1,0,0],[0,0],[3]]","2","[[1,3,0],[2,0],[0]]","0","0","","","","","","3","","","","","","","","",""
"","","","","","single-stim-button","27","216586","0.0-2.0-10.1-1.1","6310b35d758f80e9cf3f4e41","A3","batch1","","840","tol_toboard","","","","tol_peg_2","840","840","0","[[1,0,0],[2,0],[3]]","2","[[1,3,0],[2,0],[0]]","0","0","","","","","","3","","","","","","","","",""
"","","","","","single-stim-button","28","217235","0.0-2.0-10.2-0.2","6310b35d758f80e9cf3f4e41","A3","batch1","","649","tol_tohand","","","","tol_peg_3","649","649","0","[[1,0,0],[2,0],[0]]","3","[[1,3,0],[2,0],[0]]","0","0","","","","","","3","","","","","","","","",""
"","","","","","single-stim-button","29","217892","0.0-2.0-10.2-1.2","6310b35d758f80e9cf3f4e41","A3","batch1","","656","tol_toboard","","","","tol_peg_1","656","656","0","[[1,3,0],[2,0],[0]]","3","[[1,3,0],[2,0],[0]]","0","0","","","","","","3","","","","","","","","",""
"","","","","","poldrack-single-stim","30","218897","0.0-2.0-11.0","6310b35d758f80e9cf3f4e41","A3","batch1","","-1","tol_feedback","","","true","","1000","1000","500","","","","","","-1","none","true","3497","5070","","","","","","","","","",""
"","","","","","html-button-response","31","220308","0.0-2.0-12.0","6310b35d758f80e9cf3f4e41","A3","batch1","","1410","tol_trial_num","<div class = centerbox><p class = center-block-text>problem <strong>2</strong> out of 25 problems</p></div>","0","","","","","","","","","","","","","","","","","","","","","","","","",""
"","","","","","single-stim-button","32","222760","0.0-2.0-13.0-0.0","6310b35d758f80e9cf3f4e41","A3","batch1","","2450","tol_tohand","","","","tol_peg_1","2450","2450","0","[[1,0,0],[3,0],[0]]","1","[[2,1,3],[0,0],[0]]","1","0","","","","","","5","","","","","","","","",""
"","","","","","single-stim-button","33","225447","0.0-2.0-13.0-1.0","6310b35d758f80e9cf3f4e41","A3","batch1","","2687","tol_toboard","","","","tol_peg_2","2687","2687","0","[[1,0,0],[3,2],[0]]","1","[[2,1,3],[0,0],[0]]","1","0","","","","","","5","","","","","","","","",""
"","","","","","single-stim-button","34","226020","0.0-2.0-13.1-0.1","6310b35d758f80e9cf3f4e41","A3","batch1","","571","tol_tohand","","","","tol_peg_1","571","571","0","[[0,0,0],[3,2],[0]]","2","[[2,1,3],[0,0],[0]]","1","0","","","","","","5","","","","","","","","",""
"","","","","","single-stim-button","35","227156","0.0-2.0-13.1-1.1","6310b35d758f80e9cf3f4e41","A3","batch1","","1136","tol_toboard","","","","tol_peg_3","1136","1136","0","[[0,0,0],[3,2],[1]]","2","[[2,1,3],[0,0],[0]]","1","0","","","","","","5","","","","","","","","",""
"","","","","","single-stim-button","36","227821","0.0-2.0-13.2-0.2","6310b35d758f80e9cf3f4e41","A3","batch1","","664","tol_tohand","","","","tol_peg_2","664","664","0","[[0,0,0],[3,0],[1]]","3","[[2,1,3],[0,0],[0]]","1","0","","","","","","5","","","","","","","","",""
"","","","","","single-stim-button","37","228411","0.0-2.0-13.2-1.2","6310b35d758f80e9cf3f4e41","A3","batch1","","589","tol_toboard","","","","tol_peg_1","589","589","0","[[2,0,0],[3,0],[1]]","3","[[2,1,3],[0,0],[0]]","1","0","","","","","","5","","","","","","","","",""
"","","","","","single-stim-button","38","229080","0.0-2.0-13.3-0.3","6310b35d758f80e9cf3f4e41","A3","batch1","","669","tol_tohand","","","","tol_peg_3","669","669","0","[[2,0,0],[3,0],[0]]","4","[[2,1,3],[0,0],[0]]","1","0","","","","","","5","","","","","","","","",""
"","","","","","single-stim-button","39","229800","0.0-2.0-13.3-1.3","6310b35d758f80e9cf3f4e41","A3","batch1","","719","tol_toboard","","","","tol_peg_1","719","719","0","[[2,1,0],[3,0],[0]]","4","[[2,1,3],[0,0],[0]]","1","0","","","","","","5","","","","","","","","",""
"","","","","","single-stim-button","40","230303","0.0-2.0-13.4-0.4","6310b35d758f80e9cf3f4e41","A3","batch1","","502","tol_tohand","","","","tol_peg_2","502","502","0","[[2,1,0],[0,0],[0]]","5","[[2,1,3],[0,0],[0]]","1","0","","","","","","5","","","","","","","","",""
"","","","","","single-stim-button","41","230809","0.0-2.0-13.4-1.4","6310b35d758f80e9cf3f4e41","A3","batch1","","506","tol_toboard","","","","tol_peg_1","506","506","0","[[2,1,3],[0,0],[0]]","5","[[2,1,3],[0,0],[0]]","1","0","","","","","","5","","","","","","","","",""
"","","","","","poldrack-single-stim","42","231820","0.0-2.0-14.0","6310b35d758f80e9cf3f4e41","A3","batch1","","-1","tol_feedback","","","true","","1000","1000","500","","","","","","-1","none","true","2450","4856","","","","","","","","","",""
"","","","","","html-button-response","43","233031","0.0-2.0-15.0","6310b35d758f80e9cf3f4e41","A3","batch1","","1210.5","tol_trial_num","<div class = centerbox><p class = center-block-text>problem <strong>3</strong> out of 25 problems</p></div>","0","","","","","","","","","","","","","","","","","","","","","","","","",""
"","","","","","single-stim-button","44","234920","0.0-2.0-16.0-0.0","6310b35d758f80e9cf3f4e41","A3","batch1","","1888","tol_tohand","","","","tol_peg_1","1888","1888","0","[[2,0,0],[0,0],[1]]","1","[[1,2,0],[3,0],[0]]","2","0","","","","","","4","","","","","","","","",""
"","","","","","single-stim-button","45","236059","0.0-2.0-16.0-1.0","6310b35d758f80e9cf3f4e41","A3","batch1","","1138","tol_toboard","","","","tol_peg_2","1138","1138","0","[[2,0,0],[3,0],[1]]","1","[[1,2,0],[3,0],[0]]","2","0","","","","","","4","","","","","","","","",""
"","","","","","single-stim-button","46","236818","0.0-2.0-16.1-0.1","6310b35d758f80e9cf3f4e41","A3","batch1","","758","tol_tohand","","","","tol_peg_1","758","758","0","[[0,0,0],[3,0],[1]]","2","[[1,2,0],[3,0],[0]]","2","0","","","","","","4","","","","","","","","",""
"","","","","","single-stim-button","47","237539","0.0-2.0-16.1-1.1","6310b35d758f80e9cf3f4e41","A3","batch1","","721","tol_toboard","","","","tol_peg_2","721","721","0","[[0,0,0],[3,2],[1]]","2","[[1,2,0],[3,0],[0]]","2","0","","","","","","4","","","","","","","","",""
"","","","","","single-stim-button","48","238179","0.0-2.0-16.2-0.2","6310b35d758f80e9cf3f4e41","A3","batch1","","639","tol_tohand","","","","tol_peg_3","639","639","0","[[0,0,0],[3,2],[0]]","3","[[1,2,0],[3,0],[0]]","2","0","","","","","","4","","","","","","","","",""
"","","","","","single-stim-button","49","238750","0.0-2.0-16.2-1.2","6310b35d758f80e9cf3f4e41","A3","batch1","","570","tol_toboard","","","","tol_peg_1","570","570","0","[[1,0,0],[3,2],[0]]","3","[[1,2,0],[3,0],[0]]","2","0","","","","","","4","","","","","","","","",""
"","","","","","single-stim-button","50","239233","0.0-2.0-16.3-0.3","6310b35d758f80e9cf3f4e41","A3","batch1","","482","tol_tohand","","","","tol_peg_2","482","482","0","[[1,0,0],[3,0],[0]]","4","[[1,2,0],[3,0],[0]]","2","0","","","","","","4","","","","","","","","",""
"","","","","","single-stim-button","51","239706","0.0-2.0-16.3-1.3","6310b35d758f80e9cf3f4e41","A3","batch1","","472","tol_toboard","","","","tol_peg_1","472","472","0","[[1,2,0],[3,0],[0]]","4","[[1,2,0],[3,0],[0]]","2","0","","","","","","4","","","","","","","","",""
"","","","","","poldrack-single-stim","52","240711","0.0-2.0-17.0","6310b35d758f80e9cf3f4e41","A3","batch1","","-1","tol_feedback","","","true","","1000","1000","500","","","","","","-1","none","true","1888","3767","","","","","","","","","",""
"","","","","","html-button-response","53","241851","0.0-2.0-18.0","6310b35d758f80e9cf3f4e41","A3","batch1","","1138.5","tol_trial_num","<div class = centerbox><p class = center-block-text>problem <strong>4</strong> out of 25 problems</p></div>","0","","","","","","","","","","","","","","","","","","","","","","","","",""
"","","","","","single-stim-button","54","243907","0.0-2.0-19.0-0.0","6310b35d758f80e9cf3f4e41","A3","batch1","","2056","tol_tohand","","","","tol_peg_2","2056","2056","0","[[3,0,0],[2,0],[0]]","1","[[3,0,0],[1,0],[2]]","3","0","","","","","","3","","","","","","","","",""
"","","","","","single-stim-button","55","244800","0.0-2.0-19.0-1.0","6310b35d758f80e9cf3f4e41","A3","batch1","","892","tol_toboard","","","","tol_peg_1","892","892","0","[[3,1,0],[2,0],[0]]","1","[[3,0,0],[1,0],[2]]","3","0","","","","","","3","","","","","","","","",""
"","","","","","single-stim-button","56","245404","0.0-2.0-19.1-0.1","6310b35d758f80e9cf3f4e41","A3","batch1","","604","tol_tohand","","","","tol_peg_2","604","604","0","[[3,1,0],[0,0],[0]]","2","[[3,0,0],[1,0],[2]]","3","0","","","","","","3","","","","","","","","",""
"","","","","","single-stim-button","57","245894","0.0-2.0-19.1-1.1","6310b35d758f80e9cf3f4e41","A3","batch1","","489","tol_toboard","","","","tol_peg_3","489","489","0","[[3,1,0],[0,0],[2]]","2","[[3,0,0],[1,0],[2]]","3","0","","","","","","3","","","","","","","","",""
"","","","","","single-stim-button","58","247048","0.0-2.0-19.2-0.2","6310b35d758f80e9cf3f4e41","A3","batch1","","1153","tol_tohand","","","","tol_peg_1","1153","1153","0","[[3,0,0],[0,0],[2]]","3","[[3,0,0],[1,0],[2]]","3","0","","","","","","3","","","","","","","","",""
"","","","","","single-stim-button","59","247933","0.0-2.0-19.2-1.2","6310b35d758f80e9cf3f4e41","A3","batch1","","885","tol_toboard","","","","tol_peg_2","885","885","0","[[3,0,0],[1,0],[2]]","3","[[3,0,0],[1,0],[2]]","3","0","","","","","","3","","","","","","","","",""
"","","","","","poldrack-single-stim","60","248938","0.0-2.0-20.0","6310b35d758f80e9cf3f4e41","A3","batch1","","-1","tol_feedback","","","true","","1000","1000","500","","","","","","-1","none","true","2056","3813","","","","","","","","","",""
"","","","","","html-button-response","61","249992","0.0-2.0-21.0","6310b35d758f80e9cf3f4e41","A3","batch1","","1053.0999999940395","tol_trial_num","<div class = centerbox><p class = center-block-text>problem <strong>5</strong> out of 25 problems</p></div>","0","","","","","","","","","","","","","","","","","","","","","","","","",""
"","","","","","single-stim-button","62","257498","0.0-2.0-22.0-0.0","6310b35d758f80e9cf3f4e41","A3","batch1","","7505","tol_tohand","","","","tol_peg_3","7505","7505","0","[[1,0,0],[2,0],[0]]","1","[[0,0,0],[1,2],[3]]","4","0","","","","","","7","","","","","","","","",""
"","","","","","single-stim-button","63","258338","0.0-2.0-22.0-1.0","6310b35d758f80e9cf3f4e41","A3","batch1","","839","tol_toboard","","","","tol_peg_1","839","839","0","[[1,3,0],[2,0],[0]]","1","[[0,0,0],[1,2],[3]]","4","0","","","","","","7","","","","","","","","",""
"","","","","","single-stim-button","64","259026","0.0-2.0-22.1-0.1","6310b35d758f80e9cf3f4e41","A3","batch1","","688","tol_tohand","","","","tol_peg_2","688","688","0","[[1,3,0],[0,0],[0]]","2","[[0,0,0],[1,2],[3]]","4","0","","","","","","7","","","","","","","","",""
"","","","","","single-stim-button","65","259832","0.0-2.0-22.1-1.1","6310b35d758f80e9cf3f4e41","A3","batch1","","805","tol_toboard","","","","tol_peg_3","805","805","0","[[1,3,0],[0,0],[2]]","2","[[0,0,0],[1,2],[3]]","4","0","","","","","","7","","","","","","","","",""
"","","","","","single-stim-button","66","260969","0.0-2.0-22.2-0.2","6310b35d758f80e9cf3f4e41","A3","batch1","","1136","tol_tohand","","","","tol_peg_1","1136","1136","0","[[1,0,0],[0,0],[2]]","3","[[0,0,0],[1,2],[3]]","4","0","","","","","","7","","","","","","","","",""
"","","","","","single-stim-button","67","266159","0.0-2.0-22.2-1.2","6310b35d758f80e9cf3f4e41","A3","batch1","","5189","tol_toboard","","","","tol_peg_2","5189","5189","0","[[1,0,0],[3,0],[2]]","3","[[0,0,0],[1,2],[3]]","4","0","","","","","","7","","","","","","","","",""
"","","","","","single-stim-button","68","267397","0.0-2.0-22.3-0.3","6310b35d758f80e9cf3f4e41","A3","batch1","","1236","tol_tohand","","","","tol_peg_1","1236","1236","0","[[0,0,0],[3,0],[2]]","4","[[0,0,0],[1,2],[3]]","4","0","","","","","","7","","","","","","","","",""
"","","","","","single-stim-button","69","268062","0.0-2.0-22.3-1.3","6310b35d758f80e9cf3f4e41","A3","batch1","","665","tol_toboard","","","","tol_peg_2","665","665","0","[[0,0,0],[3,1],[2]]","4","[[0,0,0],[1,2],[3]]","4","0","","","","","","7","","","","","","","","",""
"","","","","","single-stim-button","70","268685","0.0-2.0-22.4-0.4","6310b35d758f80e9cf3f4e41","A3","batch1","","622","tol_tohand","","","","tol_peg_3","622","622","0","[[0,0,0],[3,1],[0]]","5","[[0,0,0],[1,2],[3]]","4","0","","","","","","7","","","","","","","","",""
"","","","","","single-stim-button","71","269474","0.0-2.0-22.4-1.4","6310b35d758f80e9cf3f4e41","A3","batch1","","788","tol_toboard","","","","tol_peg_1","788","788","0","[[2,0,0],[3,1],[0]]","5","[[0,0,0],[1,2],[3]]","4","0","","","","","","7","","","","","","","","",""
"","","","","","single-stim-button","72","269911","0.0-2.0-22.5-0.5","6310b35d758f80e9cf3f4e41","A3","batch1","","437","tol_tohand","","","","tol_peg_2","437","437","0","[[2,0,0],[3,0],[0]]","6","[[0,0,0],[1,2],[3]]","4","0","","","","","","7","","","","","","","","",""
"","","","","","single-stim-button","73","270434","0.0-2.0-22.5-1.5","6310b35d758f80e9cf3f4e41","A3","batch1","","522","tol_toboard","","","","tol_peg_3","522","522","0","[[2,0,0],[3,0],[1]]","6","[[0,0,0],[1,2],[3]]","4","0","","","","","","7","","","","","","","","",""
"","","","","","single-stim-button","74","271742","0.0-2.0-22.6-0.6","6310b35d758f80e9cf3f4e41","A3","batch1","","1308","tol_tohand","","","","tol_peg_2","1308","1308","0","[[2,0,0],[0,0],[1]]","7","[[0,0,0],[1,2],[3]]","4","0","","","","","","7","","","","","","","","",""
"","","","","","single-stim-button","75","272417","0.0-2.0-22.6-1.6","6310b35d758f80e9cf3f4e41","A3","batch1","","673","tol_toboard","","","","tol_peg_1","673","673","0","[[2,3,0],[0,0],[1]]","7","[[0,0,0],[1,2],[3]]","4","0","","","","","","7","","","","","","","","",""
"","","","","","single-stim-button","76","273018","0.0-2.0-22.7-0.7","6310b35d758f80e9cf3f4e41","A3","batch1","","601","tol_tohand","","","","tol_peg_3","601","601","0","[[2,3,0],[0,0],[0]]","8","[[0,0,0],[1,2],[3]]","4","0","","","","","","7","","","","","","","","",""
"","","","","","single-stim-button","77","273557","0.0-2.0-22.7-1.7","6310b35d758f80e9cf3f4e41","A3","batch1","","539","tol_toboard","","","","tol_peg_2","539","539","0","[[2,3,0],[1,0],[0]]","8","[[0,0,0],[1,2],[3]]","4","0","","","","","","7","","","","","","","","",""
"","","","","","single-stim-button","78","274031","0.0-2.0-22.8-0.8","6310b35d758f80e9cf3f4e41","A3","batch1","","472","tol_tohand","","","","tol_peg_1","472","472","0","[[2,0,0],[1,0],[0]]","9","[[0,0,0],[1,2],[3]]","4","0","","","","","","7","","","","","","","","",""
"","","","","","single-stim-button","79","274686","0.0-2.0-22.8-1.8","6310b35d758f80e9cf3f4e41","A3","batch1","","655","tol_toboard","","","","tol_peg_3","655","655","0","[[2,0,0],[1,0],[3]]","9","[[0,0,0],[1,2],[3]]","4","0","","","","","","7","","","","","","","","",""
"","","","","","single-stim-button","80","275341","0.0-2.0-22.9-0.9","6310b35d758f80e9cf3f4e41","A3","batch1","","654","tol_tohand","","","","tol_peg_1","654","654","0","[[0,0,0],[1,0],[3]]","10","[[0,0,0],[1,2],[3]]","4","0","","","","","","7","","","","","","","","",""
"","","","","","single-stim-button","81","275980","0.0-2.0-22.9-1.9","6310b35d758f80e9cf3f4e41","A3","batch1","","639","tol_toboard","","","","tol_peg_2","639","639","0","[[0,0,0],[1,2],[3]]","10","[[0,0,0],[1,2],[3]]","4","0","","","","","","7","","","","","","","","",""
"","","","","","poldrack-single-stim","82","276987","0.0-2.0-23.0","6310b35d758f80e9cf3f4e41","A3","batch1","","-1","tol_feedback","","","true","","1000","1000","500","","","","","","-1","none","true","7505","14659","","","","","","","","","",""
"","","","","","html-button-response","83","278602","0.0-2.0-24.0","6310b35d758f80e9cf3f4e41","A3","batch1","","1614.0999999940395","tol_trial_num","<div class = centerbox><p class = center-block-text>problem <strong>6</strong> out of 25 problems</p></div>","0","","","","","","","","","","","","","","","","","","","","","","","","",""
"","","","","","single-stim-button","84","293355","0.0-2.0-25.0-0.0","6310b35d758f80e9cf3f4e41","A3","batch1","","14752","tol_tohand","","","","tol_peg_2","14752","14752","0","[[0,0,0],[1,0],[3]]","1","[[1,0,0],[2,3],[0]]","5","0","","","","","","6","","","","","","","","",""
"","","","","","single-stim-button","85","295794","0.0-2.0-25.0-1.0","6310b35d758f80e9cf3f4e41","A3","batch1","","2437","tol_toboard","","","","tol_peg_1","2437","2437","0","[[2,0,0],[1,0],[3]]","1","[[1,0,0],[2,3],[0]]","5","0","","","","","","6","","","","","","","","",""
"","","","","","single-stim-button","86","296500","0.0-2.0-25.1-0.1","6310b35d758f80e9cf3f4e41","A3","batch1","","706","tol_tohand","","","","tol_peg_2","706","706","0","[[2,0,0],[0,0],[3]]","2","[[1,0,0],[2,3],[0]]","5","0","","","","","","6","","","","","","","","",""
"","","","","","single-stim-button","87","297140","0.0-2.0-25.1-1.1","6310b35d758f80e9cf3f4e41","A3","batch1","","639","tol_toboard","","","","tol_peg_1","639","639","0","[[2,1,0],[0,0],[3]]","2","[[1,0,0],[2,3],[0]]","5","0","","","","","","6","","","","","","","","",""
"","","","","","single-stim-button","88","298029","0.0-2.0-25.2-0.2","6310b35d758f80e9cf3f4e41","A3","batch1","","888","tol_tohand","","","","tol_peg_3","888","888","0","[[2,1,0],[0,0],[0]]","3","[[1,0,0],[2,3],[0]]","5","0","","","","","","6","","","","","","","","",""
"","","","","","single-stim-button","89","300150","0.0-2.0-25.2-1.2","6310b35d758f80e9cf3f4e41","A3","batch1","","2119","tol_toboard","","","","tol_peg_2","2119","2119","0","[[2,1,0],[3,0],[0]]","3","[[1,0,0],[2,3],[0]]","5","0","","","","","","6","","","","","","","","",""
"","","","","","single-stim-button","90","301340","0.0-2.0-25.3-0.3","6310b35d758f80e9cf3f4e41","A3","batch1","","1190","tol_tohand","","","","tol_peg_1","1190","1190","0","[[2,0,0],[3,0],[0]]","4","[[1,0,0],[2,3],[0]]","5","0","","","","","","6","","","","","","","","",""
"","","","","","single-stim-button","91","302159","0.0-2.0-25.3-1.3","6310b35d758f80e9cf3f4e41","A3","batch1","","819","tol_toboard","","","","tol_peg_2","819","819","0","[[2,0,0],[3,1],[0]]","4","[[1,0,0],[2,3],[0]]","5","0","","","","","","6","","","","","","","","",""
"","","","","","single-stim-button","92","302747","0.0-2.0-25.4-0.4","6310b35d758f80e9cf3f4e41","A3","batch1","","588","tol_tohand","","","","tol_peg_1","588","588","0","[[0,0,0],[3,1],[0]]","5","[[1,0,0],[2,3],[0]]","5","0","","","","","","6","","","","","","","","",""
"","","","","","single-stim-button","93","303704","0.0-2.0-25.4-1.4","6310b35d758f80e9cf3f4e41","A3","batch1","","955","tol_toboard","","","","tol_peg_3","955","955","0","[[0,0,0],[3,1],[2]]","5","[[1,0,0],[2,3],[0]]","5","0","","","","","","6","","","","","","","","",""
"","","","","","single-stim-button","94","304443","0.0-2.0-25.5-0.5","6310b35d758f80e9cf3f4e41","A3","batch1","","739","tol_tohand","","","","tol_peg_2","739","739","0","[[0,0,0],[3,0],[2]]","6","[[1,0,0],[2,3],[0]]","5","0","","","","","","6","","","","","","","","",""
"","","","","","single-stim-button","95","305249","0.0-2.0-25.5-1.5","6310b35d758f80e9cf3f4e41","A3","batch1","","805","tol_toboard","","","","tol_peg_1","805","805","0","[[1,0,0],[3,0],[2]]","6","[[1,0,0],[2,3],[0]]","5","0","","","","","","6","","","","","","","","",""
"","","","","","single-stim-button","96","305887","0.0-2.0-25.6-0.6","6310b35d758f80e9cf3f4e41","A3","batch1","","638","tol_tohand","","","","tol_peg_2","638","638","0","[[1,0,0],[0,0],[2]]","7","[[1,0,0],[2,3],[0]]","5","0","","","","","","6","","","","","","","","",""
"","","","","","single-stim-button","97","306410","0.0-2.0-25.6-1.6","6310b35d758f80e9cf3f4e41","A3","batch1","","522","tol_toboard","","","","tol_peg_1","522","522","0","[[1,3,0],[0,0],[2]]","7","[[1,0,0],[2,3],[0]]","5","0","","","","","","6","","","","","","","","",""
"","","","","","single-stim-button","98","306950","0.0-2.0-25.7-0.7","6310b35d758f80e9cf3f4e41","A3","batch1","","539","tol_tohand","","","","tol_peg_3","539","539","0","[[1,3,0],[0,0],[0]]","8","[[1,0,0],[2,3],[0]]","5","0","","","","","","6","","","","","","","","",""
"","","","","","single-stim-button","99","307595","0.0-2.0-25.7-1.7","6310b35d758f80e9cf3f4e41","A3","batch1","","645","tol_toboard","","","","tol_peg_2","645","645","0","[[1,3,0],[2,0],[0]]","8","[[1,0,0],[2,3],[0]]","5","0","","","","","","6","","","","","","","","",""
"","","","","","single-stim-button","100","308135","0.0-2.0-25.8-0.8","6310b35d758f80e9cf3f4e41","A3","batch1","","539","tol_tohand","","","","tol_peg_1","539","539","0","[[1,0,0],[2,0],[0]]","9","[[1,0,0],[2,3],[0]]","5","0","","","","","","6","","","","","","","","",""
"","","","","","single-stim-button","101","308789","0.0-2.0-25.8-1.8","6310b35d758f80e9cf3f4e41","A3","batch1","","653","tol_toboard","","","","tol_peg_2","653","653","0","[[1,0,0],[2,3],[0]]","9","[[1,0,0],[2,3],[0]]","5","0","","","","","","6","","","","","","","","",""
"","","","","","poldrack-single-stim","102","309794","0.0-2.0-26.0","6310b35d758f80e9cf3f4e41","A3","batch1","","-1","tol_feedback","","","true","","1000","1000","500","","","","","","-1","none","true","14752","20579","","","","","","","","","",""
"","","","","","html-button-response","103","311341","0.0-2.0-27.0","6310b35d758f80e9cf3f4e41","A3","batch1","","1545.6000000238419","tol_trial_num","<div class = centerbox><p class = center-block-text>problem <strong>7</strong> out of 25 problems</p></div>","0","","","","","","","","","","","","","","","","","","","","","","","","",""
"","","","","","single-stim-button","104","314785","0.0-2.0-28.0-0.0","6310b35d758f80e9cf3f4e41","A3","batch1","","3443","tol_tohand","","","","tol_peg_1","3443","3443","0","[[2,0,0],[0,0],[3]]","1","[[1,2,0],[3,0],[0]]","6","0","","","","","","5","","","","","","","","",""
"","","","","","single-stim-button","105","315907","0.0-2.0-28.0-1.0","6310b35d758f80e9cf3f4e41","A3","batch1","","1122","tol_toboard","","","","tol_peg_2","1122","1122","0","[[2,0,0],[1,0],[3]]","1","[[1,2,0],[3,0],[0]]","6","0","","","","","","5","","","","","","","","",""
"","","","","","single-stim-button","106","317760","0.0-2.0-28.1-0.1","6310b35d758f80e9cf3f4e41","A3","batch1","","1853","tol_tohand","","","","tol_peg_1","1853","1853","0","[[0,0,0],[1,0],[3]]","2","[[1,2,0],[3,0],[0]]","6","0","","","","","","5","","","","","","","","",""
"","","","","","single-stim-button","107","318425","0.0-2.0-28.1-1.1","6310b35d758f80e9cf3f4e41","A3","batch1","","664","tol_toboard","","","","tol_peg_2","664","664","0","[[0,0,0],[1,2],[3]]","2","[[1,2,0],[3,0],[0]]","6","0","","","","","","5","","","","","","","","",""
"","","","","","single-stim-button","108","319059","0.0-2.0-28.2-0.2","6310b35d758f80e9cf3f4e41","A3","batch1","","634","tol_tohand","","","","tol_peg_3","634","634","0","[[0,0,0],[1,2],[0]]","3","[[1,2,0],[3,0],[0]]","6","0","","","","","","5","","","","","","","","",""
"","","","","","single-stim-button","109","319750","0.0-2.0-28.2-1.2","6310b35d758f80e9cf3f4e41","A3","batch1","","689","tol_toboard","","","","tol_peg_1","689","689","0","[[3,0,0],[1,2],[0]]","3","[[1,2,0],[3,0],[0]]","6","0","","","","","","5","","","","","","","","",""
"","","","","","single-stim-button","110","320289","0.0-2.0-28.3-0.3","6310b35d758f80e9cf3f4e41","A3","batch1","","539","tol_tohand","","","","tol_peg_2","539","539","0","[[3,0,0],[1,0],[0]]","4","[[1,2,0],[3,0],[0]]","6","0","","","","","","5","","","","","","","","",""
"","","","","","single-stim-button","111","321045","0.0-2.0-28.3-1.3","6310b35d758f80e9cf3f4e41","A3","batch1","","755","tol_toboard","","","","tol_peg_3","755","755","0","[[3,0,0],[1,0],[2]]","4","[[1,2,0],[3,0],[0]]","6","0","","","","","","5","","","","","","","","",""
"","","","","","single-stim-button","112","321966","0.0-2.0-28.4-0.4","6310b35d758f80e9cf3f4e41","A3","batch1","","919","tol_tohand","","","","tol_peg_1","919","919","0","[[0,0,0],[1,0],[2]]","5","[[1,2,0],[3,0],[0]]","6","0","","","","","","5","","","","","","","","",""
"","","","","","single-stim-button","113","325905","0.0-2.0-28.4-1.4","6310b35d758f80e9cf3f4e41","A3","batch1","","3938","tol_toboard","","","","tol_peg_1","3938","3938","0","[[3,0,0],[1,0],[2]]","5","[[1,2,0],[3,0],[0]]","6","0","","","","","","5","","","","","","","","",""
"","","","","","single-stim-button","114","326530","0.0-2.0-28.5-0.5","6310b35d758f80e9cf3f4e41","A3","batch1","","624","tol_tohand","","","","tol_peg_2","624","624","0","[[3,0,0],[0,0],[2]]","6","[[1,2,0],[3,0],[0]]","6","0","","","","","","5","","","","","","","","",""
"","","","","","single-stim-button","115","326985","0.0-2.0-28.5-1.5","6310b35d758f80e9cf3f4e41","A3","batch1","","455","tol_toboard","","","","tol_peg_1","455","455","0","[[3,1,0],[0,0],[2]]","6","[[1,2,0],[3,0],[0]]","6","0","","","","","","5","","","","","","","","",""
"","","","","","single-stim-button","116","328273","0.0-2.0-28.6-0.6","6310b35d758f80e9cf3f4e41","A3","batch1","","1287","tol_tohand","","","","tol_peg_3","1287","1287","0","[[3,1,0],[0,0],[0]]","7","[[1,2,0],[3,0],[0]]","6","0","","","","","","5","","","","","","","","",""
"","","","","","single-stim-button","117","328930","0.0-2.0-28.6-1.6","6310b35d758f80e9cf3f4e41","A3","batch1","","657","tol_toboard","","","","tol_peg_2","657","657","0","[[3,1,0],[2,0],[0]]","7","[[1,2,0],[3,0],[0]]","6","0","","","","","","5","","","","","","","","",""
"","","","","","single-stim-button","118","329999","0.0-2.0-28.7-0.7","6310b35d758f80e9cf3f4e41","A3","batch1","","1069","tol_tohand","","","","tol_peg_1","1069","1069","0","[[3,0,0],[2,0],[0]]","8","[[1,2,0],[3,0],[0]]","6","0","","","","","","5","","","","","","","","",""
"","","","","","single-stim-button","119","330652","0.0-2.0-28.7-1.7","6310b35d758f80e9cf3f4e41","A3","batch1","","652","tol_toboard","","","","tol_peg_3","652","652","0","[[3,0,0],[2,0],[1]]","8","[[1,2,0],[3,0],[0]]","6","0","","","","","","5","","","","","","","","",""
"","","","","","single-stim-button","120","331157","0.0-2.0-28.8-0.8","6310b35d758f80e9cf3f4e41","A3","batch1","","503","tol_tohand","","","","tol_peg_1","503","503","0","[[0,0,0],[2,0],[1]]","9","[[1,2,0],[3,0],[0]]","6","0","","","","","","5","","","","","","","","",""
"","","","","","single-stim-button","121","331530","0.0-2.0-28.8-1.8","6310b35d758f80e9cf3f4e41","A3","batch1","","373","tol_toboard","","","","tol_peg_2","373","373","0","[[0,0,0],[2,3],[1]]","9","[[1,2,0],[3,0],[0]]","6","0","","","","","","5","","","","","","","","",""
"","","","","","single-stim-button","122","332053","0.0-2.0-28.9-0.9","6310b35d758f80e9cf3f4e41","A3","batch1","","522","tol_tohand","","","","tol_peg_3","522","522","0","[[0,0,0],[2,3],[0]]","10","[[1,2,0],[3,0],[0]]","6","0","","","","","","5","","","","","","","","",""
"","","","","","single-stim-button","123","333306","0.0-2.0-28.9-1.9","6310b35d758f80e9cf3f4e41","A3","batch1","","1253","tol_toboard","","","","tol_peg_1","1253","1253","0","[[1,0,0],[2,3],[0]]","10","[[1,2,0],[3,0],[0]]","6","0","","","","","","5","","","","","","","","",""
"","","","","","single-stim-button","124","334376","0.0-2.0-28.10-0.10","6310b35d758f80e9cf3f4e41","A3","batch1","","1068","tol_tohand","","","","tol_peg_2","1068","1068","0","[[1,0,0],[2,0],[0]]","11","[[1,2,0],[3,0],[0]]","6","0","","","","","","5","","","","","","","","",""
"","","","","","single-stim-button","125","334911","0.0-2.0-28.10-1.10","6310b35d758f80e9cf3f4e41","A3","batch1","","535","tol_toboard","","","","tol_peg_3","535","535","0","[[1,0,0],[2,0],[3]]","11","[[1,2,0],[3,0],[0]]","6","0","","","","","","5","","","","","","","","",""
"","","","","","single-stim-button","126","335384","0.0-2.0-28.11-0.11","6310b35d758f80e9cf3f4e41","A3","batch1","","472","tol_tohand","","","","tol_peg_2","472","472","0","[[1,0,0],[0,0],[3]]","12","[[1,2,0],[3,0],[0]]","6","0","","","","","","5","","","","","","","","",""
"","","","","","single-stim-button","127","335757","0.0-2.0-28.11-1.11","6310b35d758f80e9cf3f4e41","A3","batch1","","373","tol_toboard","","","","tol_peg_1","373","373","0","[[1,2,0],[0,0],[3]]","12","[[1,2,0],[3,0],[0]]","6","0","","","","","","5","","","","","","","","",""
"","","","","","single-stim-button","128","336347","0.0-2.0-28.12-0.12","6310b35d758f80e9cf3f4e41","A3","batch1","","589","tol_tohand","","","","tol_peg_3","589","589","0","[[1,2,0],[0,0],[0]]","13","[[1,2,0],[3,0],[0]]","6","0","","","","","","5","","","","","","","","",""
"","","","","","single-stim-button","129","336770","0.0-2.0-28.12-1.12","6310b35d758f80e9cf3f4e41","A3","batch1","","422","tol_toboard","","","","tol_peg_2","422","422","0","[[1,2,0],[3,0],[0]]","13","[[1,2,0],[3,0],[0]]","6","0","","","","","","5","","","","","","","","",""
"","","","","","poldrack-single-stim","130","337778","0.0-2.0-29.0","6310b35d758f80e9cf3f4e41","A3","batch1","","-1","tol_feedback","","","true","","1000","1000","500","","","","","","-1","none","true","3443","13522","","","","","","","","","",""
"","","","","","html-button-response","131","338683","0.0-2.0-30.0","6310b35d758f80e9cf3f4e41","A3","batch1","","904.3999999761581","tol_trial_num","<div class = centerbox><p class = center-block-text>problem <strong>8</strong> out of 25 problems</p></div>","0","","","","","","","","","","","","","","","","","","","","","","","","",""
"","","","","","single-stim-button","132","341985","0.0-2.0-31.0-0.0","6310b35d758f80e9cf3f4e41","A3","batch1","","3302","tol_tohand","","","","tol_peg_3","3302","3302","0","[[0,0,0],[2,3],[0]]","1","[[1,2,0],[3,0],[0]]","7","0","","","","","","4","","","","","","","","",""
"","","","","","single-stim-button","133","344477","0.0-2.0-31.0-1.0","6310b35d758f80e9cf3f4e41","A3","batch1","","2491","tol_toboard","","","","tol_peg_1","2491","2491","0","[[1,0,0],[2,3],[0]]","1","[[1,2,0],[3,0],[0]]","7","0","","","","","","4","","","","","","","","",""
"","","","","","single-stim-button","134","345100","0.0-2.0-31.1-0.1","6310b35d758f80e9cf3f4e41","A3","batch1","","623","tol_tohand","","","","tol_peg_2","623","623","0","[[1,0,0],[2,0],[0]]","2","[[1,2,0],[3,0],[0]]","7","0","","","","","","4","","","","","","","","",""
"","","","","","single-stim-button","135","345566","0.0-2.0-31.1-1.1","6310b35d758f80e9cf3f4e41","A3","batch1","","466","tol_toboard","","","","tol_peg_3","466","466","0","[[1,0,0],[2,0],[3]]","2","[[1,2,0],[3,0],[0]]","7","0","","","","","","4","","","","","","","","",""
"","","","","","single-stim-button","136","346306","0.0-2.0-31.2-0.2","6310b35d758f80e9cf3f4e41","A3","batch1","","739","tol_tohand","","","","tol_peg_2","739","739","0","[[1,0,0],[0,0],[3]]","3","[[1,2,0],[3,0],[0]]","7","0","","","","","","4","","","","","","","","",""
"","","","","","single-stim-button","137","346762","0.0-2.0-31.2-1.2","6310b35d758f80e9cf3f4e41","A3","batch1","","455","tol_toboard","","","","tol_peg_1","455","455","0","[[1,2,0],[0,0],[3]]","3","[[1,2,0],[3,0],[0]]","7","0","","","","","","4","","","","","","","","",""
"","","","","","single-stim-button","138","347352","0.0-2.0-31.3-0.3","6310b35d758f80e9cf3f4e41","A3","batch1","","588","tol_tohand","","","","tol_peg_3","588","588","0","[[1,2,0],[0,0],[0]]","4","[[1,2,0],[3,0],[0]]","7","0","","","","","","4","","","","","","","","",""
"","","","","","single-stim-button","139","347905","0.0-2.0-31.3-1.3","6310b35d758f80e9cf3f4e41","A3","batch1","","553","tol_toboard","","","","tol_peg_2","553","553","0","[[1,2,0],[3,0],[0]]","4","[[1,2,0],[3,0],[0]]","7","0","","","","","","4","","","","","","","","",""
"","","","","","poldrack-single-stim","140","348917","0.0-2.0-32.0","6310b35d758f80e9cf3f4e41","A3","batch1","","-1","tol_feedback","","","true","","1000","1000","500","","","","","","-1","none","true","3302","5252","","","","","","","","","",""
"","","","","","html-button-response","141","349761","0.0-2.0-33.0","6310b35d758f80e9cf3f4e41","A3","batch1","","842.5","tol_trial_num","<div class = centerbox><p class = center-block-text>problem <strong>9</strong> out of 25 problems</p></div>","0","","","","","","","","","","","","","","","","","","","","","","","","",""
"","","","","","single-stim-button","142","351834","0.0-2.0-34.0-0.0","6310b35d758f80e9cf3f4e41","A3","batch1","","2072","tol_tohand","","","","tol_peg_1","2072","2072","0","[[3,0,0],[0,0],[1]]","1","[[2,1,0],[3,0],[0]]","8","0","","","","","","6","","","","","","","","",""
"","","","","","single-stim-button","143","355006","0.0-2.0-34.0-1.0","6310b35d758f80e9cf3f4e41","A3","batch1","","3172","tol_toboard","","","","tol_peg_1","3172","3172","0","[[3,2,0],[0,0],[1]]","1","[[2,1,0],[3,0],[0]]","8","0","","","","","","6","","","","","","","","",""
"","","","","","single-stim-button","144","356111","0.0-2.0-34.1-0.1","6310b35d758f80e9cf3f4e41","A3","batch1","","1105","tol_tohand","","","","tol_peg_3","1105","1105","0","[[3,2,0],[0,0],[0]]","2","[[2,1,0],[3,0],[0]]","8","0","","","","","","6","","","","","","","","",""
"","","","","","single-stim-button","145","357016","0.0-2.0-34.1-1.1","6310b35d758f80e9cf3f4e41","A3","batch1","","904","tol_toboard","","","","tol_peg_2","904","904","0","[[3,2,0],[1,0],[0]]","2","[[2,1,0],[3,0],[0]]","8","0","","","","","","6","","","","","","","","",""
"","","","","","single-stim-button","146","357756","0.0-2.0-34.2-0.2","6310b35d758f80e9cf3f4e41","A3","batch1","","739","tol_tohand","","","","tol_peg_1","739","739","0","[[3,0,0],[1,0],[0]]","3","[[2,1,0],[3,0],[0]]","8","0","","","","","","6","","","","","","","","",""
"","","","","","single-stim-button","147","358713","0.0-2.0-34.2-1.2","6310b35d758f80e9cf3f4e41","A3","batch1","","955","tol_toboard","","","","tol_peg_3","955","955","0","[[3,0,0],[1,0],[2]]","3","[[2,1,0],[3,0],[0]]","8","0","","","","","","6","","","","","","","","",""
"","","","","","single-stim-button","148","359519","0.0-2.0-34.3-0.3","6310b35d758f80e9cf3f4e41","A3","batch1","","806","tol_tohand","","","","tol_peg_1","806","806","0","[[0,0,0],[1,0],[2]]","4","[[2,1,0],[3,0],[0]]","8","0","","","","","","6","","","","","","","","",""
"","","","","","single-stim-button","149","359992","0.0-2.0-34.3-1.3","6310b35d758f80e9cf3f4e41","A3","batch1","","472","tol_toboard","","","","tol_peg_2","472","472","0","[[0,0,0],[1,3],[2]]","4","[[2,1,0],[3,0],[0]]","8","0","","","","","","6","","","","","","","","",""
"","","","","","single-stim-button","150","360447","0.0-2.0-34.4-0.4","6310b35d758f80e9cf3f4e41","A3","batch1","","454","tol_tohand","","","","tol_peg_3","454","454","0","[[0,0,0],[1,3],[0]]","5","[[2,1,0],[3,0],[0]]","8","0","","","","","","6","","","","","","","","",""
"","","","","","single-stim-button","151","360954","0.0-2.0-34.4-1.4","6310b35d758f80e9cf3f4e41","A3","batch1","","506","tol_toboard","","","","tol_peg_1","506","506","0","[[2,0,0],[1,3],[0]]","5","[[2,1,0],[3,0],[0]]","8","0","","","","","","6","","","","","","","","",""
"","","","","","single-stim-button","152","361394","0.0-2.0-34.5-0.5","6310b35d758f80e9cf3f4e41","A3","batch1","","438","tol_tohand","","","","tol_peg_2","438","438","0","[[2,0,0],[1,0],[0]]","6","[[2,1,0],[3,0],[0]]","8","0","","","","","","6","","","","","","","","",""
"","","","","","single-stim-button","153","361716","0.0-2.0-34.5-1.5","6310b35d758f80e9cf3f4e41","A3","batch1","","322","tol_toboard","","","","tol_peg_3","322","322","0","[[2,0,0],[1,0],[3]]","6","[[2,1,0],[3,0],[0]]","8","0","","","","","","6","","","","","","","","",""
"","","","","","single-stim-button","154","362088","0.0-2.0-34.6-0.6","6310b35d758f80e9cf3f4e41","A3","batch1","","371","tol_tohand","","","","tol_peg_2","371","371","0","[[2,0,0],[0,0],[3]]","7","[[2,1,0],[3,0],[0]]","8","0","","","","","","6","","","","","","","","",""
"","","","","","single-stim-button","155","362392","0.0-2.0-34.6-1.6","6310b35d758f80e9cf3f4e41","A3","batch1","","303","tol_toboard","","","","tol_peg_1","303","303","0","[[2,1,0],[0,0],[3]]","7","[[2,1,0],[3,0],[0]]","8","0","","","","","","6","","","","","","","","",""
"","","","","","single-stim-button","156","362931","0.0-2.0-34.7-0.7","6310b35d758f80e9cf3f4e41","A3","batch1","","538","tol_tohand","","","","tol_peg_3","538","538","0","[[2,1,0],[0,0],[0]]","8","[[2,1,0],[3,0],[0]]","8","0","","","","","","6","","","","","","","","",""
"","","","","","single-stim-button","157","363255","0.0-2.0-34.7-1.7","6310b35d758f80e9cf3f4e41","A3","batch1","","322","tol_toboard","","","","tol_peg_2","322","322","0","[[2,1,0],[3,0],[0]]","8","[[2,1,0],[3,0],[0]]","8","0","","","","","","6","","","","","","","","",""
"","","","","","poldrack-single-stim","158","364262","0.0-2.0-35.0","6310b35d758f80e9cf3f4e41","A3","batch1","","-1","tol_feedback","","","true","","1000","1000","500","","","","","","-1","none","true","2072","6523","","","","","","","","","",""
"","","","","","html-button-response","159","365177","0.0-2.0-36.0","6310b35d758f80e9cf3f4e41","A3","batch1","","913.6000000238419","tol_trial_num","<div class = centerbox><p class = center-block-text>problem <strong>10</strong> out of 25 problems</p></div>","0","","","","","","","","","","","","","","","","","","","","","","","","",""
"","","","","","single-stim-button","160","367645","0.0-2.0-37.0-0.0","6310b35d758f80e9cf3f4e41","A3","batch1","","2467","tol_tohand","","","","tol_peg_2","2467","2467","0","[[3,0,0],[0,0],[2]]","1","[[3,0,0],[2,1],[0]]","9","0","","","","","","3","","","","","","","","",""
"","","","","","single-stim-button","161","368135","0.0-2.0-37.0-1.0","6310b35d758f80e9cf3f4e41","A3","batch1","","489","tol_toboard","","","","tol_peg_1","489","489","0","[[3,1,0],[0,0],[2]]","1","[[3,0,0],[2,1],[0]]","9","0","","","","","","3","","","","","","","","",""
"","","","","","single-stim-button","162","368637","0.0-2.0-37.1-0.1","6310b35d758f80e9cf3f4e41","A3","batch1","","501","tol_tohand","","","","tol_peg_3","501","501","0","[[3,1,0],[0,0],[0]]","2","[[3,0,0],[2,1],[0]]","9","0","","","","","","3","","","","","","","","",""
"","","","","","single-stim-button","163","369059","0.0-2.0-37.1-1.1","6310b35d758f80e9cf3f4e41","A3","batch1","","422","tol_toboard","","","","tol_peg_2","422","422","0","[[3,1,0],[2,0],[0]]","2","[[3,0,0],[2,1],[0]]","9","0","","","","","","3","","","","","","","","",""
"","","","","","single-stim-button","164","369597","0.0-2.0-37.2-0.2","6310b35d758f80e9cf3f4e41","A3","batch1","","537","tol_tohand","","","","tol_peg_1","537","537","0","[[3,0,0],[2,0],[0]]","3","[[3,0,0],[2,1],[0]]","9","0","","","","","","3","","","","","","","","",""
"","","","","","single-stim-button","165","370103","0.0-2.0-37.2-1.2","6310b35d758f80e9cf3f4e41","A3","batch1","","506","tol_toboard","","","","tol_peg_2","506","506","0","[[3,0,0],[2,1],[0]]","3","[[3,0,0],[2,1],[0]]","9","0","","","","","","3","","","","","","","","",""
"","","","","","poldrack-single-stim","166","371110","0.0-2.0-38.0","6310b35d758f80e9cf3f4e41","A3","batch1","","-1","tol_feedback","","","true","","1000","1000","500","","","","","","-1","none","true","2467","3505","","","","","","","","","",""
"","","","","","html-button-response","167","371914","0.0-2.0-39.0","6310b35d758f80e9cf3f4e41","A3","batch1","","802.6999999880791","tol_trial_num","<div class = centerbox><p class = center-block-text>problem <strong>11</strong> out of 25 problems</p></div>","0","","","","","","","","","","","","","","","","","","","","","","","","",""
"","","","","","single-stim-button","168","381934","0.0-2.0-40.0-0.0","6310b35d758f80e9cf3f4e41","A3","batch1","","10020","tol_tohand","","","","tol_peg_1","10020","10020","0","[[1,0,0],[3,0],[0]]","1","[[2,0,0],[1,3],[0]]","10","0","","","","","","6","","","","","","","","",""
"","","","","","single-stim-button","169","382425","0.0-2.0-40.0-1.0","6310b35d758f80e9cf3f4e41","A3","batch1","","490","tol_toboard","","","","tol_peg_2","490","490","0","[[1,0,0],[3,2],[0]]","1","[[2,0,0],[1,3],[0]]","10","0","","","","","","6","","","","","","","","",""
"","","","","","single-stim-button","170","382992","0.0-2.0-40.1-0.1","6310b35d758f80e9cf3f4e41","A3","batch1","","566","tol_tohand","","","","tol_peg_1","566","566","0","[[0,0,0],[3,2],[0]]","2","[[2,0,0],[1,3],[0]]","10","0","","","","","","6","","","","","","","","",""
"","","","","","single-stim-button","171","384465","0.0-2.0-40.1-1.1","6310b35d758f80e9cf3f4e41","A3","batch1","","1471","tol_toboard","","","","tol_peg_3","1471","1471","0","[[0,0,0],[3,2],[1]]","2","[[2,0,0],[1,3],[0]]","10","0","","","","","","6","","","","","","","","",""
"","","","","","single-stim-button","172","384586","0.0-2.0-40.2-0.2","6310b35d758f80e9cf3f4e41","A3","batch1","","121","tol_tohand","","","","tol_peg_3","121","121","0","[[0,0,0],[3,2],[0]]","3","[[2,0,0],[1,3],[0]]","10","0","","","","","","6","","","","","","","","",""
"","","","","","single-stim-button","173","385508","0.0-2.0-40.2-1.2","6310b35d758f80e9cf3f4e41","A3","batch1","","922","tol_toboard","","","","tol_peg_3","922","922","0","[[0,0,0],[3,2],[1]]","3","[[2,0,0],[1,3],[0]]","10","0","","","","","","6","","","","","","","","",""
"","","","","","single-stim-button","174","386298","0.0-2.0-40.3-0.3","6310b35d758f80e9cf3f4e41","A3","batch1","","789","tol_tohand","","","","tol_peg_2","789","789","0","[[0,0,0],[3,0],[1]]","4","[[2,0,0],[1,3],[0]]","10","0","","","","","","6","","","","","","","","",""
"","","","","","single-stim-button","175","386722","0.0-2.0-40.3-1.3","6310b35d758f80e9cf3f4e41","A3","batch1","","423","tol_toboard","","","","tol_peg_1","423","423","0","[[2,0,0],[3,0],[1]]","4","[[2,0,0],[1,3],[0]]","10","0","","","","","","6","","","","","","","","",""
"","","","","","single-stim-button","176","387294","0.0-2.0-40.4-0.4","6310b35d758f80e9cf3f4e41","A3","batch1","","570","tol_tohand","","","","tol_peg_2","570","570","0","[[2,0,0],[0,0],[1]]","5","[[2,0,0],[1,3],[0]]","10","0","","","","","","6","","","","","","","","",""
"","","","","","single-stim-button","177","387634","0.0-2.0-40.4-1.4","6310b35d758f80e9cf3f4e41","A3","batch1","","340","tol_toboard","","","","tol_peg_1","340","340","0","[[2,3,0],[0,0],[1]]","5","[[2,0,0],[1,3],[0]]","10","0","","","","","","6","","","","","","","","",""
"","","","","","single-stim-button","178","388890","0.0-2.0-40.5-0.5","6310b35d758f80e9cf3f4e41","A3","batch1","","1256","tol_tohand","","","","tol_peg_3","1256","1256","0","[[2,3,0],[0,0],[0]]","6","[[2,0,0],[1,3],[0]]","10","0","","","","","","6","","","","","","","","",""
"","","","","","single-stim-button","179","389656","0.0-2.0-40.5-1.5","6310b35d758f80e9cf3f4e41","A3","batch1","","766","tol_toboard","","","","tol_peg_2","766","766","0","[[2,3,0],[1,0],[0]]","6","[[2,0,0],[1,3],[0]]","10","0","","","","","","6","","","","","","","","",""
"","","","","","single-stim-button","180","390296","0.0-2.0-40.6-0.6","6310b35d758f80e9cf3f4e41","A3","batch1","","640","tol_tohand","","","","tol_peg_1","640","640","0","[[2,0,0],[1,0],[0]]","7","[[2,0,0],[1,3],[0]]","10","0","","","","","","6","","","","","","","","",""
"","","","","","single-stim-button","181","390935","0.0-2.0-40.6-1.6","6310b35d758f80e9cf3f4e41","A3","batch1","","638","tol_toboard","","","","tol_peg_2","638","638","0","[[2,0,0],[1,3],[0]]","7","[[2,0,0],[1,3],[0]]","10","0","","","","","","6","","","","","","","","",""
"","","","","","poldrack-single-stim","182","391939","0.0-2.0-41.0","6310b35d758f80e9cf3f4e41","A3","batch1","","-1","tol_feedback","","","true","","1000","1000","500","","","","","","-1","none","true","10020","13962","","","","","","","","","",""
"","","","","","html-button-response","183","392950","0.0-2.0-42.0","6310b35d758f80e9cf3f4e41","A3","batch1","","1010.2999999821186","tol_trial_num","<div class = centerbox><p class = center-block-text>problem <strong>12</strong> out of 25 problems</p></div>","0","","","","","","","","","","","","","","","","","","","","","","","","",""
"","","","","","single-stim-button","184","397319","0.0-2.0-43.0-0.0","6310b35d758f80e9cf3f4e41","A3","batch1","","4369","tol_tohand","","","","tol_peg_1","4369","4369","0","[[1,0,0],[3,0],[0]]","1","[[2,3,0],[0,0],[1]]","11","0","","","","","","4","","","","","","","","",""
"","","","","","single-stim-button","185","397875","0.0-2.0-43.0-1.0","6310b35d758f80e9cf3f4e41","A3","batch1","","555","tol_toboard","","","","tol_peg_2","555","555","0","[[1,0,0],[3,2],[0]]","1","[[2,3,0],[0,0],[1]]","11","0","","","","","","4","","","","","","","","",""
"","","","","","single-stim-button","186","398527","0.0-2.0-43.1-0.1","6310b35d758f80e9cf3f4e41","A3","batch1","","650","tol_tohand","","","","tol_peg_1","650","650","0","[[0,0,0],[3,2],[0]]","2","[[2,3,0],[0,0],[1]]","11","0","","","","","","4","","","","","","","","",""
"","","","","","single-stim-button","187","399099","0.0-2.0-43.1-1.1","6310b35d758f80e9cf3f4e41","A3","batch1","","572","tol_toboard","","","","tol_peg_3","572","572","0","[[0,0,0],[3,2],[1]]","2","[[2,3,0],[0,0],[1]]","11","0","","","","","","4","","","","","","","","",""
"","","","","","single-stim-button","188","399722","0.0-2.0-43.2-0.2","6310b35d758f80e9cf3f4e41","A3","batch1","","622","tol_tohand","","","","tol_peg_2","622","622","0","[[0,0,0],[3,0],[1]]","3","[[2,3,0],[0,0],[1]]","11","0","","","","","","4","","","","","","","","",""
"","","","","","single-stim-button","189","400159","0.0-2.0-43.2-1.2","6310b35d758f80e9cf3f4e41","A3","batch1","","437","tol_toboard","","","","tol_peg_1","437","437","0","[[2,0,0],[3,0],[1]]","3","[[2,3,0],[0,0],[1]]","11","0","","","","","","4","","","","","","","","",""
"","","","","","single-stim-button","190","400613","0.0-2.0-43.3-0.3","6310b35d758f80e9cf3f4e41","A3","batch1","","453","tol_tohand","","","","tol_peg_2","453","453","0","[[2,0,0],[0,0],[1]]","4","[[2,3,0],[0,0],[1]]","11","0","","","","","","4","","","","","","","","",""
"","","","","","single-stim-button","191","400953","0.0-2.0-43.3-1.3","6310b35d758f80e9cf3f4e41","A3","batch1","","339","tol_toboard","","","","tol_peg_1","339","339","0","[[2,3,0],[0,0],[1]]","4","[[2,3,0],[0,0],[1]]","11","0","","","","","","4","","","","","","","","",""
"","","","","","poldrack-single-stim","192","401956","0.0-2.0-44.0","6310b35d758f80e9cf3f4e41","A3","batch1","","-1","tol_feedback","","","true","","1000","1000","500","","","","","","-1","none","true","4369","6094","","","","","","","","","",""
"","","","","","html-button-response","193","402608","0.0-2.0-45.0","6310b35d758f80e9cf3f4e41","A3","batch1","","650.8000000119209","tol_trial_num","<div class = centerbox><p class = center-block-text>problem <strong>13</strong> out of 25 problems</p></div>","0","","","","","","","","","","","","","","","","","","","","","","","","",""
"","","","","","single-stim-button","194","407027","0.0-2.0-46.0-0.0","6310b35d758f80e9cf3f4e41","A3","batch1","","4418","tol_tohand","","","","tol_peg_2","4418","4418","0","[[1,2,0],[0,0],[0]]","1","[[0,0,0],[2,3],[1]]","12","0","","","","","","4","","","","","","","","",""
"","","","","","single-stim-button","195","408149","0.0-2.0-46.0-1.0","6310b35d758f80e9cf3f4e41","A3","batch1","","1121","tol_toboard","","","","tol_peg_3","1121","1121","0","[[1,2,0],[0,0],[3]]","1","[[0,0,0],[2,3],[1]]","12","0","","","","","","4","","","","","","","","",""
"","","","","","single-stim-button","196","408786","0.0-2.0-46.1-0.1","6310b35d758f80e9cf3f4e41","A3","batch1","","637","tol_tohand","","","","tol_peg_1","637","637","0","[[1,0,0],[0,0],[3]]","2","[[0,0,0],[2,3],[1]]","12","0","","","","","","4","","","","","","","","",""
"","","","","","single-stim-button","197","409293","0.0-2.0-46.1-1.1","6310b35d758f80e9cf3f4e41","A3","batch1","","506","tol_toboard","","","","tol_peg_2","506","506","0","[[1,0,0],[2,0],[3]]","2","[[0,0,0],[2,3],[1]]","12","0","","","","","","4","","","","","","","","",""
"","","","","","single-stim-button","198","409783","0.0-2.0-46.2-0.2","6310b35d758f80e9cf3f4e41","A3","batch1","","490","tol_tohand","","","","tol_peg_3","490","490","0","[[1,0,0],[2,0],[0]]","3","[[0,0,0],[2,3],[1]]","12","0","","","","","","4","","","","","","","","",""
"","","","","","single-stim-button","199","410222","0.0-2.0-46.2-1.2","6310b35d758f80e9cf3f4e41","A3","batch1","","439","tol_toboard","","","","tol_peg_2","439","439","0","[[1,0,0],[2,3],[0]]","3","[[0,0,0],[2,3],[1]]","12","0","","","","","","4","","","","","","","","",""
"","","","","","single-stim-button","200","410678","0.0-2.0-46.3-0.3","6310b35d758f80e9cf3f4e41","A3","batch1","","455","tol_tohand","","","","tol_peg_1","455","455","0","[[0,0,0],[2,3],[0]]","4","[[0,0,0],[2,3],[1]]","12","0","","","","","","4","","","","","","","","",""
"","","","","","single-stim-button","201","411668","0.0-2.0-46.3-1.3","6310b35d758f80e9cf3f4e41","A3","batch1","","989","tol_toboard","","","","tol_peg_3","989","989","0","[[0,0,0],[2,3],[1]]","4","[[0,0,0],[2,3],[1]]","12","0","","","","","","4","","","","","","","","",""
"","","","","","poldrack-single-stim","202","412680","0.0-2.0-47.0","6310b35d758f80e9cf3f4e41","A3","batch1","","-1","tol_feedback","","","true","","1000","1000","500","","","","","","-1","none","true","4418","6000","","","","","","","","","",""
"","","","","","html-button-response","203","416190","0.0-2.0-48.0","6310b35d758f80e9cf3f4e41","A3","batch1","","3508.800000011921","attention_check","<p class = block-text>How many balls are in your board<br></p>","1","true","","","","","","","","","","","","","","","","","","","","","","","",""
"","","","","","html-button-response","204","417218","0.0-2.0-49.0","6310b35d758f80e9cf3f4e41","A3","batch1","","1026.1000000238419","tol_trial_num","<div class = centerbox><p class = center-block-text>problem <strong>14</strong> out of 25 problems</p></div>","0","","","","","","","","","","","","","","","","","","","","","","","","",""
"","","","","","single-stim-button","205","421991","0.0-2.0-50.0-0.0","6310b35d758f80e9cf3f4e41","A3","batch1","","4773","tol_tohand","","","","tol_peg_1","4773","4773","0","[[2,0,0],[3,0],[0]]","1","[[1,2,0],[3,0],[0]]","13","0","","","","","","4","","","","","","","","",""
"","","","","","single-stim-button","206","422731","0.0-2.0-50.0-1.0","6310b35d758f80e9cf3f4e41","A3","batch1","","738","tol_toboard","","","","tol_peg_2","738","738","0","[[2,0,0],[3,1],[0]]","1","[[1,2,0],[3,0],[0]]","13","0","","","","","","4","","","","","","","","",""
"","","","","","single-stim-button","207","423398","0.0-2.0-50.1-0.1","6310b35d758f80e9cf3f4e41","A3","batch1","","667","tol_tohand","","","","tol_peg_1","667","667","0","[[0,0,0],[3,1],[0]]","2","[[1,2,0],[3,0],[0]]","13","0","","","","","","4","","","","","","","","",""
"","","","","","single-stim-button","208","424305","0.0-2.0-50.1-1.1","6310b35d758f80e9cf3f4e41","A3","batch1","","905","tol_toboard","","","","tol_peg_3","905","905","0","[[0,0,0],[3,1],[2]]","2","[[1,2,0],[3,0],[0]]","13","0","","","","","","4","","","","","","","","",""
"","","","","","single-stim-button","209","424928","0.0-2.0-50.2-0.2","6310b35d758f80e9cf3f4e41","A3","batch1","","623","tol_tohand","","","","tol_peg_2","623","623","0","[[0,0,0],[3,0],[2]]","3","[[1,2,0],[3,0],[0]]","13","0","","","","","","4","","","","","","","","",""
"","","","","","single-stim-button","210","426097","0.0-2.0-50.2-1.2","6310b35d758f80e9cf3f4e41","A3","batch1","","1167","tol_toboard","","","","tol_peg_1","1167","1167","0","[[1,0,0],[3,0],[2]]","3","[[1,2,0],[3,0],[0]]","13","0","","","","","","4","","","","","","","","",""
"","","","","","single-stim-button","211","427021","0.0-2.0-50.3-0.3","6310b35d758f80e9cf3f4e41","A3","batch1","","924","tol_tohand","","","","tol_peg_3","924","924","0","[[1,0,0],[3,0],[0]]","4","[[1,2,0],[3,0],[0]]","13","0","","","","","","4","","","","","","","","",""
"","","","","","single-stim-button","212","427910","0.0-2.0-50.3-1.3","6310b35d758f80e9cf3f4e41","A3","batch1","","888","tol_toboard","","","","tol_peg_1","888","888","0","[[1,2,0],[3,0],[0]]","4","[[1,2,0],[3,0],[0]]","13","0","","","","","","4","","","","","","","","",""
"","","","","","poldrack-single-stim","213","428918","0.0-2.0-51.0","6310b35d758f80e9cf3f4e41","A3","batch1","","-1","tol_feedback","","","true","","1000","1000","500","","","","","","-1","none","true","4773","6987","","","","","","","","","",""
"","","","","","html-button-response","214","429976","0.0-2.0-52.0","6310b35d758f80e9cf3f4e41","A3","batch1","","1057.3999999761581","tol_trial_num","<div class = centerbox><p class = center-block-text>problem <strong>15</strong> out of 25 problems</p></div>","0","","","","","","","","","","","","","","","","","","","","","","","","",""
"","","","","","single-stim-button","215","433245","0.0-2.0-53.0-0.0","6310b35d758f80e9cf3f4e41","A3","batch1","","3268","tol_tohand","","","","tol_peg_1","3268","3268","0","[[1,0,0],[3,0],[0]]","1","[[2,0,0],[3,0],[1]]","14","0","","","","","","3","","","","","","","","",""
"","","","","","single-stim-button","216","434017","0.0-2.0-53.0-1.0","6310b35d758f80e9cf3f4e41","A3","batch1","","771","tol_toboard","","","","tol_peg_2","771","771","0","[[1,0,0],[3,2],[0]]","1","[[2,0,0],[3,0],[1]]","14","0","","","","","","3","","","","","","","","",""
"","","","","","single-stim-button","217","434774","0.0-2.0-53.1-0.1","6310b35d758f80e9cf3f4e41","A3","batch1","","756","tol_tohand","","","","tol_peg_1","756","756","0","[[0,0,0],[3,2],[0]]","2","[[2,0,0],[3,0],[1]]","14","0","","","","","","3","","","","","","","","",""
"","","","","","single-stim-button","218","435513","0.0-2.0-53.1-1.1","6310b35d758f80e9cf3f4e41","A3","batch1","","738","tol_toboard","","","","tol_peg_3","738","738","0","[[0,0,0],[3,2],[1]]","2","[[2,0,0],[3,0],[1]]","14","0","","","","","","3","","","","","","","","",""
"","","","","","single-stim-button","219","436334","0.0-2.0-53.2-0.2","6310b35d758f80e9cf3f4e41","A3","batch1","","819","tol_tohand","","","","tol_peg_2","819","819","0","[[0,0,0],[3,0],[1]]","3","[[2,0,0],[3,0],[1]]","14","0","","","","","","3","","","","","","","","",""
"","","","","","single-stim-button","220","437207","0.0-2.0-53.2-1.2","6310b35d758f80e9cf3f4e41","A3","batch1","","872","tol_toboard","","","","tol_peg_1","872","872","0","[[2,0,0],[3,0],[1]]","3","[[2,0,0],[3,0],[1]]","14","0","","","","","","3","","","","","","","","",""
"","","","","","poldrack-single-stim","221","438216","0.0-2.0-54.0","6310b35d758f80e9cf3f4e41","A3","batch1","","-1","tol_feedback","","","true","","1000","1000","500","","","","","","-1","none","true","3268","4843","","","","","","","","","",""
"","","","","","html-button-response","222","439678","0.0-2.0-55.0","6310b35d758f80e9cf3f4e41","A3","batch1","","1460.800000011921","tol_trial_num","<div class = centerbox><p class = center-block-text>problem <strong>16</strong> out of 25 problems</p></div>","0","","","","","","","","","","","","","","","","","","","","","","","","",""
"","","","","","single-stim-button","223","446406","0.0-2.0-56.0-0.0","6310b35d758f80e9cf3f4e41","A3","batch1","","6727","tol_tohand","","","","tol_peg_3","6727","6727","0","[[0,0,0],[2,3],[0]]","1","[[2,3,0],[1,0],[0]]","15","0","","","","","","7","","","","","","","","",""
"","","","","","single-stim-button","224","447460","0.0-2.0-56.0-1.0","6310b35d758f80e9cf3f4e41","A3","batch1","","1054","tol_toboard","","","","tol_peg_3","1054","1054","0","[[0,0,0],[2,3],[1]]","1","[[2,3,0],[1,0],[0]]","15","0","","","","","","7","","","","","","","","",""
"","","","","","single-stim-button","225","457729","0.0-2.0-56.1-0.1","6310b35d758f80e9cf3f4e41","A3","batch1","","10268","tol_tohand","","","","tol_peg_2","10268","10268","0","[[0,0,0],[2,0],[1]]","2","[[2,3,0],[1,0],[0]]","15","0","","","","","","7","","","","","","","","",""
"","","","","","single-stim-button","226","458563","0.0-2.0-56.1-1.1","6310b35d758f80e9cf3f4e41","A3","batch1","","834","tol_toboard","","","","tol_peg_1","834","834","0","[[3,0,0],[2,0],[1]]","2","[[2,3,0],[1,0],[0]]","15","0","","","","","","7","","","","","","","","",""
"","","","","","single-stim-button","227","459284","0.0-2.0-56.2-0.2","6310b35d758f80e9cf3f4e41","A3","batch1","","719","tol_tohand","","","","tol_peg_2","719","719","0","[[3,0,0],[0,0],[1]]","3","[[2,3,0],[1,0],[0]]","15","0","","","","","","7","","","","","","","","",""
"","","","","","single-stim-button","228","459889","0.0-2.0-56.2-1.2","6310b35d758f80e9cf3f4e41","A3","batch1","","604","tol_toboard","","","","tol_peg_1","604","604","0","[[3,2,0],[0,0],[1]]","3","[[2,3,0],[1,0],[0]]","15","0","","","","","","7","","","","","","","","",""
"","","","","","single-stim-button","229","460726","0.0-2.0-56.3-0.3","6310b35d758f80e9cf3f4e41","A3","batch1","","837","tol_tohand","","","","tol_peg_3","837","837","0","[[3,2,0],[0,0],[0]]","4","[[2,3,0],[1,0],[0]]","15","0","","","","","","7","","","","","","","","",""
"","","","","","single-stim-button","230","461547","0.0-2.0-56.3-1.3","6310b35d758f80e9cf3f4e41","A3","batch1","","821","tol_toboard","","","","tol_peg_2","821","821","0","[[3,2,0],[1,0],[0]]","4","[[2,3,0],[1,0],[0]]","15","0","","","","","","7","","","","","","","","",""
"","","","","","single-stim-button","231","462253","0.0-2.0-56.4-0.4","6310b35d758f80e9cf3f4e41","A3","batch1","","705","tol_tohand","","","","tol_peg_1","705","705","0","[[3,0,0],[1,0],[0]]","5","[[2,3,0],[1,0],[0]]","15","0","","","","","","7","","","","","","","","",""
"","","","","","single-stim-button","232","462856","0.0-2.0-56.4-1.4","6310b35d758f80e9cf3f4e41","A3","batch1","","602","tol_toboard","","","","tol_peg_2","602","602","0","[[3,0,0],[1,2],[0]]","5","[[2,3,0],[1,0],[0]]","15","0","","","","","","7","","","","","","","","",""
"","","","","","single-stim-button","233","463578","0.0-2.0-56.5-0.5","6310b35d758f80e9cf3f4e41","A3","batch1","","721","tol_tohand","","","","tol_peg_1","721","721","0","[[0,0,0],[1,2],[0]]","6","[[2,3,0],[1,0],[0]]","15","0","","","","","","7","","","","","","","","",""
"","","","","","single-stim-button","234","464482","0.0-2.0-56.5-1.5","6310b35d758f80e9cf3f4e41","A3","batch1","","904","tol_toboard","","","","tol_peg_3","904","904","0","[[0,0,0],[1,2],[3]]","6","[[2,3,0],[1,0],[0]]","15","0","","","","","","7","","","","","","","","",""
"","","","","","single-stim-button","235","465404","0.0-2.0-56.6-0.6","6310b35d758f80e9cf3f4e41","A3","batch1","","922","tol_tohand","","","","tol_peg_2","922","922","0","[[0,0,0],[1,0],[3]]","7","[[2,3,0],[1,0],[0]]","15","0","","","","","","7","","","","","","","","",""
"","","","","","single-stim-button","236","466040","0.0-2.0-56.6-1.6","6310b35d758f80e9cf3f4e41","A3","batch1","","636","tol_toboard","","","","tol_peg_1","636","636","0","[[2,0,0],[1,0],[3]]","7","[[2,3,0],[1,0],[0]]","15","0","","","","","","7","","","","","","","","",""
"","","","","","single-stim-button","237","466914","0.0-2.0-56.7-0.7","6310b35d758f80e9cf3f4e41","A3","batch1","","872","tol_tohand","","","","tol_peg_3","872","872","0","[[2,0,0],[1,0],[0]]","8","[[2,3,0],[1,0],[0]]","15","0","","","","","","7","","","","","","","","",""
"","","","","","single-stim-button","238","467651","0.0-2.0-56.7-1.7","6310b35d758f80e9cf3f4e41","A3","batch1","","737","tol_toboard","","","","tol_peg_1","737","737","0","[[2,3,0],[1,0],[0]]","8","[[2,3,0],[1,0],[0]]","15","0","","","","","","7","","","","","","","","",""
"","","","","","poldrack-single-stim","239","468654","0.0-2.0-57.0","6310b35d758f80e9cf3f4e41","A3","batch1","","-1","tol_feedback","","","true","","1000","1000","500","","","","","","-1","none","true","6727","21771","","","","","","","","","",""
"","","","","","html-button-response","240","471937","0.0-2.0-58.0","6310b35d758f80e9cf3f4e41","A3","batch1","","3282.0999999940395","tol_trial_num","<div class = centerbox><p class = center-block-text>problem <strong>17</strong> out of 25 problems</p></div>","0","","","","","","","","","","","","","","","","","","","","","","","","",""
"","","","","","single-stim-button","241","473377","0.0-2.0-59.0-0.0","6310b35d758f80e9cf3f4e41","A3","batch1","","1439","tol_tohand","","","","tol_peg_1","1439","1439","0","[[1,0,0],[3,0],[0]]","1","[[3,1,0],[2,0],[0]]","16","0","","","","","","5","","","","","","","","",""
"","","","","","single-stim-button","242","476683","0.0-2.0-59.0-1.0","6310b35d758f80e9cf3f4e41","A3","batch1","","3306","tol_toboard","","","","tol_peg_3","3306","3306","0","[[1,0,0],[3,0],[2]]","1","[[3,1,0],[2,0],[0]]","16","0","","","","","","5","","","","","","","","",""
"","","","","","single-stim-button","243","480318","0.0-2.0-59.1-0.1","6310b35d758f80e9cf3f4e41","A3","batch1","","3634","tol_tohand","","","","tol_peg_2","3634","3634","0","[[1,0,0],[0,0],[2]]","2","[[3,1,0],[2,0],[0]]","16","0","","","","","","5","","","","","","","","",""
"","","","","","single-stim-button","244","481174","0.0-2.0-59.1-1.1","6310b35d758f80e9cf3f4e41","A3","batch1","","855","tol_toboard","","","","tol_peg_2","855","855","0","[[1,0,0],[3,0],[2]]","2","[[3,1,0],[2,0],[0]]","16","0","","","","","","5","","","","","","","","",""
"","","","","","single-stim-button","245","481695","0.0-2.0-59.2-0.2","6310b35d758f80e9cf3f4e41","A3","batch1","","520","tol_tohand","","","","tol_peg_2","520","520","0","[[1,0,0],[0,0],[2]]","3","[[3,1,0],[2,0],[0]]","16","0","","","","","","5","","","","","","","","",""
"","","","","","single-stim-button","246","482649","0.0-2.0-59.2-1.2","6310b35d758f80e9cf3f4e41","A3","batch1","","953","tol_toboard","","","","tol_peg_1","953","953","0","[[1,3,0],[0,0],[2]]","3","[[3,1,0],[2,0],[0]]","16","0","","","","","","5","","","","","","","","",""
"","","","","","single-stim-button","247","483753","0.0-2.0-59.3-0.3","6310b35d758f80e9cf3f4e41","A3","batch1","","1104","tol_tohand","","","","tol_peg_3","1104","1104","0","[[1,3,0],[0,0],[0]]","4","[[3,1,0],[2,0],[0]]","16","0","","","","","","5","","","","","","","","",""
"","","","","","single-stim-button","248","484391","0.0-2.0-59.3-1.3","6310b35d758f80e9cf3f4e41","A3","batch1","","637","tol_toboard","","","","tol_peg_2","637","637","0","[[1,3,0],[2,0],[0]]","4","[[3,1,0],[2,0],[0]]","16","0","","","","","","5","","","","","","","","",""
"","","","","","single-stim-button","249","485397","0.0-2.0-59.4-0.4","6310b35d758f80e9cf3f4e41","A3","batch1","","1006","tol_tohand","","","","tol_peg_1","1006","1006","0","[[1,0,0],[2,0],[0]]","5","[[3,1,0],[2,0],[0]]","16","0","","","","","","5","","","","","","","","",""
"","","","","","single-stim-button","250","486054","0.0-2.0-59.4-1.4","6310b35d758f80e9cf3f4e41","A3","batch1","","656","tol_toboard","","","","tol_peg_2","656","656","0","[[1,0,0],[2,3],[0]]","5","[[3,1,0],[2,0],[0]]","16","0","","","","","","5","","","","","","","","",""
"","","","","","single-stim-button","251","486894","0.0-2.0-59.5-0.5","6310b35d758f80e9cf3f4e41","A3","batch1","","839","tol_tohand","","","","tol_peg_1","839","839","0","[[0,0,0],[2,3],[0]]","6","[[3,1,0],[2,0],[0]]","16","0","","","","","","5","","","","","","","","",""
"","","","","","single-stim-button","252","487617","0.0-2.0-59.5-1.5","6310b35d758f80e9cf3f4e41","A3","batch1","","722","tol_toboard","","","","tol_peg_3","722","722","0","[[0,0,0],[2,3],[1]]","6","[[3,1,0],[2,0],[0]]","16","0","","","","","","5","","","","","","","","",""
"","","","","","single-stim-button","253","488439","0.0-2.0-59.6-0.6","6310b35d758f80e9cf3f4e41","A3","batch1","","822","tol_tohand","","","","tol_peg_2","822","822","0","[[0,0,0],[2,0],[1]]","7","[[3,1,0],[2,0],[0]]","16","0","","","","","","5","","","","","","","","",""
"","","","","","single-stim-button","254","489527","0.0-2.0-59.6-1.6","6310b35d758f80e9cf3f4e41","A3","batch1","","1088","tol_toboard","","","","tol_peg_1","1088","1088","0","[[3,0,0],[2,0],[1]]","7","[[3,1,0],[2,0],[0]]","16","0","","","","","","5","","","","","","","","",""
"","","","","","single-stim-button","255","490217","0.0-2.0-59.7-0.7","6310b35d758f80e9cf3f4e41","A3","batch1","","690","tol_tohand","","","","tol_peg_3","690","690","0","[[3,0,0],[2,0],[0]]","8","[[3,1,0],[2,0],[0]]","16","0","","","","","","5","","","","","","","","",""
"","","","","","single-stim-button","256","491088","0.0-2.0-59.7-1.7","6310b35d758f80e9cf3f4e41","A3","batch1","","870","tol_toboard","","","","tol_peg_1","870","870","0","[[3,1,0],[2,0],[0]]","8","[[3,1,0],[2,0],[0]]","16","0","","","","","","5","","","","","","","","",""
"","","","","","poldrack-single-stim","257","492095","0.0-2.0-60.0","6310b35d758f80e9cf3f4e41","A3","batch1","","-1","tol_feedback","","","true","","1000","1000","500","","","","","","-1","none","true","1439","10054","","","","","","","","","",""
"","","","","","html-button-response","258","495290","0.0-2.0-61.0","6310b35d758f80e9cf3f4e41","A3","batch1","","3193.5","tol_trial_num","<div class = centerbox><p class = center-block-text>problem <strong>18</strong> out of 25 problems</p></div>","0","","","","","","","","","","","","","","","","","","","","","","","","",""
"","","","","","single-stim-button","259","498506","0.0-2.0-62.0-0.0","6310b35d758f80e9cf3f4e41","A3","batch1","","3216","tol_tohand","","","","tol_peg_2","3216","3216","0","[[1,2,0],[0,0],[0]]","1","[[3,0,0],[2,0],[1]]","17","0","","","","","","5","","","","","","","","",""
"","","","","","single-stim-button","260","499165","0.0-2.0-62.0-1.0","6310b35d758f80e9cf3f4e41","A3","batch1","","658","tol_toboard","","","","tol_peg_3","658","658","0","[[1,2,0],[0,0],[3]]","1","[[3,0,0],[2,0],[1]]","17","0","","","","","","5","","","","","","","","",""
"","","","","","single-stim-button","261","499803","0.0-2.0-62.1-0.1","6310b35d758f80e9cf3f4e41","A3","batch1","","637","tol_tohand","","","","tol_peg_1","637","637","0","[[1,0,0],[0,0],[3]]","2","[[3,0,0],[2,0],[1]]","17","0","","","","","","5","","","","","","","","",""
"","","","","","single-stim-button","262","500626","0.0-2.0-62.1-1.1","6310b35d758f80e9cf3f4e41","A3","batch1","","823","tol_toboard","","","","tol_peg_2","823","823","0","[[1,0,0],[2,0],[3]]","2","[[3,0,0],[2,0],[1]]","17","0","","","","","","5","","","","","","","","",""
"","","","","","single-stim-button","263","501279","0.0-2.0-62.2-0.2","6310b35d758f80e9cf3f4e41","A3","batch1","","653","tol_tohand","","","","tol_peg_1","653","653","0","[[0,0,0],[2,0],[3]]","3","[[3,0,0],[2,0],[1]]","17","0","","","","","","5","","","","","","","","",""
"","","","","","single-stim-button","264","501850","0.0-2.0-62.2-1.2","6310b35d758f80e9cf3f4e41","A3","batch1","","570","tol_toboard","","","","tol_peg_2","570","570","0","[[0,0,0],[2,1],[3]]","3","[[3,0,0],[2,0],[1]]","17","0","","","","","","5","","","","","","","","",""
"","","","","","single-stim-button","265","502423","0.0-2.0-62.3-0.3","6310b35d758f80e9cf3f4e41","A3","batch1","","572","tol_tohand","","","","tol_peg_3","572","572","0","[[0,0,0],[2,1],[0]]","4","[[3,0,0],[2,0],[1]]","17","0","","","","","","5","","","","","","","","",""
"","","","","","single-stim-button","266","502980","0.0-2.0-62.3-1.3","6310b35d758f80e9cf3f4e41","A3","batch1","","556","tol_toboard","","","","tol_peg_1","556","556","0","[[3,0,0],[2,1],[0]]","4","[[3,0,0],[2,0],[1]]","17","0","","","","","","5","","","","","","","","",""
"","","","","","single-stim-button","267","503586","0.0-2.0-62.4-0.4","6310b35d758f80e9cf3f4e41","A3","batch1","","606","tol_tohand","","","","tol_peg_2","606","606","0","[[3,0,0],[2,0],[0]]","5","[[3,0,0],[2,0],[1]]","17","0","","","","","","5","","","","","","","","",""
"","","","","","single-stim-button","268","504322","0.0-2.0-62.4-1.4","6310b35d758f80e9cf3f4e41","A3","batch1","","736","tol_toboard","","","","tol_peg_3","736","736","0","[[3,0,0],[2,0],[1]]","5","[[3,0,0],[2,0],[1]]","17","0","","","","","","5","","","","","","","","",""
"","","","","","poldrack-single-stim","269","505330","0.0-2.0-63.0","6310b35d758f80e9cf3f4e41","A3","batch1","","-1","tol_feedback","","","true","","1000","1000","500","","","","","","-1","none","true","3216","5684","","","","","","","","","",""
"","","","","","html-button-response","270","506338","0.0-2.0-64.0","6310b35d758f80e9cf3f4e41","A3","batch1","","1007.5999999940395","tol_trial_num","<div class = centerbox><p class = center-block-text>problem <strong>19</strong> out of 25 problems</p></div>","0","","","","","","","","","","","","","","","","","","","","","","","","",""
"","","","","","single-stim-button","271","508276","0.0-2.0-65.0-0.0","6310b35d758f80e9cf3f4e41","A3","batch1","","1937","tol_tohand","","","","tol_peg_2","1937","1937","0","[[1,2,0],[0,0],[0]]","1","[[0,0,0],[1,2],[3]]","18","0","","","","","","7","","","","","","","","",""
"","","","","","single-stim-button","272","511598","0.0-2.0-65.0-1.0","6310b35d758f80e9cf3f4e41","A3","batch1","","3320","tol_toboard","","","","tol_peg_3","3320","3320","0","[[1,2,0],[0,0],[3]]","1","[[0,0,0],[1,2],[3]]","18","0","","","","","","7","","","","","","","","",""
"","","","","","single-stim-button","273","515401","0.0-2.0-65.1-0.1","6310b35d758f80e9cf3f4e41","A3","batch1","","3802","tol_tohand","","","","tol_peg_3","3802","3802","0","[[1,2,0],[0,0],[0]]","2","[[0,0,0],[1,2],[3]]","18","0","","","","","","7","","","","","","","","",""
"","","","","","single-stim-button","274","515946","0.0-2.0-65.1-1.1","6310b35d758f80e9cf3f4e41","A3","batch1","","544","tol_toboard","","","","tol_peg_2","544","544","0","[[1,2,0],[3,0],[0]]","2","[[0,0,0],[1,2],[3]]","18","0","","","","","","7","","","","","","","","",""
"","","","","","single-stim-button","275","516768","0.0-2.0-65.2-0.2","6310b35d758f80e9cf3f4e41","A3","batch1","","821","tol_tohand","","","","tol_peg_1","821","821","0","[[1,0,0],[3,0],[0]]","3","[[0,0,0],[1,2],[3]]","18","0","","","","","","7","","","","","","","","",""
"","","","","","single-stim-button","276","517488","0.0-2.0-65.2-1.2","6310b35d758f80e9cf3f4e41","A3","batch1","","720","tol_toboard","","","","tol_peg_2","720","720","0","[[1,0,0],[3,2],[0]]","3","[[0,0,0],[1,2],[3]]","18","0","","","","","","7","","","","","","","","",""
"","","","","","single-stim-button","277","518144","0.0-2.0-65.3-0.3","6310b35d758f80e9cf3f4e41","A3","batch1","","655","tol_tohand","","","","tol_peg_1","655","655","0","[[0,0,0],[3,2],[0]]","4","[[0,0,0],[1,2],[3]]","18","0","","","","","","7","","","","","","","","",""
"","","","","","single-stim-button","278","519549","0.0-2.0-65.3-1.3","6310b35d758f80e9cf3f4e41","A3","batch1","","1404","tol_toboard","","","","tol_peg_3","1404","1404","0","[[0,0,0],[3,2],[1]]","4","[[0,0,0],[1,2],[3]]","18","0","","","","","","7","","","","","","","","",""
"","","","","","single-stim-button","279","520123","0.0-2.0-65.4-0.4","6310b35d758f80e9cf3f4e41","A3","batch1","","574","tol_tohand","","","","tol_peg_2","574","574","0","[[0,0,0],[3,0],[1]]","5","[[0,0,0],[1,2],[3]]","18","0","","","","","","7","","","","","","","","",""
"","","","","","single-stim-button","280","520694","0.0-2.0-65.4-1.4","6310b35d758f80e9cf3f4e41","A3","batch1","","570","tol_toboard","","","","tol_peg_1","570","570","0","[[2,0,0],[3,0],[1]]","5","[[0,0,0],[1,2],[3]]","18","0","","","","","","7","","","","","","","","",""
"","","","","","single-stim-button","281","522504","0.0-2.0-65.5-0.5","6310b35d758f80e9cf3f4e41","A3","batch1","","1809","tol_tohand","","","","tol_peg_3","1809","1809","0","[[2,0,0],[3,0],[0]]","6","[[0,0,0],[1,2],[3]]","18","0","","","","","","7","","","","","","","","",""
"","","","","","single-stim-button","282","523161","0.0-2.0-65.5-1.5","6310b35d758f80e9cf3f4e41","A3","batch1","","656","tol_toboard","","","","tol_peg_1","656","656","0","[[2,1,0],[3,0],[0]]","6","[[0,0,0],[1,2],[3]]","18","0","","","","","","7","","","","","","","","",""
"","","","","","single-stim-button","283","523851","0.0-2.0-65.6-0.6","6310b35d758f80e9cf3f4e41","A3","batch1","","690","tol_tohand","","","","tol_peg_2","690","690","0","[[2,1,0],[0,0],[0]]","7","[[0,0,0],[1,2],[3]]","18","0","","","","","","7","","","","","","","","",""
"","","","","","single-stim-button","284","524524","0.0-2.0-65.6-1.6","6310b35d758f80e9cf3f4e41","A3","batch1","","672","tol_toboard","","","","tol_peg_3","672","672","0","[[2,1,0],[0,0],[3]]","7","[[0,0,0],[1,2],[3]]","18","0","","","","","","7","","","","","","","","",""
"","","","","","single-stim-button","285","525261","0.0-2.0-65.7-0.7","6310b35d758f80e9cf3f4e41","A3","batch1","","736","tol_tohand","","","","tol_peg_1","736","736","0","[[2,0,0],[0,0],[3]]","8","[[0,0,0],[1,2],[3]]","18","0","","","","","","7","","","","","","","","",""
"","","","","","single-stim-button","286","525917","0.0-2.0-65.7-1.7","6310b35d758f80e9cf3f4e41","A3","batch1","","656","tol_toboard","","","","tol_peg_2","656","656","0","[[2,0,0],[1,0],[3]]","8","[[0,0,0],[1,2],[3]]","18","0","","","","","","7","","","","","","","","",""
"","","","","","single-stim-button","287","526507","0.0-2.0-65.8-0.8","6310b35d758f80e9cf3f4e41","A3","batch1","","589","tol_tohand","","","","tol_peg_1","589","589","0","[[0,0,0],[1,0],[3]]","9","[[0,0,0],[1,2],[3]]","18","0","","","","","","7","","","","","","","","",""
"","","","","","single-stim-button","288","527178","0.0-2.0-65.8-1.8","6310b35d758f80e9cf3f4e41","A3","batch1","","670","tol_toboard","","","","tol_peg_2","670","670","0","[[0,0,0],[1,2],[3]]","9","[[0,0,0],[1,2],[3]]","18","0","","","","","","7","","","","","","","","",""
"","","","","","poldrack-single-stim","289","528186","0.0-2.0-66.0","6310b35d758f80e9cf3f4e41","A3","batch1","","-1","tol_feedback","","","true","","1000","1000","500","","","","","","-1","none","true","1937","11613","","","","","","","","","",""
"","","","","","html-button-response","290","529327","0.0-2.0-67.0","6310b35d758f80e9cf3f4e41","A3","batch1","","1140.0999999940395","tol_trial_num","<div class = centerbox><p class = center-block-text>problem <strong>20</strong> out of 25 problems</p></div>","0","","","","","","","","","","","","","","","","","","","","","","","","",""
"","","","","","single-stim-button","291","536999","0.0-2.0-68.0-0.0","6310b35d758f80e9cf3f4e41","A3","batch1","","7672","tol_tohand","","","","tol_peg_1","7672","7672","0","[[1,0,0],[3,0],[0]]","1","[[2,1,0],[0,0],[3]]","19","0","","","","","","5","","","","","","","","",""
"","","","","","single-stim-button","292","537621","0.0-2.0-68.0-1.0","6310b35d758f80e9cf3f4e41","A3","batch1","","621","tol_toboard","","","","tol_peg_2","621","621","0","[[1,0,0],[3,2],[0]]","1","[[2,1,0],[0,0],[3]]","19","0","","","","","","5","","","","","","","","",""
"","","","","","single-stim-button","293","538428","0.0-2.0-68.1-0.1","6310b35d758f80e9cf3f4e41","A3","batch1","","805","tol_tohand","","","","tol_peg_1","805","805","0","[[0,0,0],[3,2],[0]]","2","[[2,1,0],[0,0],[3]]","19","0","","","","","","5","","","","","","","","",""
"","","","","","single-stim-button","294","539065","0.0-2.0-68.1-1.1","6310b35d758f80e9cf3f4e41","A3","batch1","","637","tol_toboard","","","","tol_peg_3","637","637","0","[[0,0,0],[3,2],[1]]","2","[[2,1,0],[0,0],[3]]","19","0","","","","","","5","","","","","","","","",""
"","","","","","single-stim-button","295","540405","0.0-2.0-68.2-0.2","6310b35d758f80e9cf3f4e41","A3","batch1","","1340","tol_tohand","","","","tol_peg_2","1340","1340","0","[[0,0,0],[3,0],[1]]","3","[[2,1,0],[0,0],[3]]","19","0","","","","","","5","","","","","","","","",""
"","","","","","single-stim-button","296","540962","0.0-2.0-68.2-1.2","6310b35d758f80e9cf3f4e41","A3","batch1","","556","tol_toboard","","","","tol_peg_1","556","556","0","[[2,0,0],[3,0],[1]]","3","[[2,1,0],[0,0],[3]]","19","0","","","","","","5","","","","","","","","",""
"","","","","","single-stim-button","297","542066","0.0-2.0-68.3-0.3","6310b35d758f80e9cf3f4e41","A3","batch1","","1103","tol_tohand","","","","tol_peg_3","1103","1103","0","[[2,0,0],[3,0],[0]]","4","[[2,1,0],[0,0],[3]]","19","0","","","","","","5","","","","","","","","",""
"","","","","","single-stim-button","298","543155","0.0-2.0-68.3-1.3","6310b35d758f80e9cf3f4e41","A3","batch1","","1088","tol_toboard","","","","tol_peg_1","1088","1088","0","[[2,1,0],[3,0],[0]]","4","[[2,1,0],[0,0],[3]]","19","0","","","","","","5","","","","","","","","",""
"","","","","","single-stim-button","299","544093","0.0-2.0-68.4-0.4","6310b35d758f80e9cf3f4e41","A3","batch1","","937","tol_tohand","","","","tol_peg_2","937","937","0","[[2,1,0],[0,0],[0]]","5","[[2,1,0],[0,0],[3]]","19","0","","","","","","5","","","","","","","","",""
"","","","","","single-stim-button","300","544983","0.0-2.0-68.4-1.4","6310b35d758f80e9cf3f4e41","A3","batch1","","888","tol_toboard","","","","tol_peg_3","888","888","0","[[2,1,0],[0,0],[3]]","5","[[2,1,0],[0,0],[3]]","19","0","","","","","","5","","","","","","","","",""
"","","","","","poldrack-single-stim","301","545985","0.0-2.0-69.0","6310b35d758f80e9cf3f4e41","A3","batch1","","-1","tol_feedback","","","true","","1000","1000","500","","","","","","-1","none","true","7672","11857","","","","","","","","","",""
"","","","","","html-button-response","302","547229","0.0-2.0-70.0","6310b35d758f80e9cf3f4e41","A3","batch1","","1243","tol_trial_num","<div class = centerbox><p class = center-block-text>problem <strong>21</strong> out of 25 problems</p></div>","0","","","","","","","","","","","","","","","","","","","","","","","","",""
"","","","","","single-stim-button","303","560036","0.0-2.0-71.0-0.0","6310b35d758f80e9cf3f4e41","A3","batch1","","12807","tol_tohand","","","","tol_peg_2","12807","12807","0","[[1,2,0],[0,0],[0]]","1","[[3,2,0],[0,0],[1]]","20","0","","","","","","6","","","","","","","","",""
"","","","","","single-stim-button","304","560729","0.0-2.0-71.0-1.0","6310b35d758f80e9cf3f4e41","A3","batch1","","692","tol_toboard","","","","tol_peg_3","692","692","0","[[1,2,0],[0,0],[3]]","1","[[3,2,0],[0,0],[1]]","20","0","","","","","","6","","","","","","","","",""
"","","","","","single-stim-button","305","561451","0.0-2.0-71.1-0.1","6310b35d758f80e9cf3f4e41","A3","batch1","","722","tol_tohand","","","","tol_peg_1","722","722","0","[[1,0,0],[0,0],[3]]","2","[[3,2,0],[0,0],[1]]","20","0","","","","","","6","","","","","","","","",""
"","","","","","single-stim-button","306","562038","0.0-2.0-71.1-1.1","6310b35d758f80e9cf3f4e41","A3","batch1","","586","tol_toboard","","","","tol_peg_2","586","586","0","[[1,0,0],[2,0],[3]]","2","[[3,2,0],[0,0],[1]]","20","0","","","","","","6","","","","","","","","",""
"","","","","","single-stim-button","307","562960","0.0-2.0-71.2-0.2","6310b35d758f80e9cf3f4e41","A3","batch1","","921","tol_tohand","","","","tol_peg_1","921","921","0","[[0,0,0],[2,0],[3]]","3","[[3,2,0],[0,0],[1]]","20","0","","","","","","6","","","","","","","","",""
"","","","","","single-stim-button","308","563611","0.0-2.0-71.2-1.2","6310b35d758f80e9cf3f4e41","A3","batch1","","651","tol_toboard","","","","tol_peg_2","651","651","0","[[0,0,0],[2,1],[3]]","3","[[3,2,0],[0,0],[1]]","20","0","","","","","","6","","","","","","","","",""
"","","","","","single-stim-button","309","564101","0.0-2.0-71.3-0.3","6310b35d758f80e9cf3f4e41","A3","batch1","","490","tol_tohand","","","","tol_peg_3","490","490","0","[[0,0,0],[2,1],[0]]","4","[[3,2,0],[0,0],[1]]","20","0","","","","","","6","","","","","","","","",""
"","","","","","single-stim-button","310","565574","0.0-2.0-71.3-1.3","6310b35d758f80e9cf3f4e41","A3","batch1","","1471","tol_toboard","","","","tol_peg_1","1471","1471","0","[[3,0,0],[2,1],[0]]","4","[[3,2,0],[0,0],[1]]","20","0","","","","","","6","","","","","","","","",""
"","","","","","single-stim-button","311","566407","0.0-2.0-71.4-0.4","6310b35d758f80e9cf3f4e41","A3","batch1","","833","tol_tohand","","","","tol_peg_2","833","833","0","[[3,0,0],[2,0],[0]]","5","[[3,2,0],[0,0],[1]]","20","0","","","","","","6","","","","","","","","",""
"","","","","","single-stim-button","312","567228","0.0-2.0-71.4-1.4","6310b35d758f80e9cf3f4e41","A3","batch1","","820","tol_toboard","","","","tol_peg_3","820","820","0","[[3,0,0],[2,0],[1]]","5","[[3,2,0],[0,0],[1]]","20","0","","","","","","6","","","","","","","","",""
"","","","","","single-stim-button","313","568117","0.0-2.0-71.5-0.5","6310b35d758f80e9cf3f4e41","A3","batch1","","889","tol_tohand","","","","tol_peg_2","889","889","0","[[3,0,0],[0,0],[1]]","6","[[3,2,0],[0,0],[1]]","20","0","","","","","","6","","","","","","","","",""
"","","","","","single-stim-button","314","568737","0.0-2.0-71.5-1.5","6310b35d758f80e9cf3f4e41","A3","batch1","","620","tol_toboard","","","","tol_peg_1","620","620","0","[[3,2,0],[0,0],[1]]","6","[[3,2,0],[0,0],[1]]","20","0","","","","","","6","","","","","","","","",""
"","","","","","poldrack-single-stim","315","569748","0.0-2.0-72.0","6310b35d758f80e9cf3f4e41","A3","batch1","","-1","tol_feedback","","","true","","1000","1000","500","","","","","","-1","none","true","12807","16662","","","","","","","","","",""
"","","","","","html-button-response","316","571159","0.0-2.0-73.0","6310b35d758f80e9cf3f4e41","A3","batch1","","1409.9000000059605","tol_trial_num","<div class = centerbox><p class = center-block-text>problem <strong>22</strong> out of 25 problems</p></div>","0","","","","","","","","","","","","","","","","","","","","","","","","",""
"","","","","","single-stim-button","317","576634","0.0-2.0-74.0-0.0","6310b35d758f80e9cf3f4e41","A3","batch1","","5475","tol_tohand","","","","tol_peg_2","5475","5475","0","[[1,0,0],[2,0],[0]]","1","[[0,0,0],[1,2],[3]]","21","0","","","","","","6","","","","","","","","",""
"","","","","","single-stim-button","318","585943","0.0-2.0-74.0-1.0","6310b35d758f80e9cf3f4e41","A3","batch1","","9307","tol_toboard","","","","tol_peg_2","9307","9307","0","[[1,0,0],[2,3],[0]]","1","[[0,0,0],[1,2],[3]]","21","0","","","","","","6","","","","","","","","",""
"","","","","","single-stim-button","319","586848","0.0-2.0-74.1-0.1","6310b35d758f80e9cf3f4e41","A3","batch1","","905","tol_tohand","","","","tol_peg_1","905","905","0","[[0,0,0],[2,3],[0]]","2","[[0,0,0],[1,2],[3]]","21","0","","","","","","6","","","","","","","","",""
"","","","","","single-stim-button","320","587970","0.0-2.0-74.1-1.1","6310b35d758f80e9cf3f4e41","A3","batch1","","1122","tol_toboard","","","","tol_peg_3","1122","1122","0","[[0,0,0],[2,3],[1]]","2","[[0,0,0],[1,2],[3]]","21","0","","","","","","6","","","","","","","","",""
"","","","","","single-stim-button","321","588976","0.0-2.0-74.2-0.2","6310b35d758f80e9cf3f4e41","A3","batch1","","1005","tol_tohand","","","","tol_peg_2","1005","1005","0","[[0,0,0],[2,0],[1]]","3","[[0,0,0],[1,2],[3]]","21","0","","","","","","6","","","","","","","","",""
"","","","","","single-stim-button","322","589715","0.0-2.0-74.2-1.2","6310b35d758f80e9cf3f4e41","A3","batch1","","739","tol_toboard","","","","tol_peg_1","739","739","0","[[3,0,0],[2,0],[1]]","3","[[0,0,0],[1,2],[3]]","21","0","","","","","","6","","","","","","","","",""
"","","","","","single-stim-button","323","590455","0.0-2.0-74.3-0.3","6310b35d758f80e9cf3f4e41","A3","batch1","","738","tol_tohand","","","","tol_peg_2","738","738","0","[[3,0,0],[0,0],[1]]","4","[[0,0,0],[1,2],[3]]","21","0","","","","","","6","","","","","","","","",""
"","","","","","single-stim-button","324","591077","0.0-2.0-74.3-1.3","6310b35d758f80e9cf3f4e41","A3","batch1","","622","tol_toboard","","","","tol_peg_1","622","622","0","[[3,2,0],[0,0],[1]]","4","[[0,0,0],[1,2],[3]]","21","0","","","","","","6","","","","","","","","",""
"","","","","","single-stim-button","325","592201","0.0-2.0-74.4-0.4","6310b35d758f80e9cf3f4e41","A3","batch1","","1123","tol_tohand","","","","tol_peg_3","1123","1123","0","[[3,2,0],[0,0],[0]]","5","[[0,0,0],[1,2],[3]]","21","0","","","","","","6","","","","","","","","",""
"","","","","","single-stim-button","326","593057","0.0-2.0-74.4-1.4","6310b35d758f80e9cf3f4e41","A3","batch1","","855","tol_toboard","","","","tol_peg_2","855","855","0","[[3,2,0],[1,0],[0]]","5","[[0,0,0],[1,2],[3]]","21","0","","","","","","6","","","","","","","","",""
"","","","","","single-stim-button","327","593669","0.0-2.0-74.5-0.5","6310b35d758f80e9cf3f4e41","A3","batch1","","611","tol_tohand","","","","tol_peg_1","611","611","0","[[3,0,0],[1,0],[0]]","6","[[0,0,0],[1,2],[3]]","21","0","","","","","","6","","","","","","","","",""
"","","","","","single-stim-button","328","594506","0.0-2.0-74.5-1.5","6310b35d758f80e9cf3f4e41","A3","batch1","","837","tol_toboard","","","","tol_peg_2","837","837","0","[[3,0,0],[1,2],[0]]","6","[[0,0,0],[1,2],[3]]","21","0","","","","","","6","","","","","","","","",""
"","","","","","single-stim-button","329","595279","0.0-2.0-74.6-0.6","6310b35d758f80e9cf3f4e41","A3","batch1","","772","tol_tohand","","","","tol_peg_1","772","772","0","[[0,0,0],[1,2],[0]]","7","[[0,0,0],[1,2],[3]]","21","0","","","","","","6","","","","","","","","",""
"","","","","","single-stim-button","330","596151","0.0-2.0-74.6-1.6","6310b35d758f80e9cf3f4e41","A3","batch1","","871","tol_toboard","","","","tol_peg_3","871","871","0","[[0,0,0],[1,2],[3]]","7","[[0,0,0],[1,2],[3]]","21","0","","","","","","6","","","","","","","","",""
"","","","","","poldrack-single-stim","331","597154","0.0-2.0-75.0","6310b35d758f80e9cf3f4e41","A3","batch1","","-1","tol_feedback","","","true","","1000","1000","500","","","","","","-1","none","true","5475","10629","","","","","","","","","",""
"","","","","","html-button-response","332","598651","0.0-2.0-76.0","6310b35d758f80e9cf3f4e41","A3","batch1","","1496.5","tol_trial_num","<div class = centerbox><p class = center-block-text>problem <strong>23</strong> out of 25 problems</p></div>","0","","","","","","","","","","","","","","","","","","","","","","","","",""
"","","","","","single-stim-button","333","601618","0.0-2.0-77.0-0.0","6310b35d758f80e9cf3f4e41","A3","batch1","","2966","tol_tohand","","","","tol_peg_1","2966","2966","0","[[1,0,0],[3,0],[0]]","1","[[1,3,2],[0,0],[0]]","22","0","","","","","","3","","","","","","","","",""
"","","","","","single-stim-button","334","602807","0.0-2.0-77.0-1.0","6310b35d758f80e9cf3f4e41","A3","batch1","","1189","tol_toboard","","","","tol_peg_3","1189","1189","0","[[1,0,0],[3,0],[2]]","1","[[1,3,2],[0,0],[0]]","22","0","","","","","","3","","","","","","","","",""
"","","","","","single-stim-button","335","603542","0.0-2.0-77.1-0.1","6310b35d758f80e9cf3f4e41","A3","batch1","","734","tol_tohand","","","","tol_peg_2","734","734","0","[[1,0,0],[0,0],[2]]","2","[[1,3,2],[0,0],[0]]","22","0","","","","","","3","","","","","","","","",""
"","","","","","single-stim-button","336","604132","0.0-2.0-77.1-1.1","6310b35d758f80e9cf3f4e41","A3","batch1","","589","tol_toboard","","","","tol_peg_1","589","589","0","[[1,3,0],[0,0],[2]]","2","[[1,3,2],[0,0],[0]]","22","0","","","","","","3","","","","","","","","",""
"","","","","","single-stim-button","337","605070","0.0-2.0-77.2-0.2","6310b35d758f80e9cf3f4e41","A3","batch1","","937","tol_tohand","","","","tol_peg_3","937","937","0","[[1,3,0],[0,0],[0]]","3","[[1,3,2],[0,0],[0]]","22","0","","","","","","3","","","","","","","","",""
"","","","","","single-stim-button","338","606111","0.0-2.0-77.2-1.2","6310b35d758f80e9cf3f4e41","A3","batch1","","1040","tol_toboard","","","","tol_peg_1","1040","1040","0","[[1,3,2],[0,0],[0]]","3","[[1,3,2],[0,0],[0]]","22","0","","","","","","3","","","","","","","","",""
"","","","","","poldrack-single-stim","339","607117","0.0-2.0-78.0","6310b35d758f80e9cf3f4e41","A3","batch1","","-1","tol_feedback","","","true","","1000","1000","500","","","","","","-1","none","true","2966","4637","","","","","","","","","",""
"","","","","","html-button-response","340","608437","0.0-2.0-79.0","6310b35d758f80e9cf3f4e41","A3","batch1","","1319.3999999761581","tol_trial_num","<div class = centerbox><p class = center-block-text>problem <strong>24</strong> out of 25 problems</p></div>","0","","","","","","","","","","","","","","","","","","","","","","","","",""
"","","","","","single-stim-button","341","611996","0.0-2.0-80.0-0.0","6310b35d758f80e9cf3f4e41","A3","batch1","","3559","tol_tohand","","","","tol_peg_3","3559","3559","0","[[0,0,0],[2,3],[0]]","1","[[2,0,0],[3,0],[1]]","23","0","","","","","","7","","","","","","","","",""
"","","","","","single-stim-button","342","613150","0.0-2.0-80.0-1.0","6310b35d758f80e9cf3f4e41","A3","batch1","","1152","tol_toboard","","","","tol_peg_1","1152","1152","0","[[1,0,0],[2,3],[0]]","1","[[2,0,0],[3,0],[1]]","23","0","","","","","","7","","","","","","","","",""
"","","","","","single-stim-button","343","613777","0.0-2.0-80.1-0.1","6310b35d758f80e9cf3f4e41","A3","batch1","","627","tol_tohand","","","","tol_peg_2","627","627","0","[[1,0,0],[2,0],[0]]","2","[[2,0,0],[3,0],[1]]","23","0","","","","","","7","","","","","","","","",""
"","","","","","single-stim-button","344","614982","0.0-2.0-80.1-1.1","6310b35d758f80e9cf3f4e41","A3","batch1","","1205","tol_toboard","","","","tol_peg_3","1205","1205","0","[[1,0,0],[2,0],[3]]","2","[[2,0,0],[3,0],[1]]","23","0","","","","","","7","","","","","","","","",""
"","","","","","single-stim-button","345","618139","0.0-2.0-80.2-0.2","6310b35d758f80e9cf3f4e41","A3","batch1","","3156","tol_tohand","","","","tol_peg_2","3156","3156","0","[[1,0,0],[0,0],[3]]","3","[[2,0,0],[3,0],[1]]","23","0","","","","","","7","","","","","","","","",""
"","","","","","single-stim-button","346","619344","0.0-2.0-80.2-1.2","6310b35d758f80e9cf3f4e41","A3","batch1","","1205","tol_toboard","","","","tol_peg_2","1205","1205","0","[[1,0,0],[2,0],[3]]","3","[[2,0,0],[3,0],[1]]","23","0","","","","","","7","","","","","","","","",""
"","","","","","single-stim-button","347","626895","0.0-2.0-80.3-0.3","6310b35d758f80e9cf3f4e41","A3","batch1","","7550","tol_tohand","","","","tol_peg_3","7550","7550","0","[[1,0,0],[2,0],[0]]","4","[[2,0,0],[3,0],[1]]","23","0","","","","","","7","","","","","","","","",""
"","","","","","single-stim-button","348","627469","0.0-2.0-80.3-1.3","6310b35d758f80e9cf3f4e41","A3","batch1","","573","tol_toboard","","","","tol_peg_2","573","573","0","[[1,0,0],[2,3],[0]]","4","[[2,0,0],[3,0],[1]]","23","0","","","","","","7","","","","","","","","",""
"","","","","","single-stim-button","349","629026","0.0-2.0-80.4-0.4","6310b35d758f80e9cf3f4e41","A3","batch1","","1556","tol_tohand","","","","tol_peg_1","1556","1556","0","[[0,0,0],[2,3],[0]]","5","[[2,0,0],[3,0],[1]]","23","0","","","","","","7","","","","","","","","",""
"","","","","","single-stim-button","350","630017","0.0-2.0-80.4-1.4","6310b35d758f80e9cf3f4e41","A3","batch1","","990","tol_toboard","","","","tol_peg_3","990","990","0","[[0,0,0],[2,3],[1]]","5","[[2,0,0],[3,0],[1]]","23","0","","","","","","7","","","","","","","","",""
"","","","","","single-stim-button","351","630789","0.0-2.0-80.5-0.5","6310b35d758f80e9cf3f4e41","A3","batch1","","771","tol_tohand","","","","tol_peg_2","771","771","0","[[0,0,0],[2,0],[1]]","6","[[2,0,0],[3,0],[1]]","23","0","","","","","","7","","","","","","","","",""
"","","","","","single-stim-button","352","631843","0.0-2.0-80.5-1.5","6310b35d758f80e9cf3f4e41","A3","batch1","","1054","tol_toboard","","","","tol_peg_1","1054","1054","0","[[3,0,0],[2,0],[1]]","6","[[2,0,0],[3,0],[1]]","23","0","","","","","","7","","","","","","","","",""
"","","","","","single-stim-button","353","634564","0.0-2.0-80.6-0.6","6310b35d758f80e9cf3f4e41","A3","batch1","","2720","tol_tohand","","","","tol_peg_3","2720","2720","0","[[3,0,0],[2,0],[0]]","7","[[2,0,0],[3,0],[1]]","23","0","","","","","","7","","","","","","","","",""
"","","","","","single-stim-button","354","635618","0.0-2.0-80.6-1.6","6310b35d758f80e9cf3f4e41","A3","batch1","","1053","tol_toboard","","","","tol_peg_1","1053","1053","0","[[3,1,0],[2,0],[0]]","7","[[2,0,0],[3,0],[1]]","23","0","","","","","","7","","","","","","","","",""
"","","","","","single-stim-button","355","636241","0.0-2.0-80.7-0.7","6310b35d758f80e9cf3f4e41","A3","batch1","","623","tol_tohand","","","","tol_peg_2","623","623","0","[[3,1,0],[0,0],[0]]","8","[[2,0,0],[3,0],[1]]","23","0","","","","","","7","","","","","","","","",""
"","","","","","single-stim-button","356","636867","0.0-2.0-80.7-1.7","6310b35d758f80e9cf3f4e41","A3","batch1","","626","tol_toboard","","","","tol_peg_3","626","626","0","[[3,1,0],[0,0],[2]]","8","[[2,0,0],[3,0],[1]]","23","0","","","","","","7","","","","","","","","",""
