"success","timeout","failed_images","failed_audio","failed_video","trial_type","trial_index","time_elapsed","internal_node_id","subject_id","study_id","session_id","view_history","rt","stimulus","response","task","correct","answer","item","fiar_detect_rt","fiar_detect_correct","total_correct_fiar_detect","post_trial_gap","choices","spm_correct","spm_rt","mouse_click","stim_duration","block_duration","timing_post_trial","current_position","tol_num_moves_made","tol_target","tol_problem_id","tol_rt","key_press","possible_responses","tol_correct","preplanning","tol_rt_per_trial","tol_min_moves"
"true","false","[]","[]","[]","preload","0","8553","0.0-0.0","6312503220c83c0fac50a090","F1","batch6","","","","","","","","","","","","","","","","","","","","","","","","","","","","","",""
"true","","","","","fullscreen","1","34270","0.0-1.0-0.0","6312503220c83c0fac50a090","F1","batch6","","","","","","","","","","","","","","","","","","","","","","","","","","","","","",""
"true","","","","","fullscreen","2","41333","0.0-2.0-0.0","6312503220c83c0fac50a090","F1","batch6","","","","","","","","","","","","","","","","","","","","","","","","","","","","","",""
"","","","","","instructions","3","80386","0.0-2.0-1.0-0.0","6312503220c83c0fac50a090","F1","batch6","[{""page_index"":0,""viewing_time"":22801.599999964237},{""page_index"":1,""viewing_time"":16245.100000023842}]","39047.09999996424","","","","","","","","","","","","","","","","","","","","","","","","","","","",""
"","","","","","html-button-response","4","82279","0.0-2.0-1.0-1.0-0.0","6312503220c83c0fac50a090","F1","batch6","","1891.3999999761581","<p class=block-text> Let's answer a few questions <br>","0","pattern_enter_quiz","","","","","","","","","","","","","","","","","","","","","","","","",""
"","","","","","html-button-response","5","88696","0.0-2.0-1.0-1.0-1.0","6312503220c83c0fac50a090","F1","batch6","","6415","<p class = block-text>True or False: You will have as much time as you want to make each choice. <br></p>","1","pattern_quiz","true","","","","","","","","","","","","","","","","","","","","","","","",""
"","","","","","html-button-response","6","90876","0.0-2.0-1.0-1.0-2.0","6312503220c83c0fac50a090","F1","batch6","","2177.699999988079","<p class = block-text>Correct! You should make your choice <strong> as fast as you can</strong>.</p>","0","pattern_quiz_feedback","","","","","","","","","","","","","","","","","","","","","","","","",""
"","","","","","html-button-response","7","97341","0.0-2.0-1.0-1.0-3.0","6312503220c83c0fac50a090","F1","batch6","","6463.600000023842","<p class = block-text>True or False: You will look for 4 pieces in black or white color connected in a row either horizontally, vertically or diagonally. <br></p>","0","pattern_quiz","true","","","","","","","","","","","","","","","","","","","","","","","",""
"","","","","","html-button-response","8","98494","0.0-2.0-1.0-1.0-4.0","6312503220c83c0fac50a090","F1","batch6","","1151.300000011921","<p class = block-text>Correct! </p>","0","pattern_quiz_feedback","","","","","","","","","","","","","","","","","","","","","","","","",""
"","","","","","html-button-response","9","100839","0.0-2.0-2.0","6312503220c83c0fac50a090","F1","batch6","","2342.800000011921","<p class=block-text> Now that you've understood the game, let's do a few practice trials before we start!<br> <br>","0","pattern_enter_practice","","","","","","","","","","","","","","","","","","","","","","","","",""
"","","","","","image-keyboard-response","10","102950","0.0-2.0-3.0-0.0","6312503220c83c0fac50a090","F1","batch6","","2108.199999988079","stim/prac_no_18_1.png","j","pattern_practice","true","j","","","","","","","","","","","","","","","","","","","","","","",""
"","","","","","html-keyboard-response","11","103973","0.0-2.0-3.0-1.0","6312503220c83c0fac50a090","F1","batch6","","null","<p style=""font-size:30px;color:green;"">Correct!</p>","null","pattern_feedback","","","","","","","","","","","","","","","","","","","","","","","","",""
"","","","","","image-keyboard-response","12","104971","0.0-2.0-3.0-0.1","6312503220c83c0fac50a090","F1","batch6","","996.1999999880791","stim/prac_yes_16_ver_w1.png","f","pattern_practice","true","f","","","","","","","","","","","","","","","","","","","","","","",""
"","","","","","html-keyboard-response","13","105990","0.0-2.0-3.0-1.1","6312503220c83c0fac50a090","F1","batch6","","null","<p style=""font-size:30px;color:green;"">Correct!</p>","null","pattern_feedback","","","","","","","","","","","","","","","","","","","","","","","","",""
"","","","","","image-keyboard-response","14","106737","0.0-2.0-3.0-0.2","6312503220c83c0fac50a090","F1","batch6","","744.6999999880791","stim/prac_yes_18_hor_w1.png","f","pattern_practice","true","f","","","","","","","","","","","","","","","","","","","","","","",""
"","","","","","html-keyboard-response","15","107764","0.0-2.0-3.0-1.2","6312503220c83c0fac50a090","F1","batch6","","null","<p style=""font-size:30px;color:green;"">Correct!</p>","null","pattern_feedback","","","","","","","","","","","","","","","","","","","","","","","","",""
"","","","","","image-keyboard-response","16","108899","0.0-2.0-3.0-0.3","6312503220c83c0fac50a090","F1","batch6","","1132.5","stim/prac_yes_20_dia_b1.png","f","pattern_practice","true","f","","","","","","","","","","","","","","","","","","","","","","",""
"","","","","","html-keyboard-response","17","109910","0.0-2.0-3.0-1.3","6312503220c83c0fac50a090","F1","batch6","","null","<p style=""font-size:30px;color:green;"">Correct!</p>","null","pattern_feedback","","","","","","","","","","","","","","","","","","","","","","","","",""
"","","","","","image-keyboard-response","18","111422","0.0-2.0-3.0-0.4","6312503220c83c0fac50a090","F1","batch6","","1503.6000000238419","stim/prac_no_16_1.png","j","pattern_practice","true","j","","","","","","","","","","","","","","","","","","","","","","",""
"","","","","","html-keyboard-response","19","112443","0.0-2.0-3.0-1.4","6312503220c83c0fac50a090","F1","batch6","","null","<p style=""font-size:30px;color:green;"">Correct!</p>","null","pattern_feedback","","","","","","","","","","","","","","","","","","","","","","","","",""
"","","","","","html-button-response","20","118678","0.0-2.0-4.0","6312503220c83c0fac50a090","F1","batch6","","6232.199999988079","<p class=block-text> Good job! You are done with practice trials!<br>
        You responded correctly on 100% of the trials.<br>
        Press the button below to start official trials. Now you won't see any feedback about your response</p>","0","pattern_enter_official_trials","","","","","","","","","","","","","","","","","","","","","","","","",""
"","","","","","html-keyboard-response","21","119491","0.0-2.0-5.0-0.0","6312503220c83c0fac50a090","F1","batch6","","null","<p class=block-text>Trial 1 out of 78</p>","null","pattern_show_trial_num","","","","","","","","","","","","","","","","","","","","","","","","",""
"","","","","","image-keyboard-response","22","120502","0.0-2.0-5.0-1.0","6312503220c83c0fac50a090","F1","batch6","","1008","stim/yes_36_ver_w1_w.png","j","pattern_response","false","f","pattern_58","1008","false","0","","","","","","","","","","","","","","","","","","",""
"","","","","","html-keyboard-response","23","121817","0.0-2.0-5.0-0.1","6312503220c83c0fac50a090","F1","batch6","","null","<p class=block-text>Trial 2 out of 78</p>","null","pattern_show_trial_num","","","","","","","","","","","","","","","","","","","","","","","","",""
"","","","","","image-keyboard-response","24","123505","0.0-2.0-5.0-1.1","6312503220c83c0fac50a090","F1","batch6","","1685.699999988079","stim/no_47_1_b.png","j","pattern_response","true","j","pattern_27","1685.699999988079","true","1","","","","","","","","","","","","","","","","","","",""
"","","","","","html-keyboard-response","25","124832","0.0-2.0-5.0-0.2","6312503220c83c0fac50a090","F1","batch6","","null","<p class=block-text>Trial 3 out of 78</p>","null","pattern_show_trial_num","","","","","","","","","","","","","","","","","","","","","","","","",""
"","","","","","image-keyboard-response","26","129480","0.0-2.0-5.0-1.2","6312503220c83c0fac50a090","F1","batch6","","4645.200000047684","stim/no_53_1_b.png","j","pattern_response","true","j","pattern_33","4645.200000047684","true","2","","","","","","","","","","","","","","","","","","",""
"","","","","","html-keyboard-response","27","130808","0.0-2.0-5.0-0.3","6312503220c83c0fac50a090","F1","batch6","","null","<p class=block-text>Trial 4 out of 78</p>","null","pattern_show_trial_num","","","","","","","","","","","","","","","","","","","","","","","","",""
"","","","","","image-keyboard-response","28","134613","0.0-2.0-5.0-1.3","6312503220c83c0fac50a090","F1","batch6","","3802.899999976158","stim/no_25_1_b.png","j","pattern_response","true","j","pattern_09","3802.899999976158","true","3","","","","","","","","","","","","","","","","","","",""
"","","","","","html-keyboard-response","29","135922","0.0-2.0-5.0-0.4","6312503220c83c0fac50a090","F1","batch6","","null","<p class=block-text>Trial 5 out of 78</p>","null","pattern_show_trial_num","","","","","","","","","","","","","","","","","","","","","","","","",""
"","","","","","image-keyboard-response","30","137564","0.0-2.0-5.0-1.4","6312503220c83c0fac50a090","F1","batch6","","1639.1000000238419","stim/yes_53_ver_b1_b.png","f","pattern_response","true","f","pattern_74","1639.1000000238419","true","4","","","","","","","","","","","","","","","","","","",""
"","","","","","html-keyboard-response","31","138889","0.0-2.0-5.0-0.5","6312503220c83c0fac50a090","F1","batch6","","null","<p class=block-text>Trial 6 out of 78</p>","null","pattern_show_trial_num","","","","","","","","","","","","","","","","","","","","","","","","",""
"","","","","","image-keyboard-response","32","140021","0.0-2.0-5.0-1.5","6312503220c83c0fac50a090","F1","batch6","","1129","stim/yes_46_ver_b1_b.png","f","pattern_response","true","f","pattern_68","1129","true","5","","","","","","","","","","","","","","","","","","",""
"","","","","","html-keyboard-response","33","141353","0.0-2.0-5.0-0.6","6312503220c83c0fac50a090","F1","batch6","","null","<p class=block-text>Trial 7 out of 78</p>","null","pattern_show_trial_num","","","","","","","","","","","","","","","","","","","","","","","","",""
"","","","","","image-keyboard-response","34","145390","0.0-2.0-5.0-1.6","6312503220c83c0fac50a090","F1","batch6","","4035.800000011921","stim/no_49_2_b.png","j","pattern_response","true","j","pattern_29","4035.800000011921","true","6","","","","","","","","","","","","","","","","","","",""
"","","","","","html-keyboard-response","35","146712","0.0-2.0-5.0-0.7","6312503220c83c0fac50a090","F1","batch6","","null","<p class=block-text>Trial 8 out of 78</p>","null","pattern_show_trial_num","","","","","","","","","","","","","","","","","","","","","","","","",""
"","","","","","image-keyboard-response","36","148711","0.0-2.0-5.0-1.7","6312503220c83c0fac50a090","F1","batch6","","1997.6000000238419","stim/no_30_1_b.png","j","pattern_response","true","j","pattern_13","1997.6000000238419","true","7","","","","","","","","","","","","","","","","","","",""
"","","","","","html-keyboard-response","37","150033","0.0-2.0-5.0-0.8","6312503220c83c0fac50a090","F1","batch6","","null","<p class=block-text>Trial 9 out of 78</p>","null","pattern_show_trial_num","","","","","","","","","","","","","","","","","","","","","","","","",""
"","","","","","image-keyboard-response","38","154275","0.0-2.0-5.0-1.8","6312503220c83c0fac50a090","F1","batch6","","4239.600000023842","stim/no_58_1_w.png","j","pattern_response","true","j","pattern_35","4239.600000023842","true","8","","","","","","","","","","","","","","","","","","",""
"","","","","","html-keyboard-response","39","155599","0.0-2.0-5.0-0.9","6312503220c83c0fac50a090","F1","batch6","","null","<p class=block-text>Trial 10 out of 78</p>","null","pattern_show_trial_num","","","","","","","","","","","","","","","","","","","","","","","","",""
"","","","","","image-keyboard-response","40","156939","0.0-2.0-5.0-1.9","6312503220c83c0fac50a090","F1","batch6","","1338.1000000238419","stim/no_18_1_b.png","j","pattern_response","true","j","pattern_05","1338.1000000238419","true","9","","","","","","","","","","","","","","","","","","",""
"","","","","","html-keyboard-response","41","158248","0.0-2.0-5.0-0.10","6312503220c83c0fac50a090","F1","batch6","","null","<p class=block-text>Trial 11 out of 78</p>","null","pattern_show_trial_num","","","","","","","","","","","","","","","","","","","","","","","","",""
"","","","","","image-keyboard-response","42","159260","0.0-2.0-5.0-1.10","6312503220c83c0fac50a090","F1","batch6","","1009.6999999880791","stim/yes_49_hor_w1_b.png","f","pattern_response","true","f","pattern_70","1009.6999999880791","true","10","","","","","","","","","","","","","","","","","","",""
"","","","","","html-keyboard-response","43","160572","0.0-2.0-5.0-0.11","6312503220c83c0fac50a090","F1","batch6","","null","<p class=block-text>Trial 12 out of 78</p>","null","pattern_show_trial_num","","","","","","","","","","","","","","","","","","","","","","","","",""
"","","","","","image-keyboard-response","44","163031","0.0-2.0-5.0-1.11","6312503220c83c0fac50a090","F1","batch6","","2456.300000011921","stim/no_33_1_b.png","j","pattern_response","true","j","pattern_15","2456.300000011921","true","11","","","","","","","","","","","","","","","","","","",""
"","","","","","html-keyboard-response","45","164359","0.0-2.0-5.0-0.12","6312503220c83c0fac50a090","F1","batch6","","null","<p class=block-text>Trial 13 out of 78</p>","null","pattern_show_trial_num","","","","","","","","","","","","","","","","","","","","","","","","",""
"","","","","","image-keyboard-response","46","166113","0.0-2.0-5.0-1.12","6312503220c83c0fac50a090","F1","batch6","","1751.699999988079","stim/no_22_1_b.png","j","pattern_response","true","j","pattern_07","1751.699999988079","true","12","","","","","","","","","","","","","","","","","","",""
"","","","","","html-keyboard-response","47","167434","0.0-2.0-5.0-0.13","6312503220c83c0fac50a090","F1","batch6","","null","<p class=block-text>Trial 14 out of 78</p>","null","pattern_show_trial_num","","","","","","","","","","","","","","","","","","","","","","","","",""
"","","","","","image-keyboard-response","48","168446","0.0-2.0-5.0-1.13","6312503220c83c0fac50a090","F1","batch6","","1010.0999999642372","stim/yes_70_ver_b1.png","f","pattern_response","true","f","pattern_80","1010.0999999642372","true","13","","","","","","","","","","","","","","","","","","",""
"","","","","","html-keyboard-response","49","169756","0.0-2.0-5.0-0.14","6312503220c83c0fac50a090","F1","batch6","","null","<p class=block-text>Trial 15 out of 78</p>","null","pattern_show_trial_num","","","","","","","","","","","","","","","","","","","","","","","","",""
"","","","","","image-keyboard-response","50","176031","0.0-2.0-5.0-1.14","6312503220c83c0fac50a090","F1","batch6","","6273.300000011921","stim/yes_63_dia_b1.png","f","pattern_response","true","f","pattern_78","6273.300000011921","true","14","","","","","","","","","","","","","","","","","","",""
"","","","","","html-keyboard-response","51","177350","0.0-2.0-5.0-0.15","6312503220c83c0fac50a090","F1","batch6","","null","<p class=block-text>Trial 16 out of 78</p>","null","pattern_show_trial_num","","","","","","","","","","","","","","","","","","","","","","","","",""
"","","","","","image-keyboard-response","52","180559","0.0-2.0-5.0-1.15","6312503220c83c0fac50a090","F1","batch6","","3212.900000035763","stim/no_45_1_w.png","j","pattern_response","true","j","pattern_25","3212.900000035763","true","15","","","","","","","","","","","","","","","","","","",""
"","","","","","html-keyboard-response","53","181887","0.0-2.0-5.0-0.16","6312503220c83c0fac50a090","F1","batch6","","null","<p class=block-text>Trial 17 out of 78</p>","null","pattern_show_trial_num","","","","","","","","","","","","","","","","","","","","","","","","",""
"","","","","","image-keyboard-response","54","186250","0.0-2.0-5.0-1.16","6312503220c83c0fac50a090","F1","batch6","","4360.100000023842","stim/yes_51_dia_b1.png","j","pattern_response","false","f","pattern_72","4360.100000023842","false","15","","","","","","","","","","","","","","","","","","",""
"","","","","","html-keyboard-response","55","187565","0.0-2.0-5.0-0.17","6312503220c83c0fac50a090","F1","batch6","","null","<p class=block-text>Trial 18 out of 78</p>","null","pattern_show_trial_num","","","","","","","","","","","","","","","","","","","","","","","","",""
"","","","","","image-keyboard-response","56","188671","0.0-2.0-5.0-1.17","6312503220c83c0fac50a090","F1","batch6","","1102.800000011921","stim/yes_30_ver_b1_b.png","f","pattern_response","true","f","pattern_54","1102.800000011921","true","16","","","","","","","","","","","","","","","","","","",""
"","","","","","html-keyboard-response","57","189976","0.0-2.0-5.0-0.18","6312503220c83c0fac50a090","F1","batch6","","null","<p class=block-text>Trial 19 out of 78</p>","null","pattern_show_trial_num","","","","","","","","","","","","","","","","","","","","","","","","",""
"","","","","","image-keyboard-response","58","190958","0.0-2.0-5.0-1.18","6312503220c83c0fac50a090","F1","batch6","","981.1999999880791","stim/no_12_1.png","j","pattern_response","true","j","pattern_01","981.1999999880791","true","17","","","","","","","","","","","","","","","","","","",""
"","","","","","html-keyboard-response","59","192274","0.0-2.0-5.0-0.19","6312503220c83c0fac50a090","F1","batch6","","null","<p class=block-text>Trial 20 out of 78</p>","null","pattern_show_trial_num","","","","","","","","","","","","","","","","","","","","","","","","",""
"","","","","","image-keyboard-response","60","193358","0.0-2.0-5.0-1.19","6312503220c83c0fac50a090","F1","batch6","","1082.2999999523163","stim/yes_26_dia_w2_w.png","f","pattern_response","true","f","pattern_50","1082.2999999523163","true","18","","","","","","","","","","","","","","","","","","",""
"","","","","","html-keyboard-response","61","194671","0.0-2.0-5.0-0.20","6312503220c83c0fac50a090","F1","batch6","","null","<p class=block-text>Trial 21 out of 78</p>","null","pattern_show_trial_num","","","","","","","","","","","","","","","","","","","","","","","","",""
"","","","","","image-keyboard-response","62","198315","0.0-2.0-5.0-1.20","6312503220c83c0fac50a090","F1","batch6","","3642.699999988079","stim/no_36_1_b.png","j","pattern_response","true","j","pattern_17","3642.699999988079","true","19","","","","","","","","","","","","","","","","","","",""
"","","","","","html-keyboard-response","63","199638","0.0-2.0-5.0-0.21","6312503220c83c0fac50a090","F1","batch6","","null","<p class=block-text>Trial 22 out of 78</p>","null","pattern_show_trial_num","","","","","","","","","","","","","","","","","","","","","","","","",""
"","","","","","image-keyboard-response","64","201808","0.0-2.0-5.0-1.21","6312503220c83c0fac50a090","F1","batch6","","2168","stim/no_39_1_w.png","j","pattern_response","true","j","pattern_21","2168","true","20","","","","","","","","","","","","","","","","","","",""
"","","","","","html-keyboard-response","65","203116","0.0-2.0-5.0-0.22","6312503220c83c0fac50a090","F1","batch6","","null","<p class=block-text>Trial 23 out of 78</p>","null","pattern_show_trial_num","","","","","","","","","","","","","","","","","","","","","","","","",""
"","","","","","image-keyboard-response","66","208788","0.0-2.0-5.0-1.22","6312503220c83c0fac50a090","F1","batch6","","5670.199999988079","stim/no_51_1.png","j","pattern_response","true","j","pattern_31","5670.199999988079","true","21","","","","","","","","","","","","","","","","","","",""
"","","","","","html-keyboard-response","67","210107","0.0-2.0-5.0-0.23","6312503220c83c0fac50a090","F1","batch6","","null","<p class=block-text>Trial 24 out of 78</p>","null","pattern_show_trial_num","","","","","","","","","","","","","","","","","","","","","","","","",""
"","","","","","image-keyboard-response","68","216741","0.0-2.0-5.0-1.23","6312503220c83c0fac50a090","F1","batch6","","6632.300000011921","stim/no_67_1.png","j","pattern_response","true","j","pattern_39","6632.300000011921","true","22","","","","","","","","","","","","","","","","","","",""
"","","","","","html-keyboard-response","69","218069","0.0-2.0-5.0-0.24","6312503220c83c0fac50a090","F1","batch6","","null","<p class=block-text>Trial 25 out of 78</p>","null","pattern_show_trial_num","","","","","","","","","","","","","","","","","","","","","","","","",""
"","","","","","image-keyboard-response","70","218899","0.0-2.0-5.0-1.24","6312503220c83c0fac50a090","F1","batch6","","827","stim/yes_39_hor_w1_w.png","f","pattern_response","true","f","pattern_62","827","true","23","","","","","","","","","","","","","","","","","","",""
"","","","","","html-keyboard-response","71","220217","0.0-2.0-5.0-0.25","6312503220c83c0fac50a090","F1","batch6","","null","<p class=block-text>Trial 26 out of 78</p>","null","pattern_show_trial_num","","","","","","","","","","","","","","","","","","","","","","","","",""
"","","","","","image-keyboard-response","72","221043","0.0-2.0-5.0-1.25","6312503220c83c0fac50a090","F1","batch6","","825.0999999642372","stim/yes_12_hor_w1_w.png","f","pattern_response","true","f","pattern_42","825.0999999642372","true","24","","","","","","","","","","","","","","","","","","",""
"","","","","","html-keyboard-response","73","222356","0.0-2.0-5.0-0.26","6312503220c83c0fac50a090","F1","batch6","","null","<p class=block-text>Trial 27 out of 78</p>","null","pattern_show_trial_num","","","","","","","","","","","","","","","","","","","","","","","","",""
"","","","","","image-keyboard-response","74","225712","0.0-2.0-5.0-1.26","6312503220c83c0fac50a090","F1","batch6","","3353.599999964237","stim/no_37_2_w.png","j","pattern_response","true","j","pattern_19","3353.599999964237","true","25","","","","","","","","","","","","","","","","","","",""
"","","","","","html-keyboard-response","75","227031","0.0-2.0-5.0-0.27","6312503220c83c0fac50a090","F1","batch6","","null","<p class=block-text>Trial 28 out of 78</p>","null","pattern_show_trial_num","","","","","","","","","","","","","","","","","","","","","","","","",""
"","","","","","image-keyboard-response","76","228025","0.0-2.0-5.0-1.27","6312503220c83c0fac50a090","F1","batch6","","991.7999999523163","stim/yes_15_dia_b1u_b.png","f","pattern_response","true","f","pattern_44","991.7999999523163","true","26","","","","","","","","","","","","","","","","","","",""
"","","","","","html-keyboard-response","77","229331","0.0-2.0-5.0-0.28","6312503220c83c0fac50a090","F1","batch6","","null","<p class=block-text>Trial 29 out of 78</p>","null","pattern_show_trial_num","","","","","","","","","","","","","","","","","","","","","","","","",""
"","","","","","image-keyboard-response","78","230421","0.0-2.0-5.0-1.28","6312503220c83c0fac50a090","F1","batch6","","1088.5","stim/yes_23_ver_b1.png","f","pattern_response","true","f","pattern_48","1088.5","true","27","","","","","","","","","","","","","","","","","","",""
"","","","","","html-keyboard-response","79","231746","0.0-2.0-5.0-0.29","6312503220c83c0fac50a090","F1","batch6","","null","<p class=block-text>Trial 30 out of 78</p>","null","pattern_show_trial_num","","","","","","","","","","","","","","","","","","","","","","","","",""
"","","","","","image-keyboard-response","80","235190","0.0-2.0-5.0-1.29","6312503220c83c0fac50a090","F1","batch6","","3441.900000035763","stim/yes_58_dia_w1_w.png","j","pattern_response","false","f","pattern_76","3441.900000035763","false","27","","","","","","","","","","","","","","","","","","",""
"","","","","","html-keyboard-response","81","236504","0.0-2.0-5.0-0.30","6312503220c83c0fac50a090","F1","batch6","","null","<p class=block-text>Trial 31 out of 78</p>","null","pattern_show_trial_num","","","","","","","","","","","","","","","","","","","","","","","","",""
"","","","","","image-keyboard-response","82","237343","0.0-2.0-5.0-1.30","6312503220c83c0fac50a090","F1","batch6","","836","stim/yes_37_hor_w1_w.png","f","pattern_response","true","f","pattern_60","836","true","28","","","","","","","","","","","","","","","","","","",""
"","","","","","html-keyboard-response","83","238671","0.0-2.0-5.0-0.31","6312503220c83c0fac50a090","F1","batch6","","null","<p class=block-text>Trial 32 out of 78</p>","null","pattern_show_trial_num","","","","","","","","","","","","","","","","","","","","","","","","",""
"","","","","","image-keyboard-response","84","241621","0.0-2.0-5.0-1.31","6312503220c83c0fac50a090","F1","batch6","","2942.300000011921","stim/yes_42_dia_w1_w.png","j","pattern_response","false","f","pattern_64","2942.300000011921","false","28","","","","","","","","","","","","","","","","","","",""
"","","","","","html-keyboard-response","85","242950","0.0-2.0-5.0-0.32","6312503220c83c0fac50a090","F1","batch6","","null","<p class=block-text>Trial 33 out of 78</p>","null","pattern_show_trial_num","","","","","","","","","","","","","","","","","","","","","","","","",""
"","","","","","image-keyboard-response","86","245688","0.0-2.0-5.0-1.32","6312503220c83c0fac50a090","F1","batch6","","2735.199999988079","stim/no_43_2_b.png","j","pattern_response","true","j","pattern_23","2735.199999988079","true","29","","","","","","","","","","","","","","","","","","",""
"","","","","","html-keyboard-response","87","247006","0.0-2.0-5.0-0.33","6312503220c83c0fac50a090","F1","batch6","","null","<p class=block-text>Trial 34 out of 78</p>","null","pattern_show_trial_num","","","","","","","","","","","","","","","","","","","","","","","","",""
"","","","","","image-keyboard-response","88","247778","0.0-2.0-5.0-1.33","6312503220c83c0fac50a090","F1","batch6","","769.3000000119209","stim/yes_17_ver_b1_b.png","f","pattern_response","true","f","pattern_46","769.3000000119209","true","30","","","","","","","","","","","","","","","","","","",""
"","","","","","html-keyboard-response","89","249093","0.0-2.0-5.0-0.34","6312503220c83c0fac50a090","F1","batch6","","null","<p class=block-text>Trial 35 out of 78</p>","null","pattern_show_trial_num","","","","","","","","","","","","","","","","","","","","","","","","",""
"","","","","","image-keyboard-response","90","249877","0.0-2.0-5.0-1.34","6312503220c83c0fac50a090","F1","batch6","","782.7000000476837","stim/no_15_1_w.png","j","pattern_response","true","j","pattern_03","782.7000000476837","true","31","","","","","","","","","","","","","","","","","","",""
"","","","","","html-keyboard-response","91","251198","0.0-2.0-5.0-0.35","6312503220c83c0fac50a090","F1","batch6","","null","<p class=block-text>Trial 36 out of 78</p>","null","pattern_show_trial_num","","","","","","","","","","","","","","","","","","","","","","","","",""
"","","","","","image-keyboard-response","92","252577","0.0-2.0-5.0-1.35","6312503220c83c0fac50a090","F1","batch6","","1377.5","stim/yes_33_dia_w1_w.png","f","pattern_response","true","f","pattern_56","1377.5","true","32","","","","","","","","","","","","","","","","","","",""
"","","","","","html-keyboard-response","93","253886","0.0-2.0-5.0-0.36","6312503220c83c0fac50a090","F1","batch6","","null","<p class=block-text>Trial 37 out of 78</p>","null","pattern_show_trial_num","","","","","","","","","","","","","","","","","","","","","","","","",""
"","","","","","image-keyboard-response","94","256035","0.0-2.0-5.0-1.36","6312503220c83c0fac50a090","F1","batch6","","2147.5","stim/yes_44_ver_w1_w.png","j","pattern_response","false","f","pattern_66","2147.5","false","32","","","","","","","","","","","","","","","","","","",""
"","","","","","html-keyboard-response","95","257352","0.0-2.0-5.0-0.37","6312503220c83c0fac50a090","F1","batch6","","null","<p class=block-text>Trial 38 out of 78</p>","null","pattern_show_trial_num","","","","","","","","","","","","","","","","","","","","","","","","",""
"","","","","","image-keyboard-response","96","259342","0.0-2.0-5.0-1.37","6312503220c83c0fac50a090","F1","batch6","","1987.5999999642372","stim/no_28_2.png","j","pattern_response","true","j","pattern_11","1987.5999999642372","true","33","","","","","","","","","","","","","","","","","","",""
"","","","","","html-keyboard-response","97","260662","0.0-2.0-5.0-0.38","6312503220c83c0fac50a090","F1","batch6","","null","<p class=block-text>Trial 39 out of 78</p>","null","pattern_show_trial_num","","","","","","","","","","","","","","","","","","","","","","","","",""
"","","","","","image-keyboard-response","98","261326","0.0-2.0-5.0-1.38","6312503220c83c0fac50a090","F1","batch6","","662.0999999642372","stim/yes_29_hor_b1_b.png","f","pattern_response","true","f","pattern_52","662.0999999642372","true","34","","","","","","","","","","","","","","","","","","",""
"","","","","","image-keyboard-response","99","263722","0.0-2.0-6.0","6312503220c83c0fac50a090","F1","batch6","","1883","stim/empty_board.png","j","attention_check","true","j","","","","","500","[""f"",""j""]","","","","","","","","","","","","","","","","",""
"","","","","","html-keyboard-response","100","264526","0.0-2.0-7.0-0.0","6312503220c83c0fac50a090","F1","batch6","","null","<p class=block-text>Trial 40 out of 78</p>","null","pattern_show_trial_num","","","","","","","","","","","","","","","","","","","","","","","","",""
"","","","","","image-keyboard-response","101","267577","0.0-2.0-7.0-1.0","6312503220c83c0fac50a090","F1","batch6","","3049","stim/yes_17_dia_w1.png","f","pattern_response","true","f","pattern_45","3049","true","35","","","","","","","","","","","","","","","","","","",""
"","","","","","html-keyboard-response","102","268895","0.0-2.0-7.0-0.1","6312503220c83c0fac50a090","F1","batch6","","null","<p class=block-text>Trial 41 out of 78</p>","null","pattern_show_trial_num","","","","","","","","","","","","","","","","","","","","","","","","",""
"","","","","","image-keyboard-response","103","271654","0.0-2.0-7.0-1.1","6312503220c83c0fac50a090","F1","batch6","","2756","stim/no_23_1.png","j","pattern_response","true","j","pattern_08","2756","true","36","","","","","","","","","","","","","","","","","","",""
"","","","","","html-keyboard-response","104","272976","0.0-2.0-7.0-0.2","6312503220c83c0fac50a090","F1","batch6","","null","<p class=block-text>Trial 42 out of 78</p>","null","pattern_show_trial_num","","","","","","","","","","","","","","","","","","","","","","","","",""
"","","","","","image-keyboard-response","105","274210","0.0-2.0-7.0-1.2","6312503220c83c0fac50a090","F1","batch6","","1232.1000000238419","stim/yes_40_dia_b1_b.png","f","pattern_response","true","f","pattern_63","1232.1000000238419","true","37","","","","","","","","","","","","","","","","","","",""
"","","","","","html-keyboard-response","106","275526","0.0-2.0-7.0-0.3","6312503220c83c0fac50a090","F1","batch6","","null","<p class=block-text>Trial 43 out of 78</p>","null","pattern_show_trial_num","","","","","","","","","","","","","","","","","","","","","","","","",""
"","","","","","image-keyboard-response","107","276416","0.0-2.0-7.0-1.3","6312503220c83c0fac50a090","F1","batch6","","887.7999999523163","stim/yes_67_hor_b1.png","f","pattern_response","true","f","pattern_79","887.7999999523163","true","38","","","","","","","","","","","","","","","","","","",""
"","","","","","html-keyboard-response","108","277743","0.0-2.0-7.0-0.4","6312503220c83c0fac50a090","F1","batch6","","null","<p class=block-text>Trial 44 out of 78</p>","null","pattern_show_trial_num","","","","","","","","","","","","","","","","","","","","","","","","",""
"","","","","","image-keyboard-response","109","278906","0.0-2.0-7.0-1.4","6312503220c83c0fac50a090","F1","batch6","","1160.8999999761581","stim/yes_43_ver_w1_w.png","f","pattern_response","true","f","pattern_65","1160.8999999761581","true","39","","","","","","","","","","","","","","","","","","",""
"","","","","","html-keyboard-response","110","280228","0.0-2.0-7.0-0.5","6312503220c83c0fac50a090","F1","batch6","","null","<p class=block-text>Trial 45 out of 78</p>","null","pattern_show_trial_num","","","","","","","","","","","","","","","","","","","","","","","","",""
"","","","","","image-keyboard-response","111","280896","0.0-2.0-7.0-1.5","6312503220c83c0fac50a090","F1","batch6","","666.1999999880791","stim/yes_14_hor_b1_w.png","f","pattern_response","true","f","pattern_43","666.1999999880791","true","40","","","","","","","","","","","","","","","","","","",""
"","","","","","html-keyboard-response","112","282209","0.0-2.0-7.0-0.6","6312503220c83c0fac50a090","F1","batch6","","null","<p class=block-text>Trial 46 out of 78</p>","null","pattern_show_trial_num","","","","","","","","","","","","","","","","","","","","","","","","",""
"","","","","","image-keyboard-response","113","285095","0.0-2.0-7.0-1.6","6312503220c83c0fac50a090","F1","batch6","","2884.399999976158","stim/no_55_1_w.png","j","pattern_response","true","j","pattern_34","2884.399999976158","true","41","","","","","","","","","","","","","","","","","","",""
"","","","","","html-keyboard-response","114","286426","0.0-2.0-7.0-0.7","6312503220c83c0fac50a090","F1","batch6","","null","<p class=block-text>Trial 47 out of 78</p>","null","pattern_show_trial_num","","","","","","","","","","","","","","","","","","","","","","","","",""
"","","","","","image-keyboard-response","115","288017","0.0-2.0-7.0-1.7","6312503220c83c0fac50a090","F1","batch6","","1589","stim/no_29_1_b.png","j","pattern_response","true","j","pattern_12","1589","true","42","","","","","","","","","","","","","","","","","","",""
"","","","","","html-keyboard-response","116","289335","0.0-2.0-7.0-0.8","6312503220c83c0fac50a090","F1","batch6","","null","<p class=block-text>Trial 48 out of 78</p>","null","pattern_show_trial_num","","","","","","","","","","","","","","","","","","","","","","","","",""
"","","","","","image-keyboard-response","117","291472","0.0-2.0-7.0-1.8","6312503220c83c0fac50a090","F1","batch6","","2134.900000035763","stim/yes_52_ver_w1.png","f","pattern_response","true","f","pattern_73","2134.900000035763","true","43","","","","","","","","","","","","","","","","","","",""
"","","","","","html-keyboard-response","118","292792","0.0-2.0-7.0-0.9","6312503220c83c0fac50a090","F1","batch6","","null","<p class=block-text>Trial 49 out of 78</p>","null","pattern_show_trial_num","","","","","","","","","","","","","","","","","","","","","","","","",""
"","","","","","image-keyboard-response","119","293987","0.0-2.0-7.0-1.9","6312503220c83c0fac50a090","F1","batch6","","1193.2000000476837","stim/no_20_1_w.png","j","pattern_response","true","j","pattern_06","1193.2000000476837","true","44","","","","","","","","","","","","","","","","","","",""
"","","","","","html-keyboard-response","120","295304","0.0-2.0-7.0-0.10","6312503220c83c0fac50a090","F1","batch6","","null","<p class=block-text>Trial 50 out of 78</p>","null","pattern_show_trial_num","","","","","","","","","","","","","","","","","","","","","","","","",""
"","","","","","image-keyboard-response","121","298117","0.0-2.0-7.0-1.10","6312503220c83c0fac50a090","F1","batch6","","2811.099999964237","stim/no_38_1_b.png","j","pattern_response","true","j","pattern_20","2811.099999964237","true","45","","","","","","","","","","","","","","","","","","",""
"","","","","","html-keyboard-response","122","299433","0.0-2.0-7.0-0.11","6312503220c83c0fac50a090","F1","batch6","","null","<p class=block-text>Trial 51 out of 78</p>","null","pattern_show_trial_num","","","","","","","","","","","","","","","","","","","","","","","","",""
"","","","","","image-keyboard-response","123","300914","0.0-2.0-7.0-1.11","6312503220c83c0fac50a090","F1","batch6","","1479.0999999642372","stim/yes_31_hor_b1.png","f","pattern_response","true","f","pattern_55","1479.0999999642372","true","46","","","","","","","","","","","","","","","","","","",""
"","","","","","html-keyboard-response","124","302244","0.0-2.0-7.0-0.12","6312503220c83c0fac50a090","F1","batch6","","null","<p class=block-text>Trial 52 out of 78</p>","null","pattern_show_trial_num","","","","","","","","","","","","","","","","","","","","","","","","",""
"","","","","","image-keyboard-response","125","305430","0.0-2.0-7.0-1.12","6312503220c83c0fac50a090","F1","batch6","","3184.600000023842","stim/no_48_1_w.png","j","pattern_response","true","j","pattern_28","3184.600000023842","true","47","","","","","","","","","","","","","","","","","","",""
"","","","","","html-keyboard-response","126","306749","0.0-2.0-7.0-0.13","6312503220c83c0fac50a090","F1","batch6","","null","<p class=block-text>Trial 53 out of 78</p>","null","pattern_show_trial_num","","","","","","","","","","","","","","","","","","","","","","","","",""
"","","","","","image-keyboard-response","127","309548","0.0-2.0-7.0-1.13","6312503220c83c0fac50a090","F1","batch6","","2797.2000000476837","stim/yes_50_dia_w1.png","f","pattern_response","true","f","pattern_71","2797.2000000476837","true","48","","","","","","","","","","","","","","","","","","",""
"","","","","","html-keyboard-response","128","310875","0.0-2.0-7.0-0.14","6312503220c83c0fac50a090","F1","batch6","","null","<p class=block-text>Trial 54 out of 78</p>","null","pattern_show_trial_num","","","","","","","","","","","","","","","","","","","","","","","","",""
"","","","","","image-keyboard-response","129","311782","0.0-2.0-7.0-1.14","6312503220c83c0fac50a090","F1","batch6","","904.7000000476837","stim/yes_25_hor_b1_b.png","f","pattern_response","true","f","pattern_49","904.7000000476837","true","49","","","","","","","","","","","","","","","","","","",""
"","","","","","html-keyboard-response","130","313096","0.0-2.0-7.0-0.15","6312503220c83c0fac50a090","F1","batch6","","null","<p class=block-text>Trial 55 out of 78</p>","null","pattern_show_trial_num","","","","","","","","","","","","","","","","","","","","","","","","",""
"","","","","","image-keyboard-response","131","313905","0.0-2.0-7.0-1.15","6312503220c83c0fac50a090","F1","batch6","","807.1999999880791","stim/yes_45_hor_b2_b.png","f","pattern_response","true","f","pattern_67","807.1999999880791","true","50","","","","","","","","","","","","","","","","","","",""
"","","","","","html-keyboard-response","132","315217","0.0-2.0-7.0-0.16","6312503220c83c0fac50a090","F1","batch6","","null","<p class=block-text>Trial 56 out of 78</p>","null","pattern_show_trial_num","","","","","","","","","","","","","","","","","","","","","","","","",""
"","","","","","image-keyboard-response","133","318413","0.0-2.0-7.0-1.16","6312503220c83c0fac50a090","F1","batch6","","3193.600000023842","stim/no_62_1_w.png","j","pattern_response","true","j","pattern_36","3193.600000023842","true","51","","","","","","","","","","","","","","","","","","",""
"","","","","","html-keyboard-response","134","319732","0.0-2.0-7.0-0.17","6312503220c83c0fac50a090","F1","batch6","","null","<p class=block-text>Trial 57 out of 78</p>","null","pattern_show_trial_num","","","","","","","","","","","","","","","","","","","","","","","","",""
"","","","","","image-keyboard-response","135","320404","0.0-2.0-7.0-1.17","6312503220c83c0fac50a090","F1","batch6","","669.1000000238419","stim/yes_29_ver_w1.png","f","pattern_response","true","f","pattern_53","669.1000000238419","true","52","","","","","","","","","","","","","","","","","","",""
"","","","","","html-keyboard-response","136","321713","0.0-2.0-7.0-0.18","6312503220c83c0fac50a090","F1","batch6","","null","<p class=block-text>Trial 58 out of 78</p>","null","pattern_show_trial_num","","","","","","","","","","","","","","","","","","","","","","","","",""
"","","","","","image-keyboard-response","137","323687","0.0-2.0-7.0-1.18","6312503220c83c0fac50a090","F1","batch6","","1972.800000011921","stim/yes_35_dia_b1.png","f","pattern_response","true","f","pattern_57","1972.800000011921","true","53","","","","","","","","","","","","","","","","","","",""
"","","","","","html-keyboard-response","138","325007","0.0-2.0-7.0-0.19","6312503220c83c0fac50a090","F1","batch6","","null","<p class=block-text>Trial 59 out of 78</p>","null","pattern_show_trial_num","","","","","","","","","","","","","","","","","","","","","","","","",""
"","","","","","image-keyboard-response","139","327076","0.0-2.0-7.0-1.19","6312503220c83c0fac50a090","F1","batch6","","2067.600000023842","stim/no_32_1_w.png","j","pattern_response","true","j","pattern_14","2067.600000023842","true","54","","","","","","","","","","","","","","","","","","",""
"","","","","","html-keyboard-response","140","328388","0.0-2.0-7.0-0.20","6312503220c83c0fac50a090","F1","batch6","","null","<p class=block-text>Trial 60 out of 78</p>","null","pattern_show_trial_num","","","","","","","","","","","","","","","","","","","","","","","","",""
"","","","","","image-keyboard-response","141","329981","0.0-2.0-7.0-1.20","6312503220c83c0fac50a090","F1","batch6","","1590.4000000357628","stim/no_17_1_w.png","j","pattern_response","true","j","pattern_04","1590.4000000357628","true","55","","","","","","","","","","","","","","","","","","",""
"","","","","","html-keyboard-response","142","331304","0.0-2.0-7.0-0.21","6312503220c83c0fac50a090","F1","batch6","","null","<p class=block-text>Trial 61 out of 78</p>","null","pattern_show_trial_num","","","","","","","","","","","","","","","","","","","","","","","","",""
"","","","","","image-keyboard-response","143","333662","0.0-2.0-7.0-1.21","6312503220c83c0fac50a090","F1","batch6","","2355.7000000476837","stim/no_34_1_b.png","j","pattern_response","true","j","pattern_16","2355.7000000476837","true","56","","","","","","","","","","","","","","","","","","",""
"","","","","","html-keyboard-response","144","334985","0.0-2.0-7.0-0.22","6312503220c83c0fac50a090","F1","batch6","","null","<p class=block-text>Trial 62 out of 78</p>","null","pattern_show_trial_num","","","","","","","","","","","","","","","","","","","","","","","","",""
"","","","","","image-keyboard-response","145","335858","0.0-2.0-7.0-1.22","6312503220c83c0fac50a090","F1","batch6","","871.1000000238419","stim/yes_28_ver_b1.png","f","pattern_response","true","f","pattern_51","871.1000000238419","true","57","","","","","","","","","","","","","","","","","","",""
"","","","","","html-keyboard-response","146","337167","0.0-2.0-7.0-0.23","6312503220c83c0fac50a090","F1","batch6","","null","<p class=block-text>Trial 63 out of 78</p>","null","pattern_show_trial_num","","","","","","","","","","","","","","","","","","","","","","","","",""
"","","","","","image-keyboard-response","147","337865","0.0-2.0-7.0-1.23","6312503220c83c0fac50a090","F1","batch6","","696.1000000238419","stim/yes_22_ver_w1.png","f","pattern_response","true","f","pattern_47","696.1000000238419","true","58","","","","","","","","","","","","","","","","","","",""
"","","","","","html-keyboard-response","148","339183","0.0-2.0-7.0-0.24","6312503220c83c0fac50a090","F1","batch6","","null","<p class=block-text>Trial 64 out of 78</p>","null","pattern_show_trial_num","","","","","","","","","","","","","","","","","","","","","","","","",""
"","","","","","image-keyboard-response","149","340512","0.0-2.0-7.0-1.24","6312503220c83c0fac50a090","F1","batch6","","1327.2999999523163","stim/no_26_1_w.png","j","pattern_response","true","j","pattern_10","1327.2999999523163","true","59","","","","","","","","","","","","","","","","","","",""
"","","","","","html-keyboard-response","150","341835","0.0-2.0-7.0-0.25","6312503220c83c0fac50a090","F1","batch6","","null","<p class=block-text>Trial 65 out of 78</p>","null","pattern_show_trial_num","","","","","","","","","","","","","","","","","","","","","","","","",""
"","","","","","image-keyboard-response","151","346052","0.0-2.0-7.0-1.25","6312503220c83c0fac50a090","F1","batch6","","4215.199999988079","stim/no_50_1.png","j","pattern_response","true","j","pattern_30","4215.199999988079","true","60","","","","","","","","","","","","","","","","","","",""
"","","","","","html-keyboard-response","152","347378","0.0-2.0-7.0-0.26","6312503220c83c0fac50a090","F1","batch6","","null","<p class=block-text>Trial 66 out of 78</p>","null","pattern_show_trial_num","","","","","","","","","","","","","","","","","","","","","","","","",""
"","","","","","image-keyboard-response","153","350040","0.0-2.0-7.0-1.26","6312503220c83c0fac50a090","F1","batch6","","2660.199999988079","stim/no_36_2_w.png","j","pattern_response","true","j","pattern_18","2660.199999988079","true","61","","","","","","","","","","","","","","","","","","",""
"","","","","","html-keyboard-response","154","351364","0.0-2.0-7.0-0.27","6312503220c83c0fac50a090","F1","batch6","","null","<p class=block-text>Trial 67 out of 78</p>","null","pattern_show_trial_num","","","","","","","","","","","","","","","","","","","","","","","","",""
"","","","","","image-keyboard-response","155","354648","0.0-2.0-7.0-1.27","6312503220c83c0fac50a090","F1","batch6","","3282.5","stim/no_46_1_b.png","j","pattern_response","true","j","pattern_26","3282.5","true","62","","","","","","","","","","","","","","","","","","",""
"","","","","","html-keyboard-response","156","355969","0.0-2.0-7.0-0.28","6312503220c83c0fac50a090","F1","batch6","","null","<p class=block-text>Trial 68 out of 78</p>","null","pattern_show_trial_num","","","","","","","","","","","","","","","","","","","","","","","","",""
"","","","","","image-keyboard-response","157","359363","0.0-2.0-7.0-1.28","6312503220c83c0fac50a090","F1","batch6","","3391.5","stim/yes_37_dia_w1.png","j","pattern_response","false","f","pattern_59","3391.5","false","62","","","","","","","","","","","","","","","","","","",""
"","","","","","html-keyboard-response","158","360678","0.0-2.0-7.0-0.29","6312503220c83c0fac50a090","F1","batch6","","null","<p class=block-text>Trial 69 out of 78</p>","null","pattern_show_trial_num","","","","","","","","","","","","","","","","","","","","","","","","",""
"","","","","","image-keyboard-response","159","361583","0.0-2.0-7.0-1.29","6312503220c83c0fac50a090","F1","batch6","","902.8000000119209","stim/yes_55_hor_w1_w.png","f","pattern_response","true","f","pattern_75","902.8000000119209","true","63","","","","","","","","","","","","","","","","","","",""
"","","","","","html-keyboard-response","160","362895","0.0-2.0-7.0-0.30","6312503220c83c0fac50a090","F1","batch6","","null","<p class=block-text>Trial 70 out of 78</p>","null","pattern_show_trial_num","","","","","","","","","","","","","","","","","","","","","","","","",""
"","","","","","image-keyboard-response","161","364622","0.0-2.0-7.0-1.30","6312503220c83c0fac50a090","F1","batch6","","1725.800000011921","stim/no_42_1_w.png","j","pattern_response","true","j","pattern_22","1725.800000011921","true","64","","","","","","","","","","","","","","","","","","",""
"","","","","","html-keyboard-response","162","365940","0.0-2.0-7.0-0.31","6312503220c83c0fac50a090","F1","batch6","","null","<p class=block-text>Trial 71 out of 78</p>","null","pattern_show_trial_num","","","","","","","","","","","","","","","","","","","","","","","","",""
"","","","","","image-keyboard-response","163","369635","0.0-2.0-7.0-1.31","6312503220c83c0fac50a090","F1","batch6","","3693.600000023842","stim/no_44_1.png","j","pattern_response","true","j","pattern_24","3693.600000023842","true","65","","","","","","","","","","","","","","","","","","",""
"","","","","","html-keyboard-response","164","370947","0.0-2.0-7.0-0.32","6312503220c83c0fac50a090","F1","batch6","","null","<p class=block-text>Trial 72 out of 78</p>","null","pattern_show_trial_num","","","","","","","","","","","","","","","","","","","","","","","","",""
"","","","","","image-keyboard-response","165","376115","0.0-2.0-7.0-1.32","6312503220c83c0fac50a090","F1","batch6","","5166.700000047684","stim/no_52_1.png","j","pattern_response","true","j","pattern_32","5166.700000047684","true","66","","","","","","","","","","","","","","","","","","",""
"","","","","","html-keyboard-response","166","377436","0.0-2.0-7.0-0.33","6312503220c83c0fac50a090","F1","batch6","","null","<p class=block-text>Trial 73 out of 78</p>","null","pattern_show_trial_num","","","","","","","","","","","","","","","","","","","","","","","","",""
"","","","","","image-keyboard-response","167","384617","0.0-2.0-7.0-1.33","6312503220c83c0fac50a090","F1","batch6","","7178.800000011921","stim/no_70_2.png","j","pattern_response","true","j","pattern_40","7178.800000011921","true","67","","","","","","","","","","","","","","","","","","",""
"","","","","","html-keyboard-response","168","385937","0.0-2.0-7.0-0.34","6312503220c83c0fac50a090","F1","batch6","","null","<p class=block-text>Trial 74 out of 78</p>","null","pattern_show_trial_num","","","","","","","","","","","","","","","","","","","","","","","","",""
"","","","","","image-keyboard-response","169","387336","0.0-2.0-7.0-1.34","6312503220c83c0fac50a090","F1","batch6","","1397.199999988079","stim/yes_38_hor_b1_b.png","f","pattern_response","true","f","pattern_61","1397.199999988079","true","68","","","","","","","","","","","","","","","","","","",""
"","","","","","html-keyboard-response","170","388653","0.0-2.0-7.0-0.35","6312503220c83c0fac50a090","F1","batch6","","null","<p class=block-text>Trial 75 out of 78</p>","null","pattern_show_trial_num","","","","","","","","","","","","","","","","","","","","","","","","",""
"","","","","","image-keyboard-response","171","391973","0.0-2.0-7.0-1.35","6312503220c83c0fac50a090","F1","batch6","","3318.899999976158","stim/yes_60_ver_b1_b.png","j","pattern_response","false","f","pattern_77","3318.899999976158","false","68","","","","","","","","","","","","","","","","","","",""
"","","","","","html-keyboard-response","172","393294","0.0-2.0-7.0-0.36","6312503220c83c0fac50a090","F1","batch6","","null","<p class=block-text>Trial 76 out of 78</p>","null","pattern_show_trial_num","","","","","","","","","","","","","","","","","","","","","","","","",""
"","","","","","image-keyboard-response","173","397344","0.0-2.0-7.0-1.36","6312503220c83c0fac50a090","F1","batch6","","4047.7999999523163","stim/no_65_1_b.png","j","pattern_response","true","j","pattern_38","4047.7999999523163","true","69","","","","","","","","","","","","","","","","","","",""
"","","","","","html-keyboard-response","174","398659","0.0-2.0-7.0-0.37","6312503220c83c0fac50a090","F1","batch6","","null","<p class=block-text>Trial 77 out of 78</p>","null","pattern_show_trial_num","","","","","","","","","","","","","","","","","","","","","","","","",""
"","","","","","image-keyboard-response","175","402151","0.0-2.0-7.0-1.37","6312503220c83c0fac50a090","F1","batch6","","3489.300000011921","stim/yes_48_dia_w1_w.png","j","pattern_response","false","f","pattern_69","3489.300000011921","false","69","","","","","","","","","","","","","","","","","","",""
"","","","","","html-keyboard-response","176","403467","0.0-2.0-7.0-0.38","6312503220c83c0fac50a090","F1","batch6","","null","<p class=block-text>Trial 78 out of 78</p>","null","pattern_show_trial_num","","","","","","","","","","","","","","","","","","","","","","","","",""
"","","","","","image-keyboard-response","177","404753","0.0-2.0-7.0-1.38","6312503220c83c0fac50a090","F1","batch6","","1283.8999999761581","stim/no_13_2_b.png","j","pattern_response","true","j","pattern_02","1283.8999999761581","true","70","","","","","","","","","","","","","","","","","","",""
"","","","","","html-button-response","178","410050","0.0-2.0-8.0","6312503220c83c0fac50a090","F1","batch6","","4786.199999988079","<p class = block-text>This concludes the 4-in-a-row detection game.Thank you for your responses!<br>
            You responded correctly on 90% of the trials.<br>
            When you are ready, press ""Continue"" button to continue </p>","0","","","","","","","","","","","","","","","","","","","","","","","","","",""
"true","","","","","fullscreen","179","414982","0.0-3.0-0.0","6312503220c83c0fac50a090","F1","batch6","","","","","spm_fullscreen","","","","","","","","","","","","","","","","","","","","","","","","",""
"","","","","","html-button-response","180","425616","0.0-3.0-1.0","6312503220c83c0fac50a090","F1","batch6","","10632.300000011921","<p class = block-text><b>Instructions</b> <br>This is a widely used intelligence test in research. <br>In this test, a figure with a missing piece will be presented.<br>Below the figure are alternative pieces to complete the figure, only one of which is correct.<br> Different figures might involve different principles for obtaining the missing piece<br>Your job is to select the most logical piece to complete the figure.</p>","0","","","","","","","","","","","","","","","","","","","","","","","","","",""
"","","","","","html-keyboard-response","181","426427","0.0-3.0-2.0-0.0","6312503220c83c0fac50a090","F1","batch6","","null","<p class=block-text>Trial 1 out of 60</p>","null","spm_show_trial_num","","","","","","","","","","","","","","","","","","","","","","","","",""
"","","","","","image-button-response","182","432716","0.0-3.0-2.0-1.0","6312503220c83c0fac50a090","F1","batch6","","6286","img/question_1_1.jpeg","3","spm_respsonse","1","4","mat_01","","","","","","1","6286","","","","","","","","","","","","","","",""
"","","","","","html-keyboard-response","183","433784","0.0-3.0-2.0-0.1","6312503220c83c0fac50a090","F1","batch6","","null","<p class=block-text>Trial 2 out of 60</p>","null","spm_show_trial_num","","","","","","","","","","","","","","","","","","","","","","","","",""
"","","","","","image-button-response","184","437017","0.0-3.0-2.0-1.1","6312503220c83c0fac50a090","F1","batch6","","3230.5","img/question_1_2.jpeg","4","spm_respsonse","1","5","mat_02","","","","","","1","3230.5","","","","","","","","","","","","","","",""
"","","","","","html-keyboard-response","185","438088","0.0-3.0-2.0-0.2","6312503220c83c0fac50a090","F1","batch6","","null","<p class=block-text>Trial 3 out of 60</p>","null","spm_show_trial_num","","","","","","","","","","","","","","","","","","","","","","","","",""
"","","","","","image-button-response","186","443607","0.0-3.0-2.0-1.2","6312503220c83c0fac50a090","F1","batch6","","5516.800000011921","img/question_1_3.jpeg","0","spm_respsonse","1","1","mat_03","","","","","","1","5516.800000011921","","","","","","","","","","","","","","",""
"","","","","","html-keyboard-response","187","444688","0.0-3.0-2.0-0.3","6312503220c83c0fac50a090","F1","batch6","","null","<p class=block-text>Trial 4 out of 60</p>","null","spm_show_trial_num","","","","","","","","","","","","","","","","","","","","","","","","",""
"","","","","","image-button-response","188","450058","0.0-3.0-2.0-1.3","6312503220c83c0fac50a090","F1","batch6","","5367.199999988079","img/question_1_4.jpeg","1","spm_respsonse","1","2","mat_04","","","","","","1","5367.199999988079","","","","","","","","","","","","","","",""
"","","","","","html-keyboard-response","189","451133","0.0-3.0-2.0-0.4","6312503220c83c0fac50a090","F1","batch6","","null","<p class=block-text>Trial 5 out of 60</p>","null","spm_show_trial_num","","","","","","","","","","","","","","","","","","","","","","","","",""
"","","","","","image-button-response","190","456637","0.0-3.0-2.0-1.4","6312503220c83c0fac50a090","F1","batch6","","5501.400000035763","img/question_1_5.jpeg","5","spm_respsonse","1","6","mat_05","","","","","","1","5501.400000035763","","","","","","","","","","","","","","",""
"","","","","","html-keyboard-response","191","457717","0.0-3.0-2.0-0.5","6312503220c83c0fac50a090","F1","batch6","","null","<p class=block-text>Trial 6 out of 60</p>","null","spm_show_trial_num","","","","","","","","","","","","","","","","","","","","","","","","",""
"","","","","","image-button-response","192","461489","0.0-3.0-2.0-1.5","6312503220c83c0fac50a090","F1","batch6","","3770.300000011921","img/question_1_6.jpeg","2","spm_respsonse","1","3","mat_06","","","","","","1","3770.300000011921","","","","","","","","","","","","","","",""
"","","","","","html-keyboard-response","193","462550","0.0-3.0-2.0-0.6","6312503220c83c0fac50a090","F1","batch6","","null","<p class=block-text>Trial 7 out of 60</p>","null","spm_show_trial_num","","","","","","","","","","","","","","","","","","","","","","","","",""
"","","","","","image-button-response","194","465681","0.0-3.0-2.0-1.6","6312503220c83c0fac50a090","F1","batch6","","3128.199999988079","img/question_1_7.jpeg","5","spm_respsonse","1","6","mat_07","","","","","","1","3128.199999988079","","","","","","","","","","","","","","",""
"","","","","","html-keyboard-response","195","466750","0.0-3.0-2.0-0.7","6312503220c83c0fac50a090","F1","batch6","","null","<p class=block-text>Trial 8 out of 60</p>","null","spm_show_trial_num","","","","","","","","","","","","","","","","","","","","","","","","",""
"","","","","","image-button-response","196","471381","0.0-3.0-2.0-1.7","6312503220c83c0fac50a090","F1","batch6","","4628.5","img/question_1_8.jpeg","1","spm_respsonse","1","2","mat_08","","","","","","1","4628.5","","","","","","","","","","","","","","",""
"","","","","","html-keyboard-response","197","472457","0.0-3.0-2.0-0.8","6312503220c83c0fac50a090","F1","batch6","","null","<p class=block-text>Trial 9 out of 60</p>","null","spm_show_trial_num","","","","","","","","","","","","","","","","","","","","","","","","",""
"","","","","","image-button-response","198","476492","0.0-3.0-2.0-1.8","6312503220c83c0fac50a090","F1","batch6","","4031.599999964237","img/question_1_9.jpeg","0","spm_respsonse","1","1","mat_09","","","","","","1","4031.599999964237","","","","","","","","","","","","","","",""
"","","","","","html-keyboard-response","199","477556","0.0-3.0-2.0-0.9","6312503220c83c0fac50a090","F1","batch6","","null","<p class=block-text>Trial 10 out of 60</p>","null","spm_show_trial_num","","","","","","","","","","","","","","","","","","","","","","","","",""
"","","","","","image-button-response","200","489379","0.0-3.0-2.0-1.9","6312503220c83c0fac50a090","F1","batch6","","11820.100000023842","img/question_1_10.jpeg","2","spm_respsonse","1","3","mat_10","","","","","","1","11820.100000023842","","","","","","","","","","","","","","",""
"","","","","","html-keyboard-response","201","490449","0.0-3.0-2.0-0.10","6312503220c83c0fac50a090","F1","batch6","","null","<p class=block-text>Trial 11 out of 60</p>","null","spm_show_trial_num","","","","","","","","","","","","","","","","","","","","","","","","",""
"","","","","","image-button-response","202","501488","0.0-3.0-2.0-1.10","6312503220c83c0fac50a090","F1","batch6","","11036.199999988079","img/question_1_11.jpeg","3","spm_respsonse","1","4","mat_11","","","","","","1","11036.199999988079","","","","","","","","","","","","","","",""
"","","","","","html-keyboard-response","203","502559","0.0-3.0-2.0-0.11","6312503220c83c0fac50a090","F1","batch6","","null","<p class=block-text>Trial 12 out of 60</p>","null","spm_show_trial_num","","","","","","","","","","","","","","","","","","","","","","","","",""
"","","","","","image-button-response","204","511152","0.0-3.0-2.0-1.11","6312503220c83c0fac50a090","F1","batch6","","8589.300000011921","img/question_1_12.jpeg","4","spm_respsonse","1","5","mat_12","","","","","","1","8589.300000011921","","","","","","","","","","","","","","",""
"","","","","","html-keyboard-response","205","512221","0.0-3.0-2.0-0.12","6312503220c83c0fac50a090","F1","batch6","","null","<p class=block-text>Trial 13 out of 60</p>","null","spm_show_trial_num","","","","","","","","","","","","","","","","","","","","","","","","",""
"","","","","","image-button-response","206","515486","0.0-3.0-2.0-1.12","6312503220c83c0fac50a090","F1","batch6","","3262.699999988079","img/question_2_1.jpeg","1","spm_respsonse","1","2","mat_13","","","","","","1","3262.699999988079","","","","","","","","","","","","","","",""
"","","","","","html-keyboard-response","207","516541","0.0-3.0-2.0-0.13","6312503220c83c0fac50a090","F1","batch6","","null","<p class=block-text>Trial 14 out of 60</p>","null","spm_show_trial_num","","","","","","","","","","","","","","","","","","","","","","","","",""
"","","","","","image-button-response","208","521494","0.0-3.0-2.0-1.13","6312503220c83c0fac50a090","F1","batch6","","4951.300000011921","img/question_2_2.jpeg","5","spm_respsonse","1","6","mat_14","","","","","","1","4951.300000011921","","","","","","","","","","","","","","",""
"","","","","","html-keyboard-response","209","522561","0.0-3.0-2.0-0.14","6312503220c83c0fac50a090","F1","batch6","","null","<p class=block-text>Trial 15 out of 60</p>","null","spm_show_trial_num","","","","","","","","","","","","","","","","","","","","","","","","",""
"","","","","","image-button-response","210","525562","0.0-3.0-2.0-1.14","6312503220c83c0fac50a090","F1","batch6","","2998.699999988079","img/question_2_3.jpeg","0","spm_respsonse","1","1","mat_15","","","","","","1","2998.699999988079","","","","","","","","","","","","","","",""
"","","","","","html-keyboard-response","211","526616","0.0-3.0-2.0-0.15","6312503220c83c0fac50a090","F1","batch6","","null","<p class=block-text>Trial 16 out of 60</p>","null","spm_show_trial_num","","","","","","","","","","","","","","","","","","","","","","","","",""
"","","","","","image-button-response","212","529604","0.0-3.0-2.0-1.15","6312503220c83c0fac50a090","F1","batch6","","2985.099999964237","img/question_2_4.jpeg","1","spm_respsonse","1","2","mat_16","","","","","","1","2985.099999964237","","","","","","","","","","","","","","",""
"","","","","","html-keyboard-response","213","530669","0.0-3.0-2.0-0.16","6312503220c83c0fac50a090","F1","batch6","","null","<p class=block-text>Trial 17 out of 60</p>","null","spm_show_trial_num","","","","","","","","","","","","","","","","","","","","","","","","",""
"","","","","","image-button-response","214","534677","0.0-3.0-2.0-1.16","6312503220c83c0fac50a090","F1","batch6","","4004.699999988079","img/question_2_5.jpeg","0","spm_respsonse","1","1","mat_17","","","","","","1","4004.699999988079","","","","","","","","","","","","","","",""
"","","","","","html-keyboard-response","215","535736","0.0-3.0-2.0-0.17","6312503220c83c0fac50a090","F1","batch6","","null","<p class=block-text>Trial 18 out of 60</p>","null","spm_show_trial_num","","","","","","","","","","","","","","","","","","","","","","","","",""
"","","","","","image-button-response","216","540592","0.0-3.0-2.0-1.17","6312503220c83c0fac50a090","F1","batch6","","4853.100000023842","img/question_2_6.jpeg","2","spm_respsonse","1","3","mat_18","","","","","","1","4853.100000023842","","","","","","","","","","","","","","",""
"","","","","","html-keyboard-response","217","541669","0.0-3.0-2.0-0.18","6312503220c83c0fac50a090","F1","batch6","","null","<p class=block-text>Trial 19 out of 60</p>","null","spm_show_trial_num","","","","","","","","","","","","","","","","","","","","","","","","",""
"","","","","","image-button-response","218","549612","0.0-3.0-2.0-1.18","6312503220c83c0fac50a090","F1","batch6","","7939.600000023842","img/question_2_7.jpeg","4","spm_respsonse","1","5","mat_19","","","","","","1","7939.600000023842","","","","","","","","","","","","","","",""
"","","","","","html-keyboard-response","219","550677","0.0-3.0-2.0-0.19","6312503220c83c0fac50a090","F1","batch6","","null","<p class=block-text>Trial 20 out of 60</p>","null","spm_show_trial_num","","","","","","","","","","","","","","","","","","","","","","","","",""
"","","","","","image-button-response","220","556803","0.0-3.0-2.0-1.19","6312503220c83c0fac50a090","F1","batch6","","6123.199999988079","img/question_2_8.jpeg","5","spm_respsonse","1","6","mat_20","","","","","","1","6123.199999988079","","","","","","","","","","","","","","",""
"","","","","","html-keyboard-response","221","557874","0.0-3.0-2.0-0.20","6312503220c83c0fac50a090","F1","batch6","","null","<p class=block-text>Trial 21 out of 60</p>","null","spm_show_trial_num","","","","","","","","","","","","","","","","","","","","","","","","",""
"","","","","","image-button-response","222","562125","0.0-3.0-2.0-1.20","6312503220c83c0fac50a090","F1","batch6","","4248.799999952316","img/question_2_9.jpeg","3","spm_respsonse","1","4","mat_21","","","","","","1","4248.799999952316","","","","","","","","","","","","","","",""
"","","","","","html-keyboard-response","223","563193","0.0-3.0-2.0-0.21","6312503220c83c0fac50a090","F1","batch6","","null","<p class=block-text>Trial 22 out of 60</p>","null","spm_show_trial_num","","","","","","","","","","","","","","","","","","","","","","","","",""
"","","","","","image-button-response","224","569609","0.0-3.0-2.0-1.21","6312503220c83c0fac50a090","F1","batch6","","6413.300000011921","img/question_2_10.jpeg","2","spm_respsonse","1","3","mat_22","","","","","","1","6413.300000011921","","","","","","","","","","","","","","",""
"","","","","","html-keyboard-response","225","570677","0.0-3.0-2.0-0.22","6312503220c83c0fac50a090","F1","batch6","","null","<p class=block-text>Trial 23 out of 60</p>","null","spm_show_trial_num","","","","","","","","","","","","","","","","","","","","","","","","",""
"","","","","","image-button-response","226","584618","0.0-3.0-2.0-1.22","6312503220c83c0fac50a090","F1","batch6","","13938","img/question_2_11.jpeg","3","spm_respsonse","1","4","mat_23","","","","","","1","13938","","","","","","","","","","","","","","",""
"","","","","","html-keyboard-response","227","585692","0.0-3.0-2.0-0.23","6312503220c83c0fac50a090","F1","batch6","","null","<p class=block-text>Trial 24 out of 60</p>","null","spm_show_trial_num","","","","","","","","","","","","","","","","","","","","","","","","",""
"","","","","","image-button-response","228","615114","0.0-3.0-2.0-1.23","6312503220c83c0fac50a090","F1","batch6","","29418.80000001192","img/question_2_12.jpeg","4","spm_respsonse","1","5","mat_24","","","","","","1","29418.80000001192","","","","","","","","","","","","","","",""
"","","","","","html-button-response","229","618121","0.0-3.0-3.0","6312503220c83c0fac50a090","F1","batch6","","2750.5","<p class = block-text>Attention check: Please choose 1<br></p>","0","attention_check","true","","","","","","","","","","","","","","","","","","","","","","","",""
"","","","","","html-keyboard-response","230","618926","0.0-3.0-4.0-0.0","6312503220c83c0fac50a090","F1","batch6","","null","<p class=block-text>Trial 25 out of 60</p>","null","spm_show_trial_num","","","","","","","","","","","","","","","","","","","","","","","","",""
"","","","","","image-button-response","231","626563","0.0-3.0-4.0-1.0","6312503220c83c0fac50a090","F1","batch6","","7633.800000011921","img/question_3_1.jpeg","7","spm_respsonse","1","8","mat_25","","","","","","1","7633.800000011921","","","","","","","","","","","","","","",""
"","","","","","html-keyboard-response","232","627642","0.0-3.0-4.0-0.1","6312503220c83c0fac50a090","F1","batch6","","null","<p class=block-text>Trial 26 out of 60</p>","null","spm_show_trial_num","","","","","","","","","","","","","","","","","","","","","","","","",""
"","","","","","image-button-response","233","638211","0.0-3.0-4.0-1.1","6312503220c83c0fac50a090","F1","batch6","","10566.199999988079","img/question_3_2.jpeg","1","spm_respsonse","1","2","mat_26","","","","","","1","10566.199999988079","","","","","","","","","","","","","","",""
"","","","","","html-keyboard-response","234","639283","0.0-3.0-4.0-0.2","6312503220c83c0fac50a090","F1","batch6","","null","<p class=block-text>Trial 27 out of 60</p>","null","spm_show_trial_num","","","","","","","","","","","","","","","","","","","","","","","","",""
"","","","","","image-button-response","235","695955","0.0-3.0-4.0-1.2","6312503220c83c0fac50a090","F1","batch6","","56669.299999952316","img/question_3_3.jpeg","2","spm_respsonse","1","3","mat_27","","","","","","1","56669.299999952316","","","","","","","","","","","","","","",""
"","","","","","html-keyboard-response","236","697009","0.0-3.0-4.0-0.3","6312503220c83c0fac50a090","F1","batch6","","null","<p class=block-text>Trial 28 out of 60</p>","null","spm_show_trial_num","","","","","","","","","","","","","","","","","","","","","","","","",""
"","","","","","image-button-response","237","710970","0.0-3.0-4.0-1.3","6312503220c83c0fac50a090","F1","batch6","","13958.400000035763","img/question_3_4.jpeg","7","spm_respsonse","1","8","mat_28","","","","","","1","13958.400000035763","","","","","","","","","","","","","","",""
"","","","","","html-keyboard-response","238","712038","0.0-3.0-4.0-0.4","6312503220c83c0fac50a090","F1","batch6","","null","<p class=block-text>Trial 29 out of 60</p>","null","spm_show_trial_num","","","","","","","","","","","","","","","","","","","","","","","","",""
"","","","","","image-button-response","239","720858","0.0-3.0-4.0-1.4","6312503220c83c0fac50a090","F1","batch6","","8817.099999964237","img/question_3_5.jpeg","6","spm_respsonse","1","7","mat_29","","","","","","1","8817.099999964237","","","","","","","","","","","","","","",""
"","","","","","html-keyboard-response","240","721920","0.0-3.0-4.0-0.5","6312503220c83c0fac50a090","F1","batch6","","null","<p class=block-text>Trial 30 out of 60</p>","null","spm_show_trial_num","","","","","","","","","","","","","","","","","","","","","","","","",""
"","","","","","image-button-response","241","732632","0.0-3.0-4.0-1.5","6312503220c83c0fac50a090","F1","batch6","","10709.700000047684","img/question_3_6.jpeg","7","spm_respsonse","0","4","mat_30","","","","","","0","10709.700000047684","","","","","","","","","","","","","","",""
"","","","","","html-keyboard-response","242","733700","0.0-3.0-4.0-0.6","6312503220c83c0fac50a090","F1","batch6","","null","<p class=block-text>Trial 31 out of 60</p>","null","spm_show_trial_num","","","","","","","","","","","","","","","","","","","","","","","","",""
"","","","","","image-button-response","243","740432","0.0-3.0-4.0-1.6","6312503220c83c0fac50a090","F1","batch6","","6728.400000035763","img/question_3_7.jpeg","4","spm_respsonse","1","5","mat_31","","","","","","1","6728.400000035763","","","","","","","","","","","","","","",""
"","","","","","html-keyboard-response","244","741499","0.0-3.0-4.0-0.7","6312503220c83c0fac50a090","F1","batch6","","null","<p class=block-text>Trial 32 out of 60</p>","null","spm_show_trial_num","","","","","","","","","","","","","","","","","","","","","","","","",""
"","","","","","image-button-response","245","759106","0.0-3.0-4.0-1.7","6312503220c83c0fac50a090","F1","batch6","","17604.80000001192","img/question_3_8.jpeg","6","spm_respsonse","0","1","mat_32","","","","","","0","17604.80000001192","","","","","","","","","","","","","","",""
"","","","","","html-keyboard-response","246","760170","0.0-3.0-4.0-0.8","6312503220c83c0fac50a090","F1","batch6","","null","<p class=block-text>Trial 33 out of 60</p>","null","spm_show_trial_num","","","","","","","","","","","","","","","","","","","","","","","","",""
"","","","","","image-button-response","247","774445","0.0-3.0-4.0-1.8","6312503220c83c0fac50a090","F1","batch6","","14272.300000011921","img/question_3_9.jpeg","6","spm_respsonse","1","7","mat_33","","","","","","1","14272.300000011921","","","","","","","","","","","","","","",""
"","","","","","html-keyboard-response","248","775519","0.0-3.0-4.0-0.9","6312503220c83c0fac50a090","F1","batch6","","null","<p class=block-text>Trial 34 out of 60</p>","null","spm_show_trial_num","","","","","","","","","","","","","","","","","","","","","","","","",""
"","","","","","image-button-response","249","815462","0.0-3.0-4.0-1.9","6312503220c83c0fac50a090","F1","batch6","","39939.59999996424","img/question_3_10.jpeg","7","spm_respsonse","0","6","mat_34","","","","","","0","39939.59999996424","","","","","","","","","","","","","","",""
"","","","","","html-keyboard-response","250","816536","0.0-3.0-4.0-0.10","6312503220c83c0fac50a090","F1","batch6","","null","<p class=block-text>Trial 35 out of 60</p>","null","spm_show_trial_num","","","","","","","","","","","","","","","","","","","","","","","","",""
"","","","","","image-button-response","251","836374","0.0-3.0-4.0-1.10","6312503220c83c0fac50a090","F1","batch6","","19835.399999976158","img/question_3_11.jpeg","4","spm_respsonse","0","1","mat_35","","","","","","0","19835.399999976158","","","","","","","","","","","","","","",""
"","","","","","html-keyboard-response","252","837443","0.0-3.0-4.0-0.11","6312503220c83c0fac50a090","F1","batch6","","null","<p class=block-text>Trial 36 out of 60</p>","null","spm_show_trial_num","","","","","","","","","","","","","","","","","","","","","","","","",""
"","","","","","image-button-response","253","855383","0.0-3.0-4.0-1.11","6312503220c83c0fac50a090","F1","batch6","","17936.600000023842","img/question_3_12.jpeg","2","spm_respsonse","0","2","mat_36","","","","","","0","17936.600000023842","","","","","","","","","","","","","","",""
"","","","","","html-keyboard-response","254","856442","0.0-3.0-4.0-0.12","6312503220c83c0fac50a090","F1","batch6","","null","<p class=block-text>Trial 37 out of 60</p>","null","spm_show_trial_num","","","","","","","","","","","","","","","","","","","","","","","","",""
"","","","","","image-button-response","255","861489","0.0-3.0-4.0-1.12","6312503220c83c0fac50a090","F1","batch6","","5043.699999988079","img/question_4_1.jpeg","2","spm_respsonse","1","3","mat_37","","","","","","1","5043.699999988079","","","","","","","","","","","","","","",""
"","","","","","html-keyboard-response","256","862552","0.0-3.0-4.0-0.13","6312503220c83c0fac50a090","F1","batch6","","null","<p class=block-text>Trial 38 out of 60</p>","null","spm_show_trial_num","","","","","","","","","","","","","","","","","","","","","","","","",""
"","","","","","image-button-response","257","883984","0.0-3.0-4.0-1.13","6312503220c83c0fac50a090","F1","batch6","","21428.5","img/question_4_2.jpeg","3","spm_respsonse","1","4","mat_38","","","","","","1","21428.5","","","","","","","","","","","","","","",""
"","","","","","html-keyboard-response","258","885051","0.0-3.0-4.0-0.14","6312503220c83c0fac50a090","F1","batch6","","null","<p class=block-text>Trial 39 out of 60</p>","null","spm_show_trial_num","","","","","","","","","","","","","","","","","","","","","","","","",""
"","","","","","image-button-response","259","920606","0.0-3.0-4.0-1.14","6312503220c83c0fac50a090","F1","batch6","","35552.5","img/question_4_3.jpeg","2","spm_respsonse","1","3","mat_39","","","","","","1","35552.5","","","","","","","","","","","","","","",""
"","","","","","html-keyboard-response","260","921680","0.0-3.0-4.0-0.15","6312503220c83c0fac50a090","F1","batch6","","null","<p class=block-text>Trial 40 out of 60</p>","null","spm_show_trial_num","","","","","","","","","","","","","","","","","","","","","","","","",""
"","","","","","image-button-response","261","932021","0.0-3.0-4.0-1.15","6312503220c83c0fac50a090","F1","batch6","","10337.900000035763","img/question_4_4.jpeg","6","spm_respsonse","1","7","mat_40","","","","","","1","10337.900000035763","","","","","","","","","","","","","","",""
"","","","","","html-keyboard-response","262","933099","0.0-3.0-4.0-0.16","6312503220c83c0fac50a090","F1","batch6","","null","<p class=block-text>Trial 41 out of 60</p>","null","spm_show_trial_num","","","","","","","","","","","","","","","","","","","","","","","","",""
"","","","","","image-button-response","263","948863","0.0-3.0-4.0-1.16","6312503220c83c0fac50a090","F1","batch6","","15761","img/question_4_5.jpeg","7","spm_respsonse","1","8","mat_41","","","","","","1","15761","","","","","","","","","","","","","","",""
"","","","","","html-keyboard-response","264","949930","0.0-3.0-4.0-0.17","6312503220c83c0fac50a090","F1","batch6","","null","<p class=block-text>Trial 42 out of 60</p>","null","spm_show_trial_num","","","","","","","","","","","","","","","","","","","","","","","","",""
"","","","","","image-button-response","265","970545","0.0-3.0-4.0-1.17","6312503220c83c0fac50a090","F1","batch6","","20611.799999952316","img/question_4_6.jpeg","5","spm_respsonse","1","6","mat_42","","","","","","1","20611.799999952316","","","","","","","","","","","","","","",""
"","","","","","html-keyboard-response","266","971615","0.0-3.0-4.0-0.18","6312503220c83c0fac50a090","F1","batch6","","null","<p class=block-text>Trial 43 out of 60</p>","null","spm_show_trial_num","","","","","","","","","","","","","","","","","","","","","","","","",""
"","","","","","image-button-response","267","987194","0.0-3.0-4.0-1.18","6312503220c83c0fac50a090","F1","batch6","","15575.5","img/question_4_7.jpeg","4","spm_respsonse","1","5","mat_43","","","","","","1","15575.5","","","","","","","","","","","","","","",""
"","","","","","html-keyboard-response","268","988270","0.0-3.0-4.0-0.19","6312503220c83c0fac50a090","F1","batch6","","null","<p class=block-text>Trial 44 out of 60</p>","null","spm_show_trial_num","","","","","","","","","","","","","","","","","","","","","","","","",""
"","","","","","image-button-response","269","1006079","0.0-3.0-4.0-1.19","6312503220c83c0fac50a090","F1","batch6","","17810","img/question_4_8.jpeg","3","spm_respsonse","1","4","mat_44","","","","","","1","17810","","","","","","","","","","","","","","",""
"","","","","","html-keyboard-response","270","1007148","0.0-3.0-4.0-0.20","6312503220c83c0fac50a090","F1","batch6","","null","<p class=block-text>Trial 45 out of 60</p>","null","spm_show_trial_num","","","","","","","","","","","","","","","","","","","","","","","","",""
"","","","","","image-button-response","271","1026356","0.0-3.0-4.0-1.20","6312503220c83c0fac50a090","F1","batch6","","19205.099999964237","img/question_4_9.jpeg","0","spm_respsonse","1","1","mat_45","","","","","","1","19205.099999964237","","","","","","","","","","","","","","",""
"","","","","","html-keyboard-response","272","1027426","0.0-3.0-4.0-0.21","6312503220c83c0fac50a090","F1","batch6","","null","<p class=block-text>Trial 46 out of 60</p>","null","spm_show_trial_num","","","","","","","","","","","","","","","","","","","","","","","","",""
"","","","","","image-button-response","273","1045467","0.0-3.0-4.0-1.21","6312503220c83c0fac50a090","F1","batch6","","18037.5","img/question_4_10.jpeg","1","spm_respsonse","1","2","mat_46","","","","","","1","18037.5","","","","","","","","","","","","","","",""
"","","","","","html-keyboard-response","274","1046530","0.0-3.0-4.0-0.22","6312503220c83c0fac50a090","F1","batch6","","null","<p class=block-text>Trial 47 out of 60</p>","null","spm_show_trial_num","","","","","","","","","","","","","","","","","","","","","","","","",""
"","","","","","image-button-response","275","1141153","0.0-3.0-4.0-1.22","6312503220c83c0fac50a090","F1","batch6","","94615.69999998808","img/question_4_11.jpeg","6","spm_respsonse","0","5","mat_47","","","","","","0","94615.69999998808","","","","","","","","","","","","","","",""
"","","","","","html-keyboard-response","276","1142210","0.0-3.0-4.0-0.23","6312503220c83c0fac50a090","F1","batch6","","null","<p class=block-text>Trial 48 out of 60</p>","null","spm_show_trial_num","","","","","","","","","","","","","","","","","","","","","","","","",""
"","","","","","image-button-response","277","1194702","0.0-3.0-4.0-1.23","6312503220c83c0fac50a090","F1","batch6","","52488.39999997616","img/question_4_12.jpeg","5","spm_respsonse","1","6","mat_48","","","","","","1","52488.39999997616","","","","","","","","","","","","","","",""
"","","","","","html-keyboard-response","278","1195778","0.0-3.0-4.0-0.24","6312503220c83c0fac50a090","F1","batch6","","null","<p class=block-text>Trial 49 out of 60</p>","null","spm_show_trial_num","","","","","","","","","","","","","","","","","","","","","","","","",""
"","","","","","image-button-response","279","1211865","0.0-3.0-4.0-1.24","6312503220c83c0fac50a090","F1","batch6","","16084.700000047684","img/question_5_1.jpeg","6","spm_respsonse","1","7","mat_49","","","","","","1","16084.700000047684","","","","","","","","","","","","","","",""
"","","","","","html-keyboard-response","280","1212929","0.0-3.0-4.0-0.25","6312503220c83c0fac50a090","F1","batch6","","null","<p class=block-text>Trial 50 out of 60</p>","null","spm_show_trial_num","","","","","","","","","","","","","","","","","","","","","","","","",""
"","","","","","image-button-response","281","1234679","0.0-3.0-4.0-1.25","6312503220c83c0fac50a090","F1","batch6","","21747.100000023842","img/question_5_2.jpeg","5","spm_respsonse","1","6","mat_50","","","","","","1","21747.100000023842","","","","","","","","","","","","","","",""
"","","","","","html-keyboard-response","282","1235748","0.0-3.0-4.0-0.26","6312503220c83c0fac50a090","F1","batch6","","null","<p class=block-text>Trial 51 out of 60</p>","null","spm_show_trial_num","","","","","","","","","","","","","","","","","","","","","","","","",""
"","","","","","image-button-response","283","1273612","0.0-3.0-4.0-1.26","6312503220c83c0fac50a090","F1","batch6","","37861.80000001192","img/question_5_3.jpeg","5","spm_respsonse","0","8","mat_51","","","","","","0","37861.80000001192","","","","","","","","","","","","","","",""
"","","","","","html-keyboard-response","284","1274686","0.0-3.0-4.0-0.27","6312503220c83c0fac50a090","F1","batch6","","null","<p class=block-text>Trial 52 out of 60</p>","null","spm_show_trial_num","","","","","","","","","","","","","","","","","","","","","","","","",""
"","","","","","image-button-response","285","1373039","0.0-3.0-4.0-1.27","6312503220c83c0fac50a090","F1","batch6","","98350.80000001192","img/question_5_4.jpeg","5","spm_respsonse","0","2","mat_52","","","","","","0","98350.80000001192","","","","","","","","","","","","","","",""
"","","","","","html-keyboard-response","286","1374110","0.0-3.0-4.0-0.28","6312503220c83c0fac50a090","F1","batch6","","null","<p class=block-text>Trial 53 out of 60</p>","null","spm_show_trial_num","","","","","","","","","","","","","","","","","","","","","","","","",""
"","","","","","image-button-response","287","1426015","0.0-3.0-4.0-1.28","6312503220c83c0fac50a090","F1","batch6","","51901.5","img/question_5_5.jpeg","6","spm_respsonse","0","1","mat_53","","","","","","0","51901.5","","","","","","","","","","","","","","",""
"","","","","","html-keyboard-response","288","1427072","0.0-3.0-4.0-0.29","6312503220c83c0fac50a090","F1","batch6","","null","<p class=block-text>Trial 54 out of 60</p>","null","spm_show_trial_num","","","","","","","","","","","","","","","","","","","","","","","","",""
"","","","","","image-button-response","289","1467045","0.0-3.0-4.0-1.29","6312503220c83c0fac50a090","F1","batch6","","39969.80000001192","img/question_5_6.jpeg","6","spm_respsonse","0","5","mat_54","","","","","","0","39969.80000001192","","","","","","","","","","","","","","",""
"","","","","","html-keyboard-response","290","1468099","0.0-3.0-4.0-0.30","6312503220c83c0fac50a090","F1","batch6","","null","<p class=block-text>Trial 55 out of 60</p>","null","spm_show_trial_num","","","","","","","","","","","","","","","","","","","","","","","","",""
"","","","","","image-button-response","291","1506314","0.0-3.0-4.0-1.30","6312503220c83c0fac50a090","F1","batch6","","38212.10000002384","img/question_5_7.jpeg","0","spm_respsonse","1","1","mat_55","","","","","","1","38212.10000002384","","","","","","","","","","","","","","",""
"","","","","","html-keyboard-response","292","1507394","0.0-3.0-4.0-0.31","6312503220c83c0fac50a090","F1","batch6","","null","<p class=block-text>Trial 56 out of 60</p>","null","spm_show_trial_num","","","","","","","","","","","","","","","","","","","","","","","","",""
"","","","","","image-button-response","293","1555546","0.0-3.0-4.0-1.31","6312503220c83c0fac50a090","F1","batch6","","48149.69999998808","img/question_5_8.jpeg","1","spm_respsonse","0","6","mat_56","","","","","","0","48149.69999998808","","","","","","","","","","","","","","",""
"","","","","","html-keyboard-response","294","1556620","0.0-3.0-4.0-0.32","6312503220c83c0fac50a090","F1","batch6","","null","<p class=block-text>Trial 57 out of 60</p>","null","spm_show_trial_num","","","","","","","","","","","","","","","","","","","","","","","","",""
"","","","","","image-button-response","295","1606207","0.0-3.0-4.0-1.32","6312503220c83c0fac50a090","F1","batch6","","49580.200000047684","img/question_5_9.jpeg","2","spm_respsonse","1","3","mat_57","","","","","","1","49580.200000047684","","","","","","","","","","","","","","",""
"","","","","","html-keyboard-response","296","1607267","0.0-3.0-4.0-0.33","6312503220c83c0fac50a090","F1","batch6","","null","<p class=block-text>Trial 58 out of 60</p>","null","spm_show_trial_num","","","","","","","","","","","","","","","","","","","","","","","","",""
"","","","","","image-button-response","297","1673050","0.0-3.0-4.0-1.33","6312503220c83c0fac50a090","F1","batch6","","65779.90000003576","img/question_5_10.jpeg","6","spm_respsonse","0","2","mat_58","","","","","","0","65779.90000003576","","","","","","","","","","","","","","",""
"","","","","","html-keyboard-response","298","1674118","0.0-3.0-4.0-0.34","6312503220c83c0fac50a090","F1","batch6","","null","<p class=block-text>Trial 59 out of 60</p>","null","spm_show_trial_num","","","","","","","","","","","","","","","","","","","","","","","","",""
"","","","","","image-button-response","299","1760933","0.0-3.0-4.0-1.34","6312503220c83c0fac50a090","F1","batch6","","86811.80000001192","img/question_5_11.jpeg","6","spm_respsonse","0","4","mat_59","","","","","","0","86811.80000001192","","","","","","","","","","","","","","",""
"","","","","","html-keyboard-response","300","1761992","0.0-3.0-4.0-0.35","6312503220c83c0fac50a090","F1","batch6","","null","<p class=block-text>Trial 60 out of 60</p>","null","spm_show_trial_num","","","","","","","","","","","","","","","","","","","","","","","","",""
"","","","","","image-button-response","301","1846427","0.0-3.0-4.0-1.35","6312503220c83c0fac50a090","F1","batch6","","84432.59999996424","img/question_5_12.jpeg","1","spm_respsonse","0","5","mat_60","","","","","","0","84432.59999996424","","","","","","","","","","","","","","",""
"","","","","","html-button-response","302","1848748","0.0-3.0-5.0","6312503220c83c0fac50a090","F1","batch6","","2067.5","<p class= block-text>This concludes the Standard Progressive Matrix game. Thank you for your responses!<br> When you are ready, click the button continue</p>","0","spm_goodbye","","","","","","","","","","","","","","","","","","","","","","","","",""
"true","","","","","fullscreen","303","1851583","0.0-4.0-0.0","6312503220c83c0fac50a090","F1","batch6","","","","","","","","","","","","","","","","","","","","","","","","","","","","","",""
"","","","","","instructions","304","1917424","0.0-4.0-1.0-0.0-0.0","6312503220c83c0fac50a090","F1","batch6","[{""page_index"":0,""viewing_time"":13087.300000011921},{""page_index"":1,""viewing_time"":7037.800000011921},{""page_index"":2,""viewing_time"":10381.799999952316},{""page_index"":3,""viewing_time"":10310.5},{""page_index"":4,""viewing_time"":8649.100000023842},{""page_index"":5,""viewing_time"":13403.600000023842},{""page_index"":6,""viewing_time"":2969.399999976158}]","65839.89999997616","","","tol-instructions","","","","","","","","","","","","","","","","","","","","","","","","",""
"","","","","","html-button-response","305","1919469","0.0-4.0-1.0-1.0-0.0","6312503220c83c0fac50a090","F1","batch6","","2043.1000000238419","<p class=block-text> Let's answer a few questions <br>","0","tol_enter_quiz","","","","","","","","","","","","","","","","","","","","","","","","",""
"","","","","","html-button-response","306","1924607","0.0-4.0-1.0-1.0-1.0","6312503220c83c0fac50a090","F1","batch6","","5137.199999988079","<p class = block-text>True or False: You can only move the ball on top of a peg. <br></p>","0","tol_quiz","true","","","","","","","","","","","","","","","","","","","","","","","",""
"","","","","","html-button-response","307","1926318","0.0-4.0-1.0-1.0-2.0","6312503220c83c0fac50a090","F1","batch6","","1708.7000000476837","<p class = block-text>Correct! You can only move the ball on top of a peg.</p>","0","tol_quiz_feedback","","","","","","","","","","","","","","","","","","","","","","","","",""
"","","","","","html-button-response","308","1930874","0.0-4.0-1.0-1.0-3.0","6312503220c83c0fac50a090","F1","batch6","","4554.399999976158","<p class = block-text>True or False: You should try to match your board with the target board with fewest moves possible. <br></p>","0","tol_quiz","true","","","","","","","","","","","","","","","","","","","","","","","",""
"","","","","","html-button-response","309","1932062","0.0-4.0-1.0-1.0-4.0","6312503220c83c0fac50a090","F1","batch6","","1187.5","<p class = block-text>Correct! </p>","0","tol_quiz_feedback","","","","","","","","","","","","","","","","","","","","","","","","",""
"","","","","","html-button-response","310","1933413","0.0-4.0-2.0","6312503220c83c0fac50a090","F1","batch6","","1348.699999988079","<p class=block-text> Now that you've understood the game, let's practice a few easier examples before we start!<br> <br>","0","","","","","","","","","","","","","","","","","","","","","","","","","",""
"","","","","","single-stim-button","311","1936925","0.0-4.0-3.0-0.0","6312503220c83c0fac50a090","F1","batch6","","3509","","","tol_practice","","","","","","","","","","","tol_peg_2","3509","3509","0","[[1,2,0],[0,0],[0]]","1","[[1,2,0],[0,0],[3]]","practice","3509","","","","","",""
"","","","","","single-stim-button","312","1937770","0.0-4.0-3.0-1.0","6312503220c83c0fac50a090","F1","batch6","","843","","","tol_practice","","","","","","","","","","","tol_peg_3","843","843","0","[[1,2,0],[0,0],[3]]","1","[[1,2,0],[0,0],[3]]","practice","843","","","","","",""
"","","","","","poldrack-single-stim","313","1938776","0.0-4.0-4.0","6312503220c83c0fac50a090","F1","batch6","","-1","","","tol_feedback","true","","","","","","","","","","","1000","1000","500","","","","","","-1","none","true","","0",""
"","","","","","single-stim-button","314","1944865","0.0-4.0-5.0-0.0","6312503220c83c0fac50a090","F1","batch6","","6088","","","tol_practice","","","","","","","","","","","tol_peg_1","6088","6088","0","[[1,0,0],[3,0],[0]]","2","[[0,0,0],[3,1],[2]]","practice","6088","","","","","",""
"","","","","","single-stim-button","315","1945873","0.0-4.0-5.0-1.0","6312503220c83c0fac50a090","F1","batch6","","1006","","","tol_practice","","","","","","","","","","","tol_peg_3","1006","1006","0","[[1,0,0],[3,0],[2]]","2","[[0,0,0],[3,1],[2]]","practice","1006","","","","","",""
"","","","","","single-stim-button","316","1948921","0.0-4.0-5.1-0.1","6312503220c83c0fac50a090","F1","batch6","","3048","","","tol_practice","","","","","","","","","","","tol_peg_1","3048","3048","0","[[0,0,0],[3,0],[2]]","3","[[0,0,0],[3,1],[2]]","practice","3048","","","","","",""
"","","","","","single-stim-button","317","1950165","0.0-4.0-5.1-1.1","6312503220c83c0fac50a090","F1","batch6","","1242","","","tol_practice","","","","","","","","","","","tol_peg_2","1242","1242","0","[[0,0,0],[3,1],[2]]","3","[[0,0,0],[3,1],[2]]","practice","1242","","","","","",""
"","","","","","poldrack-single-stim","318","1951168","0.0-4.0-6.0","6312503220c83c0fac50a090","F1","batch6","","-1","","","tol_feedback","true","","","","","","","","","","","1000","1000","500","","","","","","-1","none","true","","0",""
"","","","","","single-stim-button","319","1955621","0.0-4.0-7.0-0.0","6312503220c83c0fac50a090","F1","batch6","","4452","","","tol_practice","","","","","","","","","","","tol_peg_2","4452","4452","0","[[1,2,0],[0,0],[0]]","4","[[1,0,0],[2,0],[3]]","practice","4452","","","","","",""
"","","","","","single-stim-button","320","1956637","0.0-4.0-7.0-1.0","6312503220c83c0fac50a090","F1","batch6","","1014","","","tol_practice","","","","","","","","","","","tol_peg_3","1014","1014","0","[[1,2,0],[0,0],[3]]","4","[[1,0,0],[2,0],[3]]","practice","1014","","","","","",""
"","","","","","single-stim-button","321","1957950","0.0-4.0-7.1-0.1","6312503220c83c0fac50a090","F1","batch6","","1312","","","tol_practice","","","","","","","","","","","tol_peg_1","1312","1312","0","[[1,0,0],[0,0],[3]]","5","[[1,0,0],[2,0],[3]]","practice","1312","","","","","",""
"","","","","","single-stim-button","322","1958967","0.0-4.0-7.1-1.1","6312503220c83c0fac50a090","F1","batch6","","1016","","","tol_practice","","","","","","","","","","","tol_peg_2","1016","1016","0","[[1,0,0],[2,0],[3]]","5","[[1,0,0],[2,0],[3]]","practice","1016","","","","","",""
"","","","","","poldrack-single-stim","323","1959975","0.0-4.0-8.0","6312503220c83c0fac50a090","F1","batch6","","-1","","","tol_feedback","true","","","","","","","","","","","1000","1000","500","","","","","","-1","none","true","","0",""
"","","","","","html-button-response","324","1963979","0.0-4.0-9.0","6312503220c83c0fac50a090","F1","batch6","","4003.300000011921","<div class = centerbox><p class = center-block-text>Great job! You are done with practice trials<br>You are about to start official trials.<br> <br> Problem <strong>1</strong> out of 25 problems</p></div>","0","tol_instruction","","","","","","","","","","","","","","","","","","","","","","","","",""
"","","","","","single-stim-button","325","1972879","0.0-4.0-10.0-0.0","6312503220c83c0fac50a090","F1","batch6","","7889","","","tol_tohand","","","","","","","","","","","tol_peg_2","7889","7889","0","[[1,2,0],[0,0],[0]]","1","[[1,3,0],[2,0],[0]]","0","0","","","","","","3"
"","","","","","single-stim-button","326","1974752","0.0-4.0-10.0-1.0","6312503220c83c0fac50a090","F1","batch6","","1872","","","tol_toboard","","","","","","","","","","","tol_peg_3","1872","1872","0","[[1,2,0],[0,0],[3]]","1","[[1,3,0],[2,0],[0]]","0","0","","","","","","3"
"","","","","","single-stim-button","327","1975987","0.0-4.0-10.1-0.1","6312503220c83c0fac50a090","F1","batch6","","1233","","","tol_tohand","","","","","","","","","","","tol_peg_1","1233","1233","0","[[1,0,0],[0,0],[3]]","2","[[1,3,0],[2,0],[0]]","0","0","","","","","","3"
"","","","","","single-stim-button","328","1976984","0.0-4.0-10.1-1.1","6312503220c83c0fac50a090","F1","batch6","","997","","","tol_toboard","","","","","","","","","","","tol_peg_2","997","997","0","[[1,0,0],[2,0],[3]]","2","[[1,3,0],[2,0],[0]]","0","0","","","","","","3"
"","","","","","single-stim-button","329","1978150","0.0-4.0-10.2-0.2","6312503220c83c0fac50a090","F1","batch6","","1165","","","tol_tohand","","","","","","","","","","","tol_peg_3","1165","1165","0","[[1,0,0],[2,0],[0]]","3","[[1,3,0],[2,0],[0]]","0","0","","","","","","3"
"","","","","","single-stim-button","330","1979186","0.0-4.0-10.2-1.2","6312503220c83c0fac50a090","F1","batch6","","1036","","","tol_toboard","","","","","","","","","","","tol_peg_1","1036","1036","0","[[1,3,0],[2,0],[0]]","3","[[1,3,0],[2,0],[0]]","0","0","","","","","","3"
"","","","","","poldrack-single-stim","331","1980196","0.0-4.0-11.0","6312503220c83c0fac50a090","F1","batch6","","-1","","","tol_feedback","true","","","","","","","","","","","1000","1000","500","","","","","","-1","none","true","7889","10287",""
"","","","","","html-button-response","332","1981628","0.0-4.0-12.0","6312503220c83c0fac50a090","F1","batch6","","1430.199999988079","<div class = centerbox><p class = center-block-text>problem <strong>2</strong> out of 25 problems</p></div>","0","tol_trial_num","","","","","","","","","","","","","","","","","","","","","","","","",""
"","","","","","single-stim-button","333","1985868","0.0-4.0-13.0-0.0","6312503220c83c0fac50a090","F1","batch6","","4239","","","tol_tohand","","","","","","","","","","","tol_peg_1","4239","4239","0","[[1,0,0],[3,0],[0]]","1","[[2,1,3],[0,0],[0]]","1","0","","","","","","5"
"","","","","","single-stim-button","334","1990517","0.0-4.0-13.0-1.0","6312503220c83c0fac50a090","F1","batch6","","4648","","","tol_toboard","","","","","","","","","","","tol_peg_3","4648","4648","0","[[1,0,0],[3,0],[2]]","1","[[2,1,3],[0,0],[0]]","1","0","","","","","","5"
"","","","","","single-stim-button","335","2008000","0.0-4.0-13.1-0.1","6312503220c83c0fac50a090","F1","batch6","","17481","","","tol_tohand","","","","","","","","","","","tol_peg_3","17481","17481","0","[[1,0,0],[3,0],[0]]","2","[[2,1,3],[0,0],[0]]","1","0","","","","","","5"
"","","","","","single-stim-button","336","2009733","0.0-4.0-13.1-1.1","6312503220c83c0fac50a090","F1","batch6","","1732","","","tol_toboard","","","","","","","","","","","tol_peg_2","1732","1732","0","[[1,0,0],[3,2],[0]]","2","[[2,1,3],[0,0],[0]]","1","0","","","","","","5"
"","","","","","single-stim-button","337","2010481","0.0-4.0-13.2-0.2","6312503220c83c0fac50a090","F1","batch6","","746","","","tol_tohand","","","","","","","","","","","tol_peg_1","746","746","0","[[0,0,0],[3,2],[0]]","3","[[2,1,3],[0,0],[0]]","1","0","","","","","","5"
"","","","","","single-stim-button","338","2011452","0.0-4.0-13.2-1.2","6312503220c83c0fac50a090","F1","batch6","","971","","","tol_toboard","","","","","","","","","","","tol_peg_3","971","971","0","[[0,0,0],[3,2],[1]]","3","[[2,1,3],[0,0],[0]]","1","0","","","","","","5"
"","","","","","single-stim-button","339","2013046","0.0-4.0-13.3-0.3","6312503220c83c0fac50a090","F1","batch6","","1592","","","tol_tohand","","","","","","","","","","","tol_peg_2","1592","1592","0","[[0,0,0],[3,0],[1]]","4","[[2,1,3],[0,0],[0]]","1","0","","","","","","5"
"","","","","","single-stim-button","340","2013820","0.0-4.0-13.3-1.3","6312503220c83c0fac50a090","F1","batch6","","773","","","tol_toboard","","","","","","","","","","","tol_peg_1","773","773","0","[[2,0,0],[3,0],[1]]","4","[[2,1,3],[0,0],[0]]","1","0","","","","","","5"
"","","","","","single-stim-button","341","2016829","0.0-4.0-13.4-0.4","6312503220c83c0fac50a090","F1","batch6","","3008","","","tol_tohand","","","","","","","","","","","tol_peg_3","3008","3008","0","[[2,0,0],[3,0],[0]]","5","[[2,1,3],[0,0],[0]]","1","0","","","","","","5"
"","","","","","single-stim-button","342","2018380","0.0-4.0-13.4-1.4","6312503220c83c0fac50a090","F1","batch6","","1551","","","tol_toboard","","","","","","","","","","","tol_peg_1","1551","1551","0","[[2,1,0],[3,0],[0]]","5","[[2,1,3],[0,0],[0]]","1","0","","","","","","5"
"","","","","","single-stim-button","343","2019112","0.0-4.0-13.5-0.5","6312503220c83c0fac50a090","F1","batch6","","731","","","tol_tohand","","","","","","","","","","","tol_peg_2","731","731","0","[[2,1,0],[0,0],[0]]","6","[[2,1,3],[0,0],[0]]","1","0","","","","","","5"
"","","","","","single-stim-button","344","2019911","0.0-4.0-13.5-1.5","6312503220c83c0fac50a090","F1","batch6","","797","","","tol_toboard","","","","","","","","","","","tol_peg_1","797","797","0","[[2,1,3],[0,0],[0]]","6","[[2,1,3],[0,0],[0]]","1","0","","","","","","5"
"","","","","","poldrack-single-stim","345","2020920","0.0-4.0-14.0","6312503220c83c0fac50a090","F1","batch6","","-1","","","tol_feedback","true","","","","","","","","","","","1000","1000","500","","","","","","-1","none","true","4239","27797",""
"","","","","","html-button-response","346","2022415","0.0-4.0-15.0","6312503220c83c0fac50a090","F1","batch6","","1493.0999999642372","<div class = centerbox><p class = center-block-text>problem <strong>3</strong> out of 25 problems</p></div>","0","tol_trial_num","","","","","","","","","","","","","","","","","","","","","","","","",""
"","","","","","single-stim-button","347","2032813","0.0-4.0-16.0-0.0","6312503220c83c0fac50a090","F1","batch6","","10397","","","tol_tohand","","","","","","","","","","","tol_peg_1","10397","10397","0","[[2,0,0],[0,0],[1]]","1","[[1,2,0],[3,0],[0]]","2","0","","","","","","4"
