"success","timeout","failed_images","failed_audio","failed_video","trial_type","trial_index","time_elapsed","internal_node_id","subject_id","study_id","session_id","view_history","rt","stimulus","response","task","correct","answer","item","fiar_detect_rt","fiar_detect_correct","total_correct_fiar_detect","post_trial_gap","choices","spm_correct","spm_rt","mouse_click","stim_duration","block_duration","timing_post_trial","current_position","tol_num_moves_made","tol_target","tol_problem_id","tol_rt","key_press","possible_responses","tol_correct","preplanning","tol_rt_per_trial","tol_min_moves"
"true","false","[]","[]","[]","preload","0","1565","0.0-0.0","63169589b2fd7dd8f24702ba","B2","batch2","","","","","","","","","","","","","","","","","","","","","","","","","","","","","",""
"true","","","","","fullscreen","1","17082","0.0-1.0-0.0","63169589b2fd7dd8f24702ba","B2","batch2","","","","","","","","","","","","","","","","","","","","","","","","","","","","","",""
"true","","","","","fullscreen","2","21823","0.0-2.0-0.0","63169589b2fd7dd8f24702ba","B2","batch2","","","","","","","","","","","","","","","","","","","","","","","","","","","","","",""
"","","","","","instructions","3","61294","0.0-2.0-1.0-0.0","63169589b2fd7dd8f24702ba","B2","batch2","[{""page_index"":0,""viewing_time"":6191.5},{""page_index"":1,""viewing_time"":6001},{""page_index"":0,""viewing_time"":16746},{""page_index"":1,""viewing_time"":10531.39999999106}]","39470.19999998808","","","","","","","","","","","","","","","","","","","","","","","","","","","",""
"","","","","","html-button-response","4","62876","0.0-2.0-1.0-1.0-0.0","63169589b2fd7dd8f24702ba","B2","batch2","","1581.7000000029802","<p class=block-text> Let's answer a few questions <br>","0","pattern_enter_quiz","","","","","","","","","","","","","","","","","","","","","","","","",""
"","","","","","html-button-response","5","67289","0.0-2.0-1.0-1.0-1.0","63169589b2fd7dd8f24702ba","B2","batch2","","4412.0999999940395","<p class = block-text>True or False: You will have as much time as you want to make each choice. <br></p>","1","pattern_quiz","true","","","","","","","","","","","","","","","","","","","","","","","",""
"","","","","","html-button-response","6","69734","0.0-2.0-1.0-1.0-2.0","63169589b2fd7dd8f24702ba","B2","batch2","","2444.5","<p class = block-text>Correct! You should make your choice <strong> as fast as you can</strong>.</p>","0","pattern_quiz_feedback","","","","","","","","","","","","","","","","","","","","","","","","",""
"","","","","","html-button-response","7","73912","0.0-2.0-1.0-1.0-3.0","63169589b2fd7dd8f24702ba","B2","batch2","","4177.70000000298","<p class = block-text>True or False: You will look for 4 pieces in black or white color connected in a row either horizontally, vertically or diagonally. <br></p>","0","pattern_quiz","true","","","","","","","","","","","","","","","","","","","","","","","",""
"","","","","","html-button-response","8","76016","0.0-2.0-1.0-1.0-4.0","63169589b2fd7dd8f24702ba","B2","batch2","","2103.3999999910593","<p class = block-text>Correct! </p>","0","pattern_quiz_feedback","","","","","","","","","","","","","","","","","","","","","","","","",""
"","","","","","html-button-response","9","77978","0.0-2.0-2.0","63169589b2fd7dd8f24702ba","B2","batch2","","1960.2999999970198","<p class=block-text> Now that you've understood the game, let's do a few practice trials before we start!<br> <br>","0","pattern_enter_practice","","","","","","","","","","","","","","","","","","","","","","","","",""
"","","","","","image-keyboard-response","10","79020","0.0-2.0-3.0-0.0","63169589b2fd7dd8f24702ba","B2","batch2","","1039.7999999970198","stim/prac_yes_16_ver_w1.png","f","pattern_practice","true","f","","","","","","","","","","","","","","","","","","","","","","",""
"","","","","","html-keyboard-response","11","80026","0.0-2.0-3.0-1.0","63169589b2fd7dd8f24702ba","B2","batch2","","null","<p style=""font-size:30px;color:green;"">Correct!</p>","null","pattern_feedback","","","","","","","","","","","","","","","","","","","","","","","","",""
"","","","","","image-keyboard-response","12","81110","0.0-2.0-3.0-0.1","63169589b2fd7dd8f24702ba","B2","batch2","","1082.5","stim/prac_yes_18_hor_w1.png","f","pattern_practice","true","f","","","","","","","","","","","","","","","","","","","","","","",""
"","","","","","html-keyboard-response","13","82130","0.0-2.0-3.0-1.1","63169589b2fd7dd8f24702ba","B2","batch2","","null","<p style=""font-size:30px;color:green;"">Correct!</p>","null","pattern_feedback","","","","","","","","","","","","","","","","","","","","","","","","",""
"","","","","","image-keyboard-response","14","82945","0.0-2.0-3.0-0.2","63169589b2fd7dd8f24702ba","B2","batch2","","812.6000000089407","stim/prac_no_18_1.png","j","pattern_practice","true","j","","","","","","","","","","","","","","","","","","","","","","",""
"","","","","","html-keyboard-response","15","83963","0.0-2.0-3.0-1.2","63169589b2fd7dd8f24702ba","B2","batch2","","null","<p style=""font-size:30px;color:green;"">Correct!</p>","null","pattern_feedback","","","","","","","","","","","","","","","","","","","","","","","","",""
"","","","","","image-keyboard-response","16","85122","0.0-2.0-3.0-0.3","63169589b2fd7dd8f24702ba","B2","batch2","","1157.4000000059605","stim/prac_no_16_1.png","j","pattern_practice","true","j","","","","","","","","","","","","","","","","","","","","","","",""
"","","","","","html-keyboard-response","17","86126","0.0-2.0-3.0-1.3","63169589b2fd7dd8f24702ba","B2","batch2","","null","<p style=""font-size:30px;color:green;"">Correct!</p>","null","pattern_feedback","","","","","","","","","","","","","","","","","","","","","","","","",""
"","","","","","image-keyboard-response","18","87155","0.0-2.0-3.0-0.4","63169589b2fd7dd8f24702ba","B2","batch2","","1027.800000011921","stim/prac_yes_20_dia_b1.png","f","pattern_practice","true","f","","","","","","","","","","","","","","","","","","","","","","",""
"","","","","","html-keyboard-response","19","88170","0.0-2.0-3.0-1.4","63169589b2fd7dd8f24702ba","B2","batch2","","null","<p style=""font-size:30px;color:green;"">Correct!</p>","null","pattern_feedback","","","","","","","","","","","","","","","","","","","","","","","","",""
"","","","","","html-button-response","20","92604","0.0-2.0-4.0","63169589b2fd7dd8f24702ba","B2","batch2","","4432.800000011921","<p class=block-text> Good job! You are done with practice trials!<br>
        You responded correctly on 100% of the trials.<br>
        Press the button below to start official trials. Now you won't see any feedback about your response</p>","0","pattern_enter_official_trials","","","","","","","","","","","","","","","","","","","","","","","","",""
"","","","","","html-keyboard-response","21","93411","0.0-2.0-5.0-0.0","63169589b2fd7dd8f24702ba","B2","batch2","","null","<p class=block-text>Trial 1 out of 78</p>","null","pattern_show_trial_num","","","","","","","","","","","","","","","","","","","","","","","","",""
"","","","","","image-keyboard-response","22","94550","0.0-2.0-5.0-1.0","63169589b2fd7dd8f24702ba","B2","batch2","","1137.4000000059605","stim/no_15_1_w.png","j","pattern_response","true","j","pattern_03","1137.4000000059605","true","1","","","","","","","","","","","","","","","","","","",""
"","","","","","html-keyboard-response","23","95855","0.0-2.0-5.0-0.1","63169589b2fd7dd8f24702ba","B2","batch2","","null","<p class=block-text>Trial 2 out of 78</p>","null","pattern_show_trial_num","","","","","","","","","","","","","","","","","","","","","","","","",""
"","","","","","image-keyboard-response","24","96655","0.0-2.0-5.0-1.1","63169589b2fd7dd8f24702ba","B2","batch2","","798.5999999940395","stim/yes_29_hor_b1_b.png","f","pattern_response","true","f","pattern_52","798.5999999940395","true","2","","","","","","","","","","","","","","","","","","",""
"","","","","","html-keyboard-response","25","97965","0.0-2.0-5.0-0.2","63169589b2fd7dd8f24702ba","B2","batch2","","null","<p class=block-text>Trial 3 out of 78</p>","null","pattern_show_trial_num","","","","","","","","","","","","","","","","","","","","","","","","",""
"","","","","","image-keyboard-response","26","99968","0.0-2.0-5.0-1.2","63169589b2fd7dd8f24702ba","B2","batch2","","2000.5999999940395","stim/no_28_2.png","j","pattern_response","true","j","pattern_11","2000.5999999940395","true","3","","","","","","","","","","","","","","","","","","",""
"","","","","","html-keyboard-response","27","101280","0.0-2.0-5.0-0.3","63169589b2fd7dd8f24702ba","B2","batch2","","null","<p class=block-text>Trial 4 out of 78</p>","null","pattern_show_trial_num","","","","","","","","","","","","","","","","","","","","","","","","",""
"","","","","","image-keyboard-response","28","107000","0.0-2.0-5.0-1.3","63169589b2fd7dd8f24702ba","B2","batch2","","5717.399999991059","stim/no_58_1_w.png","j","pattern_response","true","j","pattern_35","5717.399999991059","true","4","","","","","","","","","","","","","","","","","","",""
"","","","","","html-keyboard-response","29","108330","0.0-2.0-5.0-0.4","63169589b2fd7dd8f24702ba","B2","batch2","","null","<p class=block-text>Trial 5 out of 78</p>","null","pattern_show_trial_num","","","","","","","","","","","","","","","","","","","","","","","","",""
"","","","","","image-keyboard-response","30","109224","0.0-2.0-5.0-1.4","63169589b2fd7dd8f24702ba","B2","batch2","","891.2000000029802","stim/yes_30_ver_b1_b.png","f","pattern_response","true","f","pattern_54","891.2000000029802","true","5","","","","","","","","","","","","","","","","","","",""
"","","","","","html-keyboard-response","31","110534","0.0-2.0-5.0-0.5","63169589b2fd7dd8f24702ba","B2","batch2","","null","<p class=block-text>Trial 6 out of 78</p>","null","pattern_show_trial_num","","","","","","","","","","","","","","","","","","","","","","","","",""
"","","","","","image-keyboard-response","32","112020","0.0-2.0-5.0-1.5","63169589b2fd7dd8f24702ba","B2","batch2","","1483.7999999970198","stim/no_25_1_b.png","j","pattern_response","true","j","pattern_09","1483.7999999970198","true","6","","","","","","","","","","","","","","","","","","",""
"","","","","","html-keyboard-response","33","113326","0.0-2.0-5.0-0.6","63169589b2fd7dd8f24702ba","B2","batch2","","null","<p class=block-text>Trial 7 out of 78</p>","null","pattern_show_trial_num","","","","","","","","","","","","","","","","","","","","","","","","",""
"","","","","","image-keyboard-response","34","114955","0.0-2.0-5.0-1.6","63169589b2fd7dd8f24702ba","B2","batch2","","1626.2999999970198","stim/no_36_1_b.png","j","pattern_response","true","j","pattern_17","1626.2999999970198","true","7","","","","","","","","","","","","","","","","","","",""
"","","","","","html-keyboard-response","35","116270","0.0-2.0-5.0-0.7","63169589b2fd7dd8f24702ba","B2","batch2","","null","<p class=block-text>Trial 8 out of 78</p>","null","pattern_show_trial_num","","","","","","","","","","","","","","","","","","","","","","","","",""
"","","","","","image-keyboard-response","36","117033","0.0-2.0-5.0-1.7","63169589b2fd7dd8f24702ba","B2","batch2","","762","stim/no_22_1_b.png","j","pattern_response","true","j","pattern_07","762","true","8","","","","","","","","","","","","","","","","","","",""
"","","","","","html-keyboard-response","37","118343","0.0-2.0-5.0-0.8","63169589b2fd7dd8f24702ba","B2","batch2","","null","<p class=block-text>Trial 9 out of 78</p>","null","pattern_show_trial_num","","","","","","","","","","","","","","","","","","","","","","","","",""
"","","","","","image-keyboard-response","38","119673","0.0-2.0-5.0-1.8","63169589b2fd7dd8f24702ba","B2","batch2","","1328.6000000089407","stim/yes_49_hor_w1_b.png","f","pattern_response","true","f","pattern_70","1328.6000000089407","true","9","","","","","","","","","","","","","","","","","","",""
"","","","","","html-keyboard-response","39","120979","0.0-2.0-5.0-0.9","63169589b2fd7dd8f24702ba","B2","batch2","","null","<p class=block-text>Trial 10 out of 78</p>","null","pattern_show_trial_num","","","","","","","","","","","","","","","","","","","","","","","","",""
"","","","","","image-keyboard-response","40","121660","0.0-2.0-5.0-1.9","63169589b2fd7dd8f24702ba","B2","batch2","","679.0999999940395","stim/yes_12_hor_w1_w.png","f","pattern_response","true","f","pattern_42","679.0999999940395","true","10","","","","","","","","","","","","","","","","","","",""
"","","","","","html-keyboard-response","41","122976","0.0-2.0-5.0-0.10","63169589b2fd7dd8f24702ba","B2","batch2","","null","<p class=block-text>Trial 11 out of 78</p>","null","pattern_show_trial_num","","","","","","","","","","","","","","","","","","","","","","","","",""
"","","","","","image-keyboard-response","42","123876","0.0-2.0-5.0-1.10","63169589b2fd7dd8f24702ba","B2","batch2","","897.7999999970198","stim/yes_33_dia_w1_w.png","j","pattern_response","false","f","pattern_56","897.7999999970198","false","10","","","","","","","","","","","","","","","","","","",""
"","","","","","html-keyboard-response","43","125187","0.0-2.0-5.0-0.11","63169589b2fd7dd8f24702ba","B2","batch2","","null","<p class=block-text>Trial 12 out of 78</p>","null","pattern_show_trial_num","","","","","","","","","","","","","","","","","","","","","","","","",""
"","","","","","image-keyboard-response","44","127077","0.0-2.0-5.0-1.11","63169589b2fd7dd8f24702ba","B2","batch2","","1888.2999999970198","stim/yes_42_dia_w1_w.png","j","pattern_response","false","f","pattern_64","1888.2999999970198","false","10","","","","","","","","","","","","","","","","","","",""
"","","","","","html-keyboard-response","45","128391","0.0-2.0-5.0-0.12","63169589b2fd7dd8f24702ba","B2","batch2","","null","<p class=block-text>Trial 13 out of 78</p>","null","pattern_show_trial_num","","","","","","","","","","","","","","","","","","","","","","","","",""
"","","","","","image-keyboard-response","46","129162","0.0-2.0-5.0-1.12","63169589b2fd7dd8f24702ba","B2","batch2","","769.2000000029802","stim/yes_36_ver_w1_w.png","f","pattern_response","true","f","pattern_58","769.2000000029802","true","11","","","","","","","","","","","","","","","","","","",""
"","","","","","html-keyboard-response","47","130477","0.0-2.0-5.0-0.13","63169589b2fd7dd8f24702ba","B2","batch2","","null","<p class=block-text>Trial 14 out of 78</p>","null","pattern_show_trial_num","","","","","","","","","","","","","","","","","","","","","","","","",""
"","","","","","image-keyboard-response","48","131226","0.0-2.0-5.0-1.13","63169589b2fd7dd8f24702ba","B2","batch2","","746.7999999970198","stim/yes_17_ver_b1_b.png","f","pattern_response","true","f","pattern_46","746.7999999970198","true","12","","","","","","","","","","","","","","","","","","",""
"","","","","","html-keyboard-response","49","132542","0.0-2.0-5.0-0.14","63169589b2fd7dd8f24702ba","B2","batch2","","null","<p class=block-text>Trial 15 out of 78</p>","null","pattern_show_trial_num","","","","","","","","","","","","","","","","","","","","","","","","",""
"","","","","","image-keyboard-response","50","134041","0.0-2.0-5.0-1.14","63169589b2fd7dd8f24702ba","B2","batch2","","1496.9000000059605","stim/no_47_1_b.png","j","pattern_response","true","j","pattern_27","1496.9000000059605","true","13","","","","","","","","","","","","","","","","","","",""
"","","","","","html-keyboard-response","51","135348","0.0-2.0-5.0-0.15","63169589b2fd7dd8f24702ba","B2","batch2","","null","<p class=block-text>Trial 16 out of 78</p>","null","pattern_show_trial_num","","","","","","","","","","","","","","","","","","","","","","","","",""
"","","","","","image-keyboard-response","52","136194","0.0-2.0-5.0-1.15","63169589b2fd7dd8f24702ba","B2","batch2","","843.1000000089407","stim/yes_51_dia_b1.png","j","pattern_response","false","f","pattern_72","843.1000000089407","false","13","","","","","","","","","","","","","","","","","","",""
"","","","","","html-keyboard-response","53","137511","0.0-2.0-5.0-0.16","63169589b2fd7dd8f24702ba","B2","batch2","","null","<p class=block-text>Trial 17 out of 78</p>","null","pattern_show_trial_num","","","","","","","","","","","","","","","","","","","","","","","","",""
"","","","","","image-keyboard-response","54","138881","0.0-2.0-5.0-1.16","63169589b2fd7dd8f24702ba","B2","batch2","","1368.2000000029802","stim/no_45_1_w.png","j","pattern_response","true","j","pattern_25","1368.2000000029802","true","14","","","","","","","","","","","","","","","","","","",""
"","","","","","html-keyboard-response","55","140187","0.0-2.0-5.0-0.17","63169589b2fd7dd8f24702ba","B2","batch2","","null","<p class=block-text>Trial 18 out of 78</p>","null","pattern_show_trial_num","","","","","","","","","","","","","","","","","","","","","","","","",""
"","","","","","image-keyboard-response","56","141415","0.0-2.0-5.0-1.17","63169589b2fd7dd8f24702ba","B2","batch2","","1225.5","stim/no_33_1_b.png","j","pattern_response","true","j","pattern_15","1225.5","true","15","","","","","","","","","","","","","","","","","","",""
"","","","","","html-keyboard-response","57","142730","0.0-2.0-5.0-0.18","63169589b2fd7dd8f24702ba","B2","batch2","","null","<p class=block-text>Trial 19 out of 78</p>","null","pattern_show_trial_num","","","","","","","","","","","","","","","","","","","","","","","","",""
"","","","","","image-keyboard-response","58","145041","0.0-2.0-5.0-1.18","63169589b2fd7dd8f24702ba","B2","batch2","","2309.800000011921","stim/no_51_1.png","j","pattern_response","true","j","pattern_31","2309.800000011921","true","16","","","","","","","","","","","","","","","","","","",""
"","","","","","html-keyboard-response","59","146347","0.0-2.0-5.0-0.19","63169589b2fd7dd8f24702ba","B2","batch2","","null","<p class=block-text>Trial 20 out of 78</p>","null","pattern_show_trial_num","","","","","","","","","","","","","","","","","","","","","","","","",""
"","","","","","image-keyboard-response","60","148550","0.0-2.0-5.0-1.19","63169589b2fd7dd8f24702ba","B2","batch2","","2200.699999988079","stim/no_43_2_b.png","j","pattern_response","true","j","pattern_23","2200.699999988079","true","17","","","","","","","","","","","","","","","","","","",""
"","","","","","html-keyboard-response","61","149866","0.0-2.0-5.0-0.20","63169589b2fd7dd8f24702ba","B2","batch2","","null","<p class=block-text>Trial 21 out of 78</p>","null","pattern_show_trial_num","","","","","","","","","","","","","","","","","","","","","","","","",""
"","","","","","image-keyboard-response","62","151302","0.0-2.0-5.0-1.20","63169589b2fd7dd8f24702ba","B2","batch2","","1434.2000000029802","stim/no_30_1_b.png","j","pattern_response","true","j","pattern_13","1434.2000000029802","true","18","","","","","","","","","","","","","","","","","","",""
"","","","","","html-keyboard-response","63","152614","0.0-2.0-5.0-0.21","63169589b2fd7dd8f24702ba","B2","batch2","","null","<p class=block-text>Trial 22 out of 78</p>","null","pattern_show_trial_num","","","","","","","","","","","","","","","","","","","","","","","","",""
"","","","","","image-keyboard-response","64","153491","0.0-2.0-5.0-1.21","63169589b2fd7dd8f24702ba","B2","batch2","","874.6000000089407","stim/yes_70_ver_b1.png","f","pattern_response","true","f","pattern_80","874.6000000089407","true","19","","","","","","","","","","","","","","","","","","",""
"","","","","","html-keyboard-response","65","154801","0.0-2.0-5.0-0.22","63169589b2fd7dd8f24702ba","B2","batch2","","null","<p class=block-text>Trial 23 out of 78</p>","null","pattern_show_trial_num","","","","","","","","","","","","","","","","","","","","","","","","",""
"","","","","","image-keyboard-response","66","157911","0.0-2.0-5.0-1.22","63169589b2fd7dd8f24702ba","B2","batch2","","3109.1000000089407","stim/no_49_2_b.png","j","pattern_response","true","j","pattern_29","3109.1000000089407","true","20","","","","","","","","","","","","","","","","","","",""
"","","","","","html-keyboard-response","67","159222","0.0-2.0-5.0-0.23","63169589b2fd7dd8f24702ba","B2","batch2","","null","<p class=block-text>Trial 24 out of 78</p>","null","pattern_show_trial_num","","","","","","","","","","","","","","","","","","","","","","","","",""
"","","","","","image-keyboard-response","68","166335","0.0-2.0-5.0-1.23","63169589b2fd7dd8f24702ba","B2","batch2","","7112.20000000298","stim/yes_53_ver_b1_b.png","f","pattern_response","true","f","pattern_74","7112.20000000298","true","21","","","","","","","","","","","","","","","","","","",""
"","","","","","html-keyboard-response","69","167650","0.0-2.0-5.0-0.24","63169589b2fd7dd8f24702ba","B2","batch2","","null","<p class=block-text>Trial 25 out of 78</p>","null","pattern_show_trial_num","","","","","","","","","","","","","","","","","","","","","","","","",""
"","","","","","image-keyboard-response","70","168474","0.0-2.0-5.0-1.24","63169589b2fd7dd8f24702ba","B2","batch2","","821","stim/no_18_1_b.png","j","pattern_response","true","j","pattern_05","821","true","22","","","","","","","","","","","","","","","","","","",""
"","","","","","html-keyboard-response","71","169787","0.0-2.0-5.0-0.25","63169589b2fd7dd8f24702ba","B2","batch2","","null","<p class=block-text>Trial 26 out of 78</p>","null","pattern_show_trial_num","","","","","","","","","","","","","","","","","","","","","","","","",""
"","","","","","image-keyboard-response","72","170970","0.0-2.0-5.0-1.25","63169589b2fd7dd8f24702ba","B2","batch2","","1182.0999999940395","stim/yes_23_ver_b1.png","f","pattern_response","true","f","pattern_48","1182.0999999940395","true","23","","","","","","","","","","","","","","","","","","",""
"","","","","","html-keyboard-response","73","172278","0.0-2.0-5.0-0.26","63169589b2fd7dd8f24702ba","B2","batch2","","null","<p class=block-text>Trial 27 out of 78</p>","null","pattern_show_trial_num","","","","","","","","","","","","","","","","","","","","","","","","",""
"","","","","","image-keyboard-response","74","177943","0.0-2.0-5.0-1.26","63169589b2fd7dd8f24702ba","B2","batch2","","5664.100000008941","stim/no_39_1_w.png","j","pattern_response","true","j","pattern_21","5664.100000008941","true","24","","","","","","","","","","","","","","","","","","",""
"","","","","","html-keyboard-response","75","179257","0.0-2.0-5.0-0.27","63169589b2fd7dd8f24702ba","B2","batch2","","null","<p class=block-text>Trial 28 out of 78</p>","null","pattern_show_trial_num","","","","","","","","","","","","","","","","","","","","","","","","",""
"","","","","","image-keyboard-response","76","180589","0.0-2.0-5.0-1.27","63169589b2fd7dd8f24702ba","B2","batch2","","1329.7999999970198","stim/yes_44_ver_w1_w.png","f","pattern_response","true","f","pattern_66","1329.7999999970198","true","25","","","","","","","","","","","","","","","","","","",""
"","","","","","html-keyboard-response","77","181892","0.0-2.0-5.0-0.28","63169589b2fd7dd8f24702ba","B2","batch2","","null","<p class=block-text>Trial 29 out of 78</p>","null","pattern_show_trial_num","","","","","","","","","","","","","","","","","","","","","","","","",""
"","","","","","image-keyboard-response","78","186786","0.0-2.0-5.0-1.28","63169589b2fd7dd8f24702ba","B2","batch2","","4892.29999999702","stim/yes_63_dia_b1.png","j","pattern_response","false","f","pattern_78","4892.29999999702","false","25","","","","","","","","","","","","","","","","","","",""
"","","","","","html-keyboard-response","79","188098","0.0-2.0-5.0-0.29","63169589b2fd7dd8f24702ba","B2","batch2","","null","<p class=block-text>Trial 30 out of 78</p>","null","pattern_show_trial_num","","","","","","","","","","","","","","","","","","","","","","","","",""
"","","","","","image-keyboard-response","80","189118","0.0-2.0-5.0-1.29","63169589b2fd7dd8f24702ba","B2","batch2","","1017.7000000029802","stim/yes_15_dia_b1u_b.png","f","pattern_response","true","f","pattern_44","1017.7000000029802","true","26","","","","","","","","","","","","","","","","","","",""
"","","","","","html-keyboard-response","81","190425","0.0-2.0-5.0-0.30","63169589b2fd7dd8f24702ba","B2","batch2","","null","<p class=block-text>Trial 31 out of 78</p>","null","pattern_show_trial_num","","","","","","","","","","","","","","","","","","","","","","","","",""
"","","","","","image-keyboard-response","82","193709","0.0-2.0-5.0-1.30","63169589b2fd7dd8f24702ba","B2","batch2","","3282.2999999970198","stim/no_67_1.png","j","pattern_response","true","j","pattern_39","3282.2999999970198","true","27","","","","","","","","","","","","","","","","","","",""
"","","","","","html-keyboard-response","83","195031","0.0-2.0-5.0-0.31","63169589b2fd7dd8f24702ba","B2","batch2","","null","<p class=block-text>Trial 32 out of 78</p>","null","pattern_show_trial_num","","","","","","","","","","","","","","","","","","","","","","","","",""
"","","","","","image-keyboard-response","84","196136","0.0-2.0-5.0-1.31","63169589b2fd7dd8f24702ba","B2","batch2","","1103","stim/yes_37_hor_w1_w.png","f","pattern_response","true","f","pattern_60","1103","true","28","","","","","","","","","","","","","","","","","","",""
"","","","","","html-keyboard-response","85","197445","0.0-2.0-5.0-0.32","63169589b2fd7dd8f24702ba","B2","batch2","","null","<p class=block-text>Trial 33 out of 78</p>","null","pattern_show_trial_num","","","","","","","","","","","","","","","","","","","","","","","","",""
"","","","","","image-keyboard-response","86","201613","0.0-2.0-5.0-1.32","63169589b2fd7dd8f24702ba","B2","batch2","","4167.20000000298","stim/yes_58_dia_w1_w.png","j","pattern_response","false","f","pattern_76","4167.20000000298","false","28","","","","","","","","","","","","","","","","","","",""
"","","","","","html-keyboard-response","87","202919","0.0-2.0-5.0-0.33","63169589b2fd7dd8f24702ba","B2","batch2","","null","<p class=block-text>Trial 34 out of 78</p>","null","pattern_show_trial_num","","","","","","","","","","","","","","","","","","","","","","","","",""
"","","","","","image-keyboard-response","88","203636","0.0-2.0-5.0-1.33","63169589b2fd7dd8f24702ba","B2","batch2","","714.8999999910593","stim/yes_39_hor_w1_w.png","f","pattern_response","true","f","pattern_62","714.8999999910593","true","29","","","","","","","","","","","","","","","","","","",""
"","","","","","html-keyboard-response","89","204938","0.0-2.0-5.0-0.34","63169589b2fd7dd8f24702ba","B2","batch2","","null","<p class=block-text>Trial 35 out of 78</p>","null","pattern_show_trial_num","","","","","","","","","","","","","","","","","","","","","","","","",""
"","","","","","image-keyboard-response","90","206353","0.0-2.0-5.0-1.34","63169589b2fd7dd8f24702ba","B2","batch2","","1413.9000000059605","stim/no_53_1_b.png","j","pattern_response","true","j","pattern_33","1413.9000000059605","true","30","","","","","","","","","","","","","","","","","","",""
"","","","","","html-keyboard-response","91","207674","0.0-2.0-5.0-0.35","63169589b2fd7dd8f24702ba","B2","batch2","","null","<p class=block-text>Trial 36 out of 78</p>","null","pattern_show_trial_num","","","","","","","","","","","","","","","","","","","","","","","","",""
"","","","","","image-keyboard-response","92","209410","0.0-2.0-5.0-1.35","63169589b2fd7dd8f24702ba","B2","batch2","","1734.2000000029802","stim/no_37_2_w.png","j","pattern_response","true","j","pattern_19","1734.2000000029802","true","31","","","","","","","","","","","","","","","","","","",""
"","","","","","html-keyboard-response","93","210723","0.0-2.0-5.0-0.36","63169589b2fd7dd8f24702ba","B2","batch2","","null","<p class=block-text>Trial 37 out of 78</p>","null","pattern_show_trial_num","","","","","","","","","","","","","","","","","","","","","","","","",""
"","","","","","image-keyboard-response","94","211605","0.0-2.0-5.0-1.36","63169589b2fd7dd8f24702ba","B2","batch2","","880.2000000029802","stim/no_12_1.png","j","pattern_response","true","j","pattern_01","880.2000000029802","true","32","","","","","","","","","","","","","","","","","","",""
"","","","","","html-keyboard-response","95","212910","0.0-2.0-5.0-0.37","63169589b2fd7dd8f24702ba","B2","batch2","","null","<p class=block-text>Trial 38 out of 78</p>","null","pattern_show_trial_num","","","","","","","","","","","","","","","","","","","","","","","","",""
"","","","","","image-keyboard-response","96","214574","0.0-2.0-5.0-1.37","63169589b2fd7dd8f24702ba","B2","batch2","","1662.5","stim/yes_26_dia_w2_w.png","f","pattern_response","true","f","pattern_50","1662.5","true","33","","","","","","","","","","","","","","","","","","",""
"","","","","","html-keyboard-response","97","215885","0.0-2.0-5.0-0.38","63169589b2fd7dd8f24702ba","B2","batch2","","null","<p class=block-text>Trial 39 out of 78</p>","null","pattern_show_trial_num","","","","","","","","","","","","","","","","","","","","","","","","",""
"","","","","","image-keyboard-response","98","217676","0.0-2.0-5.0-1.38","63169589b2fd7dd8f24702ba","B2","batch2","","1788.800000011921","stim/yes_46_ver_b1_b.png","f","pattern_response","true","f","pattern_68","1788.800000011921","true","34","","","","","","","","","","","","","","","","","","",""
"","","","","","image-keyboard-response","99","221025","0.0-2.0-6.0","63169589b2fd7dd8f24702ba","B2","batch2","","2839.0999999940395","stim/empty_board.png","j","attention_check","true","j","","","","","500","[""f"",""j""]","","","","","","","","","","","","","","","","",""
"","","","","","html-keyboard-response","100","221830","0.0-2.0-7.0-0.0","63169589b2fd7dd8f24702ba","B2","batch2","","null","<p class=block-text>Trial 40 out of 78</p>","null","pattern_show_trial_num","","","","","","","","","","","","","","","","","","","","","","","","",""
"","","","","","image-keyboard-response","101","226597","0.0-2.0-7.0-1.0","63169589b2fd7dd8f24702ba","B2","batch2","","4765.0999999940395","stim/no_52_1.png","j","pattern_response","true","j","pattern_32","4765.0999999940395","true","35","","","","","","","","","","","","","","","","","","",""
"","","","","","html-keyboard-response","102","227915","0.0-2.0-7.0-0.1","63169589b2fd7dd8f24702ba","B2","batch2","","null","<p class=block-text>Trial 41 out of 78</p>","null","pattern_show_trial_num","","","","","","","","","","","","","","","","","","","","","","","","",""
"","","","","","image-keyboard-response","103","228952","0.0-2.0-7.0-1.1","63169589b2fd7dd8f24702ba","B2","batch2","","1034.7999999970198","stim/yes_55_hor_w1_w.png","f","pattern_response","true","f","pattern_75","1034.7999999970198","true","36","","","","","","","","","","","","","","","","","","",""
"","","","","","html-keyboard-response","104","230255","0.0-2.0-7.0-0.2","63169589b2fd7dd8f24702ba","B2","batch2","","null","<p class=block-text>Trial 42 out of 78</p>","null","pattern_show_trial_num","","","","","","","","","","","","","","","","","","","","","","","","",""
"","","","","","image-keyboard-response","105","232958","0.0-2.0-7.0-1.2","63169589b2fd7dd8f24702ba","B2","batch2","","2701.5999999940395","stim/yes_43_ver_w1_w.png","f","pattern_response","true","f","pattern_65","2701.5999999940395","true","37","","","","","","","","","","","","","","","","","","",""
"","","","","","html-keyboard-response","106","234280","0.0-2.0-7.0-0.3","63169589b2fd7dd8f24702ba","B2","batch2","","null","<p class=block-text>Trial 43 out of 78</p>","null","pattern_show_trial_num","","","","","","","","","","","","","","","","","","","","","","","","",""
"","","","","","image-keyboard-response","107","235558","0.0-2.0-7.0-1.3","63169589b2fd7dd8f24702ba","B2","batch2","","1276.2999999970198","stim/yes_45_hor_b2_b.png","f","pattern_response","true","f","pattern_67","1276.2999999970198","true","38","","","","","","","","","","","","","","","","","","",""
"","","","","","html-keyboard-response","108","236872","0.0-2.0-7.0-0.4","63169589b2fd7dd8f24702ba","B2","batch2","","null","<p class=block-text>Trial 44 out of 78</p>","null","pattern_show_trial_num","","","","","","","","","","","","","","","","","","","","","","","","",""
"","","","","","image-keyboard-response","109","239144","0.0-2.0-7.0-1.4","63169589b2fd7dd8f24702ba","B2","batch2","","2270.800000011921","stim/no_42_1_w.png","j","pattern_response","true","j","pattern_22","2270.800000011921","true","39","","","","","","","","","","","","","","","","","","",""
"","","","","","html-keyboard-response","110","240457","0.0-2.0-7.0-0.5","63169589b2fd7dd8f24702ba","B2","batch2","","null","<p class=block-text>Trial 45 out of 78</p>","null","pattern_show_trial_num","","","","","","","","","","","","","","","","","","","","","","","","",""
"","","","","","image-keyboard-response","111","241855","0.0-2.0-7.0-1.5","63169589b2fd7dd8f24702ba","B2","batch2","","1396.300000011921","stim/yes_52_ver_w1.png","f","pattern_response","true","f","pattern_73","1396.300000011921","true","40","","","","","","","","","","","","","","","","","","",""
"","","","","","html-keyboard-response","112","243174","0.0-2.0-7.0-0.6","63169589b2fd7dd8f24702ba","B2","batch2","","null","<p class=block-text>Trial 46 out of 78</p>","null","pattern_show_trial_num","","","","","","","","","","","","","","","","","","","","","","","","",""
"","","","","","image-keyboard-response","113","244172","0.0-2.0-7.0-1.6","63169589b2fd7dd8f24702ba","B2","batch2","","995.5999999940395","stim/no_29_1_b.png","j","pattern_response","true","j","pattern_12","995.5999999940395","true","41","","","","","","","","","","","","","","","","","","",""
"","","","","","html-keyboard-response","114","245490","0.0-2.0-7.0-0.7","63169589b2fd7dd8f24702ba","B2","batch2","","null","<p class=block-text>Trial 47 out of 78</p>","null","pattern_show_trial_num","","","","","","","","","","","","","","","","","","","","","","","","",""
"","","","","","image-keyboard-response","115","248396","0.0-2.0-7.0-1.7","63169589b2fd7dd8f24702ba","B2","batch2","","2904.9000000059605","stim/yes_48_dia_w1_w.png","j","pattern_response","false","f","pattern_69","2904.9000000059605","false","41","","","","","","","","","","","","","","","","","","",""
"","","","","","html-keyboard-response","116","249709","0.0-2.0-7.0-0.8","63169589b2fd7dd8f24702ba","B2","batch2","","null","<p class=block-text>Trial 48 out of 78</p>","null","pattern_show_trial_num","","","","","","","","","","","","","","","","","","","","","","","","",""
"","","","","","image-keyboard-response","117","252634","0.0-2.0-7.0-1.8","63169589b2fd7dd8f24702ba","B2","batch2","","2922.2999999970198","stim/no_50_1.png","j","pattern_response","true","j","pattern_30","2922.2999999970198","true","42","","","","","","","","","","","","","","","","","","",""
"","","","","","html-keyboard-response","118","253946","0.0-2.0-7.0-0.9","63169589b2fd7dd8f24702ba","B2","batch2","","null","<p class=block-text>Trial 49 out of 78</p>","null","pattern_show_trial_num","","","","","","","","","","","","","","","","","","","","","","","","",""
"","","","","","image-keyboard-response","119","256093","0.0-2.0-7.0-1.9","63169589b2fd7dd8f24702ba","B2","batch2","","2145.3999999910593","stim/yes_31_hor_b1.png","j","pattern_response","false","f","pattern_55","2145.3999999910593","false","42","","","","","","","","","","","","","","","","","","",""
"","","","","","html-keyboard-response","120","257413","0.0-2.0-7.0-0.10","63169589b2fd7dd8f24702ba","B2","batch2","","null","<p class=block-text>Trial 50 out of 78</p>","null","pattern_show_trial_num","","","","","","","","","","","","","","","","","","","","","","","","",""
"","","","","","image-keyboard-response","121","259529","0.0-2.0-7.0-1.10","63169589b2fd7dd8f24702ba","B2","batch2","","2113.7999999970198","stim/yes_50_dia_w1.png","j","pattern_response","false","f","pattern_71","2113.7999999970198","false","42","","","","","","","","","","","","","","","","","","",""
"","","","","","html-keyboard-response","122","260833","0.0-2.0-7.0-0.11","63169589b2fd7dd8f24702ba","B2","batch2","","null","<p class=block-text>Trial 51 out of 78</p>","null","pattern_show_trial_num","","","","","","","","","","","","","","","","","","","","","","","","",""
"","","","","","image-keyboard-response","123","261995","0.0-2.0-7.0-1.11","63169589b2fd7dd8f24702ba","B2","batch2","","1160.6000000089407","stim/no_23_1.png","j","pattern_response","true","j","pattern_08","1160.6000000089407","true","43","","","","","","","","","","","","","","","","","","",""
"","","","","","html-keyboard-response","124","263312","0.0-2.0-7.0-0.12","63169589b2fd7dd8f24702ba","B2","batch2","","null","<p class=block-text>Trial 52 out of 78</p>","null","pattern_show_trial_num","","","","","","","","","","","","","","","","","","","","","","","","",""
"","","","","","image-keyboard-response","125","264598","0.0-2.0-7.0-1.12","63169589b2fd7dd8f24702ba","B2","batch2","","1284.5","stim/no_26_1_w.png","j","pattern_response","true","j","pattern_10","1284.5","true","44","","","","","","","","","","","","","","","","","","",""
"","","","","","html-keyboard-response","126","265915","0.0-2.0-7.0-0.13","63169589b2fd7dd8f24702ba","B2","batch2","","null","<p class=block-text>Trial 53 out of 78</p>","null","pattern_show_trial_num","","","","","","","","","","","","","","","","","","","","","","","","",""
"","","","","","image-keyboard-response","127","267023","0.0-2.0-7.0-1.13","63169589b2fd7dd8f24702ba","B2","batch2","","1106","stim/yes_17_dia_w1.png","f","pattern_response","true","f","pattern_45","1106","true","45","","","","","","","","","","","","","","","","","","",""
"","","","","","html-keyboard-response","128","268331","0.0-2.0-7.0-0.14","63169589b2fd7dd8f24702ba","B2","batch2","","null","<p class=block-text>Trial 54 out of 78</p>","null","pattern_show_trial_num","","","","","","","","","","","","","","","","","","","","","","","","",""
"","","","","","image-keyboard-response","129","269378","0.0-2.0-7.0-1.14","63169589b2fd7dd8f24702ba","B2","batch2","","1046.2000000029802","stim/yes_28_ver_b1.png","f","pattern_response","true","f","pattern_51","1046.2000000029802","true","46","","","","","","","","","","","","","","","","","","",""
"","","","","","html-keyboard-response","130","270686","0.0-2.0-7.0-0.15","63169589b2fd7dd8f24702ba","B2","batch2","","null","<p class=block-text>Trial 55 out of 78</p>","null","pattern_show_trial_num","","","","","","","","","","","","","","","","","","","","","","","","",""
"","","","","","image-keyboard-response","131","278771","0.0-2.0-7.0-1.15","63169589b2fd7dd8f24702ba","B2","batch2","","8083.4000000059605","stim/no_70_2.png","j","pattern_response","true","j","pattern_40","8083.4000000059605","true","47","","","","","","","","","","","","","","","","","","",""
"","","","","","html-keyboard-response","132","280088","0.0-2.0-7.0-0.16","63169589b2fd7dd8f24702ba","B2","batch2","","null","<p class=block-text>Trial 56 out of 78</p>","null","pattern_show_trial_num","","","","","","","","","","","","","","","","","","","","","","","","",""
"","","","","","image-keyboard-response","133","281249","0.0-2.0-7.0-1.16","63169589b2fd7dd8f24702ba","B2","batch2","","1157.6000000089407","stim/yes_29_ver_w1.png","f","pattern_response","true","f","pattern_53","1157.6000000089407","true","48","","","","","","","","","","","","","","","","","","",""
"","","","","","html-keyboard-response","134","282551","0.0-2.0-7.0-0.17","63169589b2fd7dd8f24702ba","B2","batch2","","null","<p class=block-text>Trial 57 out of 78</p>","null","pattern_show_trial_num","","","","","","","","","","","","","","","","","","","","","","","","",""
"","","","","","image-keyboard-response","135","285266","0.0-2.0-7.0-1.17","63169589b2fd7dd8f24702ba","B2","batch2","","2713.7000000029802","stim/no_48_1_w.png","j","pattern_response","true","j","pattern_28","2713.7000000029802","true","49","","","","","","","","","","","","","","","","","","",""
"","","","","","html-keyboard-response","136","286580","0.0-2.0-7.0-0.18","63169589b2fd7dd8f24702ba","B2","batch2","","null","<p class=block-text>Trial 58 out of 78</p>","null","pattern_show_trial_num","","","","","","","","","","","","","","","","","","","","","","","","",""
"","","","","","image-keyboard-response","137","288305","0.0-2.0-7.0-1.18","63169589b2fd7dd8f24702ba","B2","batch2","","1722.0999999940395","stim/yes_67_hor_b1.png","f","pattern_response","true","f","pattern_79","1722.0999999940395","true","50","","","","","","","","","","","","","","","","","","",""
"","","","","","html-keyboard-response","138","289610","0.0-2.0-7.0-0.19","63169589b2fd7dd8f24702ba","B2","batch2","","null","<p class=block-text>Trial 59 out of 78</p>","null","pattern_show_trial_num","","","","","","","","","","","","","","","","","","","","","","","","",""
"","","","","","image-keyboard-response","139","290443","0.0-2.0-7.0-1.19","63169589b2fd7dd8f24702ba","B2","batch2","","831.6000000089407","stim/no_20_1_w.png","j","pattern_response","true","j","pattern_06","831.6000000089407","true","51","","","","","","","","","","","","","","","","","","",""
"","","","","","html-keyboard-response","140","291747","0.0-2.0-7.0-0.20","63169589b2fd7dd8f24702ba","B2","batch2","","null","<p class=block-text>Trial 60 out of 78</p>","null","pattern_show_trial_num","","","","","","","","","","","","","","","","","","","","","","","","",""
"","","","","","image-keyboard-response","141","295218","0.0-2.0-7.0-1.20","63169589b2fd7dd8f24702ba","B2","batch2","","3470.0999999940395","stim/no_38_1_b.png","j","pattern_response","true","j","pattern_20","3470.0999999940395","true","52","","","","","","","","","","","","","","","","","","",""
"","","","","","html-keyboard-response","142","296534","0.0-2.0-7.0-0.21","63169589b2fd7dd8f24702ba","B2","batch2","","null","<p class=block-text>Trial 61 out of 78</p>","null","pattern_show_trial_num","","","","","","","","","","","","","","","","","","","","","","","","",""
"","","","","","image-keyboard-response","143","298375","0.0-2.0-7.0-1.21","63169589b2fd7dd8f24702ba","B2","batch2","","1838.7999999970198","stim/no_17_1_w.png","j","pattern_response","true","j","pattern_04","1838.7999999970198","true","53","","","","","","","","","","","","","","","","","","",""
"","","","","","html-keyboard-response","144","299694","0.0-2.0-7.0-0.22","63169589b2fd7dd8f24702ba","B2","batch2","","null","<p class=block-text>Trial 62 out of 78</p>","null","pattern_show_trial_num","","","","","","","","","","","","","","","","","","","","","","","","",""
"","","","","","image-keyboard-response","145","300537","0.0-2.0-7.0-1.22","63169589b2fd7dd8f24702ba","B2","batch2","","841.2999999970198","stim/yes_25_hor_b1_b.png","f","pattern_response","true","f","pattern_49","841.2999999970198","true","54","","","","","","","","","","","","","","","","","","",""
"","","","","","html-keyboard-response","146","301858","0.0-2.0-7.0-0.23","63169589b2fd7dd8f24702ba","B2","batch2","","null","<p class=block-text>Trial 63 out of 78</p>","null","pattern_show_trial_num","","","","","","","","","","","","","","","","","","","","","","","","",""
"","","","","","image-keyboard-response","147","303748","0.0-2.0-7.0-1.23","63169589b2fd7dd8f24702ba","B2","batch2","","1888.4000000059605","stim/no_34_1_b.png","j","pattern_response","true","j","pattern_16","1888.4000000059605","true","55","","","","","","","","","","","","","","","","","","",""
"","","","","","html-keyboard-response","148","305058","0.0-2.0-7.0-0.24","63169589b2fd7dd8f24702ba","B2","batch2","","null","<p class=block-text>Trial 64 out of 78</p>","null","pattern_show_trial_num","","","","","","","","","","","","","","","","","","","","","","","","",""
"","","","","","image-keyboard-response","149","306450","0.0-2.0-7.0-1.24","63169589b2fd7dd8f24702ba","B2","batch2","","1391.6000000089407","stim/yes_40_dia_b1_b.png","j","pattern_response","false","f","pattern_63","1391.6000000089407","false","55","","","","","","","","","","","","","","","","","","",""
"","","","","","html-keyboard-response","150","307767","0.0-2.0-7.0-0.25","63169589b2fd7dd8f24702ba","B2","batch2","","null","<p class=block-text>Trial 65 out of 78</p>","null","pattern_show_trial_num","","","","","","","","","","","","","","","","","","","","","","","","",""
"","","","","","image-keyboard-response","151","313465","0.0-2.0-7.0-1.25","63169589b2fd7dd8f24702ba","B2","batch2","","5695.70000000298","stim/no_36_2_w.png","j","pattern_response","true","j","pattern_18","5695.70000000298","true","56","","","","","","","","","","","","","","","","","","",""
"","","","","","html-keyboard-response","152","314777","0.0-2.0-7.0-0.26","63169589b2fd7dd8f24702ba","B2","batch2","","null","<p class=block-text>Trial 66 out of 78</p>","null","pattern_show_trial_num","","","","","","","","","","","","","","","","","","","","","","","","",""
"","","","","","image-keyboard-response","153","321502","0.0-2.0-7.0-1.26","63169589b2fd7dd8f24702ba","B2","batch2","","6722.4000000059605","stim/no_65_1_b.png","j","pattern_response","true","j","pattern_38","6722.4000000059605","true","57","","","","","","","","","","","","","","","","","","",""
"","","","","","html-keyboard-response","154","322829","0.0-2.0-7.0-0.27","63169589b2fd7dd8f24702ba","B2","batch2","","null","<p class=block-text>Trial 67 out of 78</p>","null","pattern_show_trial_num","","","","","","","","","","","","","","","","","","","","","","","","",""
"","","","","","image-keyboard-response","155","325215","0.0-2.0-7.0-1.27","63169589b2fd7dd8f24702ba","B2","batch2","","2383.199999988079","stim/no_32_1_w.png","j","pattern_response","true","j","pattern_14","2383.199999988079","true","58","","","","","","","","","","","","","","","","","","",""
"","","","","","html-keyboard-response","156","326536","0.0-2.0-7.0-0.28","63169589b2fd7dd8f24702ba","B2","batch2","","null","<p class=block-text>Trial 68 out of 78</p>","null","pattern_show_trial_num","","","","","","","","","","","","","","","","","","","","","","","","",""
"","","","","","image-keyboard-response","157","329775","0.0-2.0-7.0-1.28","63169589b2fd7dd8f24702ba","B2","batch2","","3236.9000000059605","stim/no_46_1_b.png","j","pattern_response","true","j","pattern_26","3236.9000000059605","true","59","","","","","","","","","","","","","","","","","","",""
"","","","","","html-keyboard-response","158","331082","0.0-2.0-7.0-0.29","63169589b2fd7dd8f24702ba","B2","batch2","","null","<p class=block-text>Trial 69 out of 78</p>","null","pattern_show_trial_num","","","","","","","","","","","","","","","","","","","","","","","","",""
"","","","","","image-keyboard-response","159","331998","0.0-2.0-7.0-1.29","63169589b2fd7dd8f24702ba","B2","batch2","","913.7999999970198","stim/yes_22_ver_w1.png","f","pattern_response","true","f","pattern_47","913.7999999970198","true","60","","","","","","","","","","","","","","","","","","",""
"","","","","","html-keyboard-response","160","333311","0.0-2.0-7.0-0.30","63169589b2fd7dd8f24702ba","B2","batch2","","null","<p class=block-text>Trial 70 out of 78</p>","null","pattern_show_trial_num","","","","","","","","","","","","","","","","","","","","","","","","",""
"","","","","","image-keyboard-response","161","336753","0.0-2.0-7.0-1.30","63169589b2fd7dd8f24702ba","B2","batch2","","3439.8999999910593","stim/yes_37_dia_w1.png","j","pattern_response","false","f","pattern_59","3439.8999999910593","false","60","","","","","","","","","","","","","","","","","","",""
"","","","","","html-keyboard-response","162","338076","0.0-2.0-7.0-0.31","63169589b2fd7dd8f24702ba","B2","batch2","","null","<p class=block-text>Trial 71 out of 78</p>","null","pattern_show_trial_num","","","","","","","","","","","","","","","","","","","","","","","","",""
"","","","","","image-keyboard-response","163","339841","0.0-2.0-7.0-1.31","63169589b2fd7dd8f24702ba","B2","batch2","","1762.7000000029802","stim/yes_38_hor_b1_b.png","f","pattern_response","true","f","pattern_61","1762.7000000029802","true","61","","","","","","","","","","","","","","","","","","",""
"","","","","","html-keyboard-response","164","341144","0.0-2.0-7.0-0.32","63169589b2fd7dd8f24702ba","B2","batch2","","null","<p class=block-text>Trial 72 out of 78</p>","null","pattern_show_trial_num","","","","","","","","","","","","","","","","","","","","","","","","",""
"","","","","","image-keyboard-response","165","345280","0.0-2.0-7.0-1.32","63169589b2fd7dd8f24702ba","B2","batch2","","4134.5","stim/no_62_1_w.png","j","pattern_response","true","j","pattern_36","4134.5","true","62","","","","","","","","","","","","","","","","","","",""
"","","","","","html-keyboard-response","166","346586","0.0-2.0-7.0-0.33","63169589b2fd7dd8f24702ba","B2","batch2","","null","<p class=block-text>Trial 73 out of 78</p>","null","pattern_show_trial_num","","","","","","","","","","","","","","","","","","","","","","","","",""
"","","","","","image-keyboard-response","167","349766","0.0-2.0-7.0-1.33","63169589b2fd7dd8f24702ba","B2","batch2","","3177.5","stim/yes_60_ver_b1_b.png","j","pattern_response","false","f","pattern_77","3177.5","false","62","","","","","","","","","","","","","","","","","","",""
"","","","","","html-keyboard-response","168","351079","0.0-2.0-7.0-0.34","63169589b2fd7dd8f24702ba","B2","batch2","","null","<p class=block-text>Trial 74 out of 78</p>","null","pattern_show_trial_num","","","","","","","","","","","","","","","","","","","","","","","","",""
"","","","","","image-keyboard-response","169","359222","0.0-2.0-7.0-1.34","63169589b2fd7dd8f24702ba","B2","batch2","","8140.70000000298","stim/no_44_1.png","j","pattern_response","true","j","pattern_24","8140.70000000298","true","63","","","","","","","","","","","","","","","","","","",""
"","","","","","html-keyboard-response","170","360530","0.0-2.0-7.0-0.35","63169589b2fd7dd8f24702ba","B2","batch2","","null","<p class=block-text>Trial 75 out of 78</p>","null","pattern_show_trial_num","","","","","","","","","","","","","","","","","","","","","","","","",""
"","","","","","image-keyboard-response","171","361532","0.0-2.0-7.0-1.35","63169589b2fd7dd8f24702ba","B2","batch2","","1000","stim/yes_14_hor_b1_w.png","f","pattern_response","true","f","pattern_43","1000","true","64","","","","","","","","","","","","","","","","","","",""
"","","","","","html-keyboard-response","172","362843","0.0-2.0-7.0-0.36","63169589b2fd7dd8f24702ba","B2","batch2","","null","<p class=block-text>Trial 76 out of 78</p>","null","pattern_show_trial_num","","","","","","","","","","","","","","","","","","","","","","","","",""
"","","","","","image-keyboard-response","173","364313","0.0-2.0-7.0-1.36","63169589b2fd7dd8f24702ba","B2","batch2","","1468.300000011921","stim/no_13_2_b.png","j","pattern_response","true","j","pattern_02","1468.300000011921","true","65","","","","","","","","","","","","","","","","","","",""
"","","","","","html-keyboard-response","174","365629","0.0-2.0-7.0-0.37","63169589b2fd7dd8f24702ba","B2","batch2","","null","<p class=block-text>Trial 77 out of 78</p>","null","pattern_show_trial_num","","","","","","","","","","","","","","","","","","","","","","","","",""
"","","","","","image-keyboard-response","175","370032","0.0-2.0-7.0-1.37","63169589b2fd7dd8f24702ba","B2","batch2","","4401.4000000059605","stim/yes_35_dia_b1.png","f","pattern_response","true","f","pattern_57","4401.4000000059605","true","66","","","","","","","","","","","","","","","","","","",""
"","","","","","html-keyboard-response","176","371343","0.0-2.0-7.0-0.38","63169589b2fd7dd8f24702ba","B2","batch2","","null","<p class=block-text>Trial 78 out of 78</p>","null","pattern_show_trial_num","","","","","","","","","","","","","","","","","","","","","","","","",""
"","","","","","image-keyboard-response","177","379858","0.0-2.0-7.0-1.38","63169589b2fd7dd8f24702ba","B2","batch2","","8511.60000000894","stim/no_55_1_w.png","j","pattern_response","true","j","pattern_34","8511.60000000894","true","67","","","","","","","","","","","","","","","","","","",""
"","","","","","html-button-response","178","387181","0.0-2.0-8.0","63169589b2fd7dd8f24702ba","B2","batch2","","6808.4000000059605","<p class = block-text>This concludes the 4-in-a-row detection game.Thank you for your responses!<br>
            You responded correctly on 86% of the trials.<br>
            When you are ready, press ""Continue"" button to continue </p>","0","","","","","","","","","","","","","","","","","","","","","","","","","",""
"true","","","","","fullscreen","179","390915","0.0-3.0-0.0","63169589b2fd7dd8f24702ba","B2","batch2","","","","","spm_fullscreen","","","","","","","","","","","","","","","","","","","","","","","","",""
"","","","","","html-button-response","180","400736","0.0-3.0-1.0","63169589b2fd7dd8f24702ba","B2","batch2","","9819","<p class = block-text><b>Instructions</b> <br>This is a widely used intelligence test in research. <br>In this test, a figure with a missing piece will be presented.<br>Below the figure are alternative pieces to complete the figure, only one of which is correct.<br> Different figures might involve different principles for obtaining the missing piece<br>Your job is to select the most logical piece to complete the figure.</p>","0","","","","","","","","","","","","","","","","","","","","","","","","","",""
"","","","","","html-keyboard-response","181","401540","0.0-3.0-2.0-0.0","63169589b2fd7dd8f24702ba","B2","batch2","","null","<p class=block-text>Trial 1 out of 60</p>","null","spm_show_trial_num","","","","","","","","","","","","","","","","","","","","","","","","",""
"","","","","","image-button-response","182","415147","0.0-3.0-2.0-1.0","63169589b2fd7dd8f24702ba","B2","batch2","","13603.90000000596","img/question_1_1.jpeg","3","spm_respsonse","1","4","mat_01","","","","","","1","13603.90000000596","","","","","","","","","","","","","","",""
"","","","","","html-keyboard-response","183","416205","0.0-3.0-2.0-0.1","63169589b2fd7dd8f24702ba","B2","batch2","","null","<p class=block-text>Trial 2 out of 60</p>","null","spm_show_trial_num","","","","","","","","","","","","","","","","","","","","","","","","",""
"","","","","","image-button-response","184","419810","0.0-3.0-2.0-1.1","63169589b2fd7dd8f24702ba","B2","batch2","","3602.3999999910593","img/question_1_2.jpeg","4","spm_respsonse","1","5","mat_02","","","","","","1","3602.3999999910593","","","","","","","","","","","","","","",""
"","","","","","html-keyboard-response","185","420873","0.0-3.0-2.0-0.2","63169589b2fd7dd8f24702ba","B2","batch2","","null","<p class=block-text>Trial 3 out of 60</p>","null","spm_show_trial_num","","","","","","","","","","","","","","","","","","","","","","","","",""
"","","","","","image-button-response","186","426116","0.0-3.0-2.0-1.2","63169589b2fd7dd8f24702ba","B2","batch2","","5241.20000000298","img/question_1_3.jpeg","0","spm_respsonse","1","1","mat_03","","","","","","1","5241.20000000298","","","","","","","","","","","","","","",""
"","","","","","html-keyboard-response","187","427174","0.0-3.0-2.0-0.3","63169589b2fd7dd8f24702ba","B2","batch2","","null","<p class=block-text>Trial 4 out of 60</p>","null","spm_show_trial_num","","","","","","","","","","","","","","","","","","","","","","","","",""
"","","","","","image-button-response","188","429707","0.0-3.0-2.0-1.3","63169589b2fd7dd8f24702ba","B2","batch2","","2530","img/question_1_4.jpeg","1","spm_respsonse","1","2","mat_04","","","","","","1","2530","","","","","","","","","","","","","","",""
"","","","","","html-keyboard-response","189","430779","0.0-3.0-2.0-0.4","63169589b2fd7dd8f24702ba","B2","batch2","","null","<p class=block-text>Trial 5 out of 60</p>","null","spm_show_trial_num","","","","","","","","","","","","","","","","","","","","","","","","",""
"","","","","","image-button-response","190","434444","0.0-3.0-2.0-1.4","63169589b2fd7dd8f24702ba","B2","batch2","","3663.0999999940395","img/question_1_5.jpeg","5","spm_respsonse","1","6","mat_05","","","","","","1","3663.0999999940395","","","","","","","","","","","","","","",""
"","","","","","html-keyboard-response","191","435515","0.0-3.0-2.0-0.5","63169589b2fd7dd8f24702ba","B2","batch2","","null","<p class=block-text>Trial 6 out of 60</p>","null","spm_show_trial_num","","","","","","","","","","","","","","","","","","","","","","","","",""
"","","","","","image-button-response","192","439538","0.0-3.0-2.0-1.5","63169589b2fd7dd8f24702ba","B2","batch2","","4019.7999999970198","img/question_1_6.jpeg","2","spm_respsonse","1","3","mat_06","","","","","","1","4019.7999999970198","","","","","","","","","","","","","","",""
"","","","","","html-keyboard-response","193","440600","0.0-3.0-2.0-0.6","63169589b2fd7dd8f24702ba","B2","batch2","","null","<p class=block-text>Trial 7 out of 60</p>","null","spm_show_trial_num","","","","","","","","","","","","","","","","","","","","","","","","",""
"","","","","","image-button-response","194","448278","0.0-3.0-2.0-1.6","63169589b2fd7dd8f24702ba","B2","batch2","","7674.9000000059605","img/question_1_7.jpeg","5","spm_respsonse","1","6","mat_07","","","","","","1","7674.9000000059605","","","","","","","","","","","","","","",""
"","","","","","html-keyboard-response","195","449355","0.0-3.0-2.0-0.7","63169589b2fd7dd8f24702ba","B2","batch2","","null","<p class=block-text>Trial 8 out of 60</p>","null","spm_show_trial_num","","","","","","","","","","","","","","","","","","","","","","","","",""
"","","","","","image-button-response","196","457435","0.0-3.0-2.0-1.7","63169589b2fd7dd8f24702ba","B2","batch2","","8077","img/question_1_8.jpeg","1","spm_respsonse","1","2","mat_08","","","","","","1","8077","","","","","","","","","","","","","","",""
"","","","","","html-keyboard-response","197","458500","0.0-3.0-2.0-0.8","63169589b2fd7dd8f24702ba","B2","batch2","","null","<p class=block-text>Trial 9 out of 60</p>","null","spm_show_trial_num","","","","","","","","","","","","","","","","","","","","","","","","",""
"","","","","","image-button-response","198","464590","0.0-3.0-2.0-1.8","63169589b2fd7dd8f24702ba","B2","batch2","","6087.70000000298","img/question_1_9.jpeg","0","spm_respsonse","1","1","mat_09","","","","","","1","6087.70000000298","","","","","","","","","","","","","","",""
"","","","","","html-keyboard-response","199","465645","0.0-3.0-2.0-0.9","63169589b2fd7dd8f24702ba","B2","batch2","","null","<p class=block-text>Trial 10 out of 60</p>","null","spm_show_trial_num","","","","","","","","","","","","","","","","","","","","","","","","",""
"","","","","","image-button-response","200","472653","0.0-3.0-2.0-1.9","63169589b2fd7dd8f24702ba","B2","batch2","","7006.300000011921","img/question_1_10.jpeg","2","spm_respsonse","1","3","mat_10","","","","","","1","7006.300000011921","","","","","","","","","","","","","","",""
"","","","","","html-keyboard-response","201","473715","0.0-3.0-2.0-0.10","63169589b2fd7dd8f24702ba","B2","batch2","","null","<p class=block-text>Trial 11 out of 60</p>","null","spm_show_trial_num","","","","","","","","","","","","","","","","","","","","","","","","",""
"","","","","","image-button-response","202","496556","0.0-3.0-2.0-1.10","63169589b2fd7dd8f24702ba","B2","batch2","","22838.60000000894","img/question_1_11.jpeg","3","spm_respsonse","1","4","mat_11","","","","","","1","22838.60000000894","","","","","","","","","","","","","","",""
"","","","","","html-keyboard-response","203","497615","0.0-3.0-2.0-0.11","63169589b2fd7dd8f24702ba","B2","batch2","","null","<p class=block-text>Trial 12 out of 60</p>","null","spm_show_trial_num","","","","","","","","","","","","","","","","","","","","","","","","",""
"","","","","","image-button-response","204","509114","0.0-3.0-2.0-1.11","63169589b2fd7dd8f24702ba","B2","batch2","","11496.59999999404","img/question_1_12.jpeg","0","spm_respsonse","0","5","mat_12","","","","","","0","11496.59999999404","","","","","","","","","","","","","","",""
"","","","","","html-keyboard-response","205","510187","0.0-3.0-2.0-0.12","63169589b2fd7dd8f24702ba","B2","batch2","","null","<p class=block-text>Trial 13 out of 60</p>","null","spm_show_trial_num","","","","","","","","","","","","","","","","","","","","","","","","",""
"","","","","","image-button-response","206","512936","0.0-3.0-2.0-1.12","63169589b2fd7dd8f24702ba","B2","batch2","","2747","img/question_2_1.jpeg","1","spm_respsonse","1","2","mat_13","","","","","","1","2747","","","","","","","","","","","","","","",""
"","","","","","html-keyboard-response","207","513991","0.0-3.0-2.0-0.13","63169589b2fd7dd8f24702ba","B2","batch2","","null","<p class=block-text>Trial 14 out of 60</p>","null","spm_show_trial_num","","","","","","","","","","","","","","","","","","","","","","","","",""
"","","","","","image-button-response","208","520304","0.0-3.0-2.0-1.13","63169589b2fd7dd8f24702ba","B2","batch2","","6310","img/question_2_2.jpeg","5","spm_respsonse","1","6","mat_14","","","","","","1","6310","","","","","","","","","","","","","","",""
"","","","","","html-keyboard-response","209","521360","0.0-3.0-2.0-0.14","63169589b2fd7dd8f24702ba","B2","batch2","","null","<p class=block-text>Trial 15 out of 60</p>","null","spm_show_trial_num","","","","","","","","","","","","","","","","","","","","","","","","",""
"","","","","","image-button-response","210","525662","0.0-3.0-2.0-1.14","63169589b2fd7dd8f24702ba","B2","batch2","","4300.9000000059605","img/question_2_3.jpeg","0","spm_respsonse","1","1","mat_15","","","","","","1","4300.9000000059605","","","","","","","","","","","","","","",""
"","","","","","html-keyboard-response","211","526716","0.0-3.0-2.0-0.15","63169589b2fd7dd8f24702ba","B2","batch2","","null","<p class=block-text>Trial 16 out of 60</p>","null","spm_show_trial_num","","","","","","","","","","","","","","","","","","","","","","","","",""
"","","","","","image-button-response","212","529121","0.0-3.0-2.0-1.15","63169589b2fd7dd8f24702ba","B2","batch2","","2404.7999999970198","img/question_2_4.jpeg","1","spm_respsonse","1","2","mat_16","","","","","","1","2404.7999999970198","","","","","","","","","","","","","","",""
"","","","","","html-keyboard-response","213","530199","0.0-3.0-2.0-0.16","63169589b2fd7dd8f24702ba","B2","batch2","","null","<p class=block-text>Trial 17 out of 60</p>","null","spm_show_trial_num","","","","","","","","","","","","","","","","","","","","","","","","",""
"","","","","","image-button-response","214","533711","0.0-3.0-2.0-1.16","63169589b2fd7dd8f24702ba","B2","batch2","","3509.7999999970198","img/question_2_5.jpeg","0","spm_respsonse","1","1","mat_17","","","","","","1","3509.7999999970198","","","","","","","","","","","","","","",""
"","","","","","html-keyboard-response","215","534770","0.0-3.0-2.0-0.17","63169589b2fd7dd8f24702ba","B2","batch2","","null","<p class=block-text>Trial 18 out of 60</p>","null","spm_show_trial_num","","","","","","","","","","","","","","","","","","","","","","","","",""
"","","","","","image-button-response","216","539983","0.0-3.0-2.0-1.17","63169589b2fd7dd8f24702ba","B2","batch2","","5210.5","img/question_2_6.jpeg","2","spm_respsonse","1","3","mat_18","","","","","","1","5210.5","","","","","","","","","","","","","","",""
"","","","","","html-keyboard-response","217","541062","0.0-3.0-2.0-0.18","63169589b2fd7dd8f24702ba","B2","batch2","","null","<p class=block-text>Trial 19 out of 60</p>","null","spm_show_trial_num","","","","","","","","","","","","","","","","","","","","","","","","",""
"","","","","","image-button-response","218","546053","0.0-3.0-2.0-1.18","63169589b2fd7dd8f24702ba","B2","batch2","","4989.29999999702","img/question_2_7.jpeg","4","spm_respsonse","1","5","mat_19","","","","","","1","4989.29999999702","","","","","","","","","","","","","","",""
"","","","","","html-keyboard-response","219","547108","0.0-3.0-2.0-0.19","63169589b2fd7dd8f24702ba","B2","batch2","","null","<p class=block-text>Trial 20 out of 60</p>","null","spm_show_trial_num","","","","","","","","","","","","","","","","","","","","","","","","",""
"","","","","","image-button-response","220","559920","0.0-3.0-2.0-1.19","63169589b2fd7dd8f24702ba","B2","batch2","","12809","img/question_2_8.jpeg","5","spm_respsonse","1","6","mat_20","","","","","","1","12809","","","","","","","","","","","","","","",""
"","","","","","html-keyboard-response","221","560992","0.0-3.0-2.0-0.20","63169589b2fd7dd8f24702ba","B2","batch2","","null","<p class=block-text>Trial 21 out of 60</p>","null","spm_show_trial_num","","","","","","","","","","","","","","","","","","","","","","","","",""
"","","","","","image-button-response","222","569624","0.0-3.0-2.0-1.20","63169589b2fd7dd8f24702ba","B2","batch2","","8629.90000000596","img/question_2_9.jpeg","3","spm_respsonse","1","4","mat_21","","","","","","1","8629.90000000596","","","","","","","","","","","","","","",""
"","","","","","html-keyboard-response","223","570695","0.0-3.0-2.0-0.21","63169589b2fd7dd8f24702ba","B2","batch2","","null","<p class=block-text>Trial 22 out of 60</p>","null","spm_show_trial_num","","","","","","","","","","","","","","","","","","","","","","","","",""
"","","","","","image-button-response","224","578794","0.0-3.0-2.0-1.21","63169589b2fd7dd8f24702ba","B2","batch2","","8096.100000008941","img/question_2_10.jpeg","2","spm_respsonse","1","3","mat_22","","","","","","1","8096.100000008941","","","","","","","","","","","","","","",""
"","","","","","html-keyboard-response","225","579854","0.0-3.0-2.0-0.22","63169589b2fd7dd8f24702ba","B2","batch2","","null","<p class=block-text>Trial 23 out of 60</p>","null","spm_show_trial_num","","","","","","","","","","","","","","","","","","","","","","","","",""
"","","","","","image-button-response","226","585243","0.0-3.0-2.0-1.22","63169589b2fd7dd8f24702ba","B2","batch2","","5388.300000011921","img/question_2_11.jpeg","3","spm_respsonse","1","4","mat_23","","","","","","1","5388.300000011921","","","","","","","","","","","","","","",""
"","","","","","html-keyboard-response","227","586311","0.0-3.0-2.0-0.23","63169589b2fd7dd8f24702ba","B2","batch2","","null","<p class=block-text>Trial 24 out of 60</p>","null","spm_show_trial_num","","","","","","","","","","","","","","","","","","","","","","","","",""
"","","","","","image-button-response","228","606197","0.0-3.0-2.0-1.23","63169589b2fd7dd8f24702ba","B2","batch2","","19883.29999999702","img/question_2_12.jpeg","2","spm_respsonse","0","5","mat_24","","","","","","0","19883.29999999702","","","","","","","","","","","","","","",""
"","","","","","html-button-response","229","608985","0.0-3.0-3.0","63169589b2fd7dd8f24702ba","B2","batch2","","2535.8999999910593","<p class = block-text>Attention check: Please choose 1<br></p>","0","attention_check","true","","","","","","","","","","","","","","","","","","","","","","","",""
"","","","","","html-keyboard-response","230","609795","0.0-3.0-4.0-0.0","63169589b2fd7dd8f24702ba","B2","batch2","","null","<p class=block-text>Trial 25 out of 60</p>","null","spm_show_trial_num","","","","","","","","","","","","","","","","","","","","","","","","",""
"","","","","","image-button-response","231","619393","0.0-3.0-4.0-1.0","63169589b2fd7dd8f24702ba","B2","batch2","","9594.79999999702","img/question_3_1.jpeg","7","spm_respsonse","1","8","mat_25","","","","","","1","9594.79999999702","","","","","","","","","","","","","","",""
"","","","","","html-keyboard-response","232","620452","0.0-3.0-4.0-0.1","63169589b2fd7dd8f24702ba","B2","batch2","","null","<p class=block-text>Trial 26 out of 60</p>","null","spm_show_trial_num","","","","","","","","","","","","","","","","","","","","","","","","",""
"","","","","","image-button-response","233","629606","0.0-3.0-4.0-1.1","63169589b2fd7dd8f24702ba","B2","batch2","","9152","img/question_3_2.jpeg","1","spm_respsonse","1","2","mat_26","","","","","","1","9152","","","","","","","","","","","","","","",""
"","","","","","html-keyboard-response","234","630659","0.0-3.0-4.0-0.2","63169589b2fd7dd8f24702ba","B2","batch2","","null","<p class=block-text>Trial 27 out of 60</p>","null","spm_show_trial_num","","","","","","","","","","","","","","","","","","","","","","","","",""
"","","","","","image-button-response","235","643727","0.0-3.0-4.0-1.2","63169589b2fd7dd8f24702ba","B2","batch2","","13066.10000000894","img/question_3_3.jpeg","2","spm_respsonse","1","3","mat_27","","","","","","1","13066.10000000894","","","","","","","","","","","","","","",""
"","","","","","html-keyboard-response","236","644786","0.0-3.0-4.0-0.3","63169589b2fd7dd8f24702ba","B2","batch2","","null","<p class=block-text>Trial 28 out of 60</p>","null","spm_show_trial_num","","","","","","","","","","","","","","","","","","","","","","","","",""
"","","","","","image-button-response","237","660060","0.0-3.0-4.0-1.3","63169589b2fd7dd8f24702ba","B2","batch2","","15271.79999999702","img/question_3_4.jpeg","7","spm_respsonse","1","8","mat_28","","","","","","1","15271.79999999702","","","","","","","","","","","","","","",""
"","","","","","html-keyboard-response","238","661113","0.0-3.0-4.0-0.4","63169589b2fd7dd8f24702ba","B2","batch2","","null","<p class=block-text>Trial 29 out of 60</p>","null","spm_show_trial_num","","","","","","","","","","","","","","","","","","","","","","","","",""
"","","","","","image-button-response","239","671207","0.0-3.0-4.0-1.4","63169589b2fd7dd8f24702ba","B2","batch2","","10091","img/question_3_5.jpeg","3","spm_respsonse","0","7","mat_29","","","","","","0","10091","","","","","","","","","","","","","","",""
"","","","","","html-keyboard-response","240","672260","0.0-3.0-4.0-0.5","63169589b2fd7dd8f24702ba","B2","batch2","","null","<p class=block-text>Trial 30 out of 60</p>","null","spm_show_trial_num","","","","","","","","","","","","","","","","","","","","","","","","",""
"","","","","","image-button-response","241","689568","0.0-3.0-4.0-1.5","63169589b2fd7dd8f24702ba","B2","batch2","","17305.29999999702","img/question_3_6.jpeg","3","spm_respsonse","1","4","mat_30","","","","","","1","17305.29999999702","","","","","","","","","","","","","","",""
"","","","","","html-keyboard-response","242","690632","0.0-3.0-4.0-0.6","63169589b2fd7dd8f24702ba","B2","batch2","","null","<p class=block-text>Trial 31 out of 60</p>","null","spm_show_trial_num","","","","","","","","","","","","","","","","","","","","","","","","",""
"","","","","","image-button-response","243","700596","0.0-3.0-4.0-1.6","63169589b2fd7dd8f24702ba","B2","batch2","","9960.89999999106","img/question_3_7.jpeg","4","spm_respsonse","1","5","mat_31","","","","","","1","9960.89999999106","","","","","","","","","","","","","","",""
"","","","","","html-keyboard-response","244","701655","0.0-3.0-4.0-0.7","63169589b2fd7dd8f24702ba","B2","batch2","","null","<p class=block-text>Trial 32 out of 60</p>","null","spm_show_trial_num","","","","","","","","","","","","","","","","","","","","","","","","",""
"","","","","","image-button-response","245","714536","0.0-3.0-4.0-1.7","63169589b2fd7dd8f24702ba","B2","batch2","","12877.70000000298","img/question_3_8.jpeg","0","spm_respsonse","1","1","mat_32","","","","","","1","12877.70000000298","","","","","","","","","","","","","","",""
"","","","","","html-keyboard-response","246","715588","0.0-3.0-4.0-0.8","63169589b2fd7dd8f24702ba","B2","batch2","","null","<p class=block-text>Trial 33 out of 60</p>","null","spm_show_trial_num","","","","","","","","","","","","","","","","","","","","","","","","",""
"","","","","","image-button-response","247","724296","0.0-3.0-4.0-1.8","63169589b2fd7dd8f24702ba","B2","batch2","","8705","img/question_3_9.jpeg","6","spm_respsonse","1","7","mat_33","","","","","","1","8705","","","","","","","","","","","","","","",""
"","","","","","html-keyboard-response","248","725355","0.0-3.0-4.0-0.9","63169589b2fd7dd8f24702ba","B2","batch2","","null","<p class=block-text>Trial 34 out of 60</p>","null","spm_show_trial_num","","","","","","","","","","","","","","","","","","","","","","","","",""
"","","","","","image-button-response","249","750972","0.0-3.0-4.0-1.9","63169589b2fd7dd8f24702ba","B2","batch2","","25614.60000000894","img/question_3_10.jpeg","0","spm_respsonse","0","6","mat_34","","","","","","0","25614.60000000894","","","","","","","","","","","","","","",""
"","","","","","html-keyboard-response","250","752032","0.0-3.0-4.0-0.10","63169589b2fd7dd8f24702ba","B2","batch2","","null","<p class=block-text>Trial 35 out of 60</p>","null","spm_show_trial_num","","","","","","","","","","","","","","","","","","","","","","","","",""
"","","","","","image-button-response","251","762393","0.0-3.0-4.0-1.10","63169589b2fd7dd8f24702ba","B2","batch2","","10358.90000000596","img/question_3_11.jpeg","0","spm_respsonse","1","1","mat_35","","","","","","1","10358.90000000596","","","","","","","","","","","","","","",""
"","","","","","html-keyboard-response","252","763459","0.0-3.0-4.0-0.11","63169589b2fd7dd8f24702ba","B2","batch2","","null","<p class=block-text>Trial 36 out of 60</p>","null","spm_show_trial_num","","","","","","","","","","","","","","","","","","","","","","","","",""
"","","","","","image-button-response","253","792204","0.0-3.0-4.0-1.11","63169589b2fd7dd8f24702ba","B2","batch2","","28742.5","img/question_3_12.jpeg","1","spm_respsonse","1","2","mat_36","","","","","","1","28742.5","","","","","","","","","","","","","","",""
"","","","","","html-keyboard-response","254","793279","0.0-3.0-4.0-0.12","63169589b2fd7dd8f24702ba","B2","batch2","","null","<p class=block-text>Trial 37 out of 60</p>","null","spm_show_trial_num","","","","","","","","","","","","","","","","","","","","","","","","",""
"","","","","","image-button-response","255","798959","0.0-3.0-4.0-1.12","63169589b2fd7dd8f24702ba","B2","batch2","","5679.399999991059","img/question_4_1.jpeg","2","spm_respsonse","1","3","mat_37","","","","","","1","5679.399999991059","","","","","","","","","","","","","","",""
"","","","","","html-keyboard-response","256","800015","0.0-3.0-4.0-0.13","63169589b2fd7dd8f24702ba","B2","batch2","","null","<p class=block-text>Trial 38 out of 60</p>","null","spm_show_trial_num","","","","","","","","","","","","","","","","","","","","","","","","",""
"","","","","","image-button-response","257","811590","0.0-3.0-4.0-1.13","63169589b2fd7dd8f24702ba","B2","batch2","","11573.5","img/question_4_2.jpeg","3","spm_respsonse","1","4","mat_38","","","","","","1","11573.5","","","","","","","","","","","","","","",""
"","","","","","html-keyboard-response","258","812652","0.0-3.0-4.0-0.14","63169589b2fd7dd8f24702ba","B2","batch2","","null","<p class=block-text>Trial 39 out of 60</p>","null","spm_show_trial_num","","","","","","","","","","","","","","","","","","","","","","","","",""
"","","","","","image-button-response","259","836174","0.0-3.0-4.0-1.14","63169589b2fd7dd8f24702ba","B2","batch2","","23519.90000000596","img/question_4_3.jpeg","2","spm_respsonse","1","3","mat_39","","","","","","1","23519.90000000596","","","","","","","","","","","","","","",""
"","","","","","html-keyboard-response","260","837237","0.0-3.0-4.0-0.15","63169589b2fd7dd8f24702ba","B2","batch2","","null","<p class=block-text>Trial 40 out of 60</p>","null","spm_show_trial_num","","","","","","","","","","","","","","","","","","","","","","","","",""
"","","","","","image-button-response","261","856118","0.0-3.0-4.0-1.15","63169589b2fd7dd8f24702ba","B2","batch2","","18878.79999999702","img/question_4_4.jpeg","1","spm_respsonse","0","7","mat_40","","","","","","0","18878.79999999702","","","","","","","","","","","","","","",""
"","","","","","html-keyboard-response","262","857186","0.0-3.0-4.0-0.16","63169589b2fd7dd8f24702ba","B2","batch2","","null","<p class=block-text>Trial 41 out of 60</p>","null","spm_show_trial_num","","","","","","","","","","","","","","","","","","","","","","","","",""
"","","","","","image-button-response","263","868457","0.0-3.0-4.0-1.16","63169589b2fd7dd8f24702ba","B2","batch2","","11266.89999999106","img/question_4_5.jpeg","7","spm_respsonse","1","8","mat_41","","","","","","1","11266.89999999106","","","","","","","","","","","","","","",""
"","","","","","html-keyboard-response","264","869522","0.0-3.0-4.0-0.17","63169589b2fd7dd8f24702ba","B2","batch2","","null","<p class=block-text>Trial 42 out of 60</p>","null","spm_show_trial_num","","","","","","","","","","","","","","","","","","","","","","","","",""
"","","","","","image-button-response","265","881186","0.0-3.0-4.0-1.17","63169589b2fd7dd8f24702ba","B2","batch2","","11661.20000000298","img/question_4_6.jpeg","5","spm_respsonse","1","6","mat_42","","","","","","1","11661.20000000298","","","","","","","","","","","","","","",""
"","","","","","html-keyboard-response","266","882256","0.0-3.0-4.0-0.18","63169589b2fd7dd8f24702ba","B2","batch2","","null","<p class=block-text>Trial 43 out of 60</p>","null","spm_show_trial_num","","","","","","","","","","","","","","","","","","","","","","","","",""
"","","","","","image-button-response","267","923196","0.0-3.0-4.0-1.18","63169589b2fd7dd8f24702ba","B2","batch2","","40937.90000000596","img/question_4_7.jpeg","4","spm_respsonse","1","5","mat_43","","","","","","1","40937.90000000596","","","","","","","","","","","","","","",""
"","","","","","html-keyboard-response","268","924251","0.0-3.0-4.0-0.19","63169589b2fd7dd8f24702ba","B2","batch2","","null","<p class=block-text>Trial 44 out of 60</p>","null","spm_show_trial_num","","","","","","","","","","","","","","","","","","","","","","","","",""
"","","","","","image-button-response","269","936204","0.0-3.0-4.0-1.19","63169589b2fd7dd8f24702ba","B2","batch2","","11951.20000000298","img/question_4_8.jpeg","4","spm_respsonse","0","4","mat_44","","","","","","0","11951.20000000298","","","","","","","","","","","","","","",""
"","","","","","html-keyboard-response","270","937278","0.0-3.0-4.0-0.20","63169589b2fd7dd8f24702ba","B2","batch2","","null","<p class=block-text>Trial 45 out of 60</p>","null","spm_show_trial_num","","","","","","","","","","","","","","","","","","","","","","","","",""
"","","","","","image-button-response","271","956564","0.0-3.0-4.0-1.20","63169589b2fd7dd8f24702ba","B2","batch2","","19282.79999999702","img/question_4_9.jpeg","3","spm_respsonse","0","1","mat_45","","","","","","0","19282.79999999702","","","","","","","","","","","","","","",""
"","","","","","html-keyboard-response","272","957630","0.0-3.0-4.0-0.21","63169589b2fd7dd8f24702ba","B2","batch2","","null","<p class=block-text>Trial 46 out of 60</p>","null","spm_show_trial_num","","","","","","","","","","","","","","","","","","","","","","","","",""
"","","","","","image-button-response","273","969243","0.0-3.0-4.0-1.21","63169589b2fd7dd8f24702ba","B2","batch2","","11610.5","img/question_4_10.jpeg","1","spm_respsonse","1","2","mat_46","","","","","","1","11610.5","","","","","","","","","","","","","","",""
"","","","","","html-keyboard-response","274","970316","0.0-3.0-4.0-0.22","63169589b2fd7dd8f24702ba","B2","batch2","","null","<p class=block-text>Trial 47 out of 60</p>","null","spm_show_trial_num","","","","","","","","","","","","","","","","","","","","","","","","",""
"","","","","","image-button-response","275","986233","0.0-3.0-4.0-1.22","63169589b2fd7dd8f24702ba","B2","batch2","","15913.70000000298","img/question_4_11.jpeg","7","spm_respsonse","0","5","mat_47","","","","","","0","15913.70000000298","","","","","","","","","","","","","","",""
"","","","","","html-keyboard-response","276","987294","0.0-3.0-4.0-0.23","63169589b2fd7dd8f24702ba","B2","batch2","","null","<p class=block-text>Trial 48 out of 60</p>","null","spm_show_trial_num","","","","","","","","","","","","","","","","","","","","","","","","",""
"","","","","","image-button-response","277","1010775","0.0-3.0-4.0-1.23","63169589b2fd7dd8f24702ba","B2","batch2","","23477.70000000298","img/question_4_12.jpeg","2","spm_respsonse","0","6","mat_48","","","","","","0","23477.70000000298","","","","","","","","","","","","","","",""
"","","","","","html-keyboard-response","278","1011836","0.0-3.0-4.0-0.24","63169589b2fd7dd8f24702ba","B2","batch2","","null","<p class=block-text>Trial 49 out of 60</p>","null","spm_show_trial_num","","","","","","","","","","","","","","","","","","","","","","","","",""
"","","","","","image-button-response","279","1028157","0.0-3.0-4.0-1.24","63169589b2fd7dd8f24702ba","B2","batch2","","16319","img/question_5_1.jpeg","6","spm_respsonse","1","7","mat_49","","","","","","1","16319","","","","","","","","","","","","","","",""
"","","","","","html-keyboard-response","280","1029230","0.0-3.0-4.0-0.25","63169589b2fd7dd8f24702ba","B2","batch2","","null","<p class=block-text>Trial 50 out of 60</p>","null","spm_show_trial_num","","","","","","","","","","","","","","","","","","","","","","","","",""
"","","","","","image-button-response","281","1062796","0.0-3.0-4.0-1.25","63169589b2fd7dd8f24702ba","B2","batch2","","33563.19999998808","img/question_5_2.jpeg","2","spm_respsonse","0","6","mat_50","","","","","","0","33563.19999998808","","","","","","","","","","","","","","",""
"","","","","","html-keyboard-response","282","1063859","0.0-3.0-4.0-0.26","63169589b2fd7dd8f24702ba","B2","batch2","","null","<p class=block-text>Trial 51 out of 60</p>","null","spm_show_trial_num","","","","","","","","","","","","","","","","","","","","","","","","",""
"","","","","","image-button-response","283","1085053","0.0-3.0-4.0-1.26","63169589b2fd7dd8f24702ba","B2","batch2","","21190.70000000298","img/question_5_3.jpeg","0","spm_respsonse","0","8","mat_51","","","","","","0","21190.70000000298","","","","","","","","","","","","","","",""
"","","","","","html-keyboard-response","284","1086124","0.0-3.0-4.0-0.27","63169589b2fd7dd8f24702ba","B2","batch2","","null","<p class=block-text>Trial 52 out of 60</p>","null","spm_show_trial_num","","","","","","","","","","","","","","","","","","","","","","","","",""
"","","","","","image-button-response","285","1111597","0.0-3.0-4.0-1.27","63169589b2fd7dd8f24702ba","B2","batch2","","25469.70000000298","img/question_5_4.jpeg","2","spm_respsonse","0","2","mat_52","","","","","","0","25469.70000000298","","","","","","","","","","","","","","",""
"","","","","","html-keyboard-response","286","1112653","0.0-3.0-4.0-0.28","63169589b2fd7dd8f24702ba","B2","batch2","","null","<p class=block-text>Trial 53 out of 60</p>","null","spm_show_trial_num","","","","","","","","","","","","","","","","","","","","","","","","",""
"","","","","","image-button-response","287","1115545","0.0-3.0-4.0-1.28","63169589b2fd7dd8f24702ba","B2","batch2","","2889.1000000089407","img/question_5_5.jpeg","1","spm_respsonse","0","1","mat_53","","","","","","0","2889.1000000089407","","","","","","","","","","","","","","",""
"","","","","","html-keyboard-response","288","1116608","0.0-3.0-4.0-0.29","63169589b2fd7dd8f24702ba","B2","batch2","","null","<p class=block-text>Trial 54 out of 60</p>","null","spm_show_trial_num","","","","","","","","","","","","","","","","","","","","","","","","",""
"","","","","","image-button-response","289","1119860","0.0-3.0-4.0-1.29","63169589b2fd7dd8f24702ba","B2","batch2","","3249.7000000029802","img/question_5_6.jpeg","0","spm_respsonse","0","5","mat_54","","","","","","0","3249.7000000029802","","","","","","","","","","","","","","",""
"","","","","","html-keyboard-response","290","1120925","0.0-3.0-4.0-0.30","63169589b2fd7dd8f24702ba","B2","batch2","","null","<p class=block-text>Trial 55 out of 60</p>","null","spm_show_trial_num","","","","","","","","","","","","","","","","","","","","","","","","",""
"","","","","","image-button-response","291","1125462","0.0-3.0-4.0-1.30","63169589b2fd7dd8f24702ba","B2","batch2","","4535.399999991059","img/question_5_7.jpeg","3","spm_respsonse","0","1","mat_55","","","","","","0","4535.399999991059","","","","","","","","","","","","","","",""
"","","","","","html-keyboard-response","292","1126519","0.0-3.0-4.0-0.31","63169589b2fd7dd8f24702ba","B2","batch2","","null","<p class=block-text>Trial 56 out of 60</p>","null","spm_show_trial_num","","","","","","","","","","","","","","","","","","","","","","","","",""
"","","","","","image-button-response","293","1135020","0.0-3.0-4.0-1.31","63169589b2fd7dd8f24702ba","B2","batch2","","8497.79999999702","img/question_5_8.jpeg","4","spm_respsonse","0","6","mat_56","","","","","","0","8497.79999999702","","","","","","","","","","","","","","",""
"","","","","","html-keyboard-response","294","1136082","0.0-3.0-4.0-0.32","63169589b2fd7dd8f24702ba","B2","batch2","","null","<p class=block-text>Trial 57 out of 60</p>","null","spm_show_trial_num","","","","","","","","","","","","","","","","","","","","","","","","",""
"","","","","","image-button-response","295","1153281","0.0-3.0-4.0-1.32","63169589b2fd7dd8f24702ba","B2","batch2","","17196.79999999702","img/question_5_9.jpeg","1","spm_respsonse","0","3","mat_57","","","","","","0","17196.79999999702","","","","","","","","","","","","","","",""
"","","","","","html-keyboard-response","296","1154348","0.0-3.0-4.0-0.33","63169589b2fd7dd8f24702ba","B2","batch2","","null","<p class=block-text>Trial 58 out of 60</p>","null","spm_show_trial_num","","","","","","","","","","","","","","","","","","","","","","","","",""
"","","","","","image-button-response","297","1170886","0.0-3.0-4.0-1.33","63169589b2fd7dd8f24702ba","B2","batch2","","16534.39999999106","img/question_5_10.jpeg","6","spm_respsonse","0","2","mat_58","","","","","","0","16534.39999999106","","","","","","","","","","","","","","",""
"","","","","","html-keyboard-response","298","1171940","0.0-3.0-4.0-0.34","63169589b2fd7dd8f24702ba","B2","batch2","","null","<p class=block-text>Trial 59 out of 60</p>","null","spm_show_trial_num","","","","","","","","","","","","","","","","","","","","","","","","",""
"","","","","","image-button-response","299","1182648","0.0-3.0-4.0-1.34","63169589b2fd7dd8f24702ba","B2","batch2","","10704.59999999404","img/question_5_11.jpeg","0","spm_respsonse","0","4","mat_59","","","","","","0","10704.59999999404","","","","","","","","","","","","","","",""
"","","","","","html-keyboard-response","300","1183708","0.0-3.0-4.0-0.35","63169589b2fd7dd8f24702ba","B2","batch2","","null","<p class=block-text>Trial 60 out of 60</p>","null","spm_show_trial_num","","","","","","","","","","","","","","","","","","","","","","","","",""
"","","","","","image-button-response","301","1185412","0.0-3.0-4.0-1.35","63169589b2fd7dd8f24702ba","B2","batch2","","1701","img/question_5_12.jpeg","0","spm_respsonse","0","5","mat_60","","","","","","0","1701","","","","","","","","","","","","","","",""
"","","","","","html-button-response","302","1188285","0.0-3.0-5.0","63169589b2fd7dd8f24702ba","B2","batch2","","2618.2999999970198","<p class= block-text>This concludes the Standard Progressive Matrix game. Thank you for your responses!<br> When you are ready, click the button continue</p>","0","spm_goodbye","","","","","","","","","","","","","","","","","","","","","","","","",""
"true","","","","","fullscreen","303","1190986","0.0-4.0-0.0","63169589b2fd7dd8f24702ba","B2","batch2","","","","","","","","","","","","","","","","","","","","","","","","","","","","","",""
"","","","","","instructions","304","1230288","0.0-4.0-1.0-0.0-0.0","63169589b2fd7dd8f24702ba","B2","batch2","[{""page_index"":0,""viewing_time"":10086.09999999404},{""page_index"":1,""viewing_time"":6223.79999999702},{""page_index"":2,""viewing_time"":3326.4000000059605},{""page_index"":3,""viewing_time"":7683.70000000298},{""page_index"":4,""viewing_time"":8010.29999999702},{""page_index"":5,""viewing_time"":2047.7999999970198},{""page_index"":6,""viewing_time"":1923.0999999940395}]","39301.39999999106","","","tol-instructions","","","","","","","","","","","","","","","","","","","","","","","","",""
"","","","","","html-button-response","305","1231422","0.0-4.0-1.0-1.0-0.0","63169589b2fd7dd8f24702ba","B2","batch2","","1133.3999999910593","<p class=block-text> Let's answer a few questions <br>","0","tol_enter_quiz","","","","","","","","","","","","","","","","","","","","","","","","",""
"","","","","","html-button-response","306","1235565","0.0-4.0-1.0-1.0-1.0","63169589b2fd7dd8f24702ba","B2","batch2","","4142.70000000298","<p class = block-text>True or False: You can only move the ball on top of a peg. <br></p>","0","tol_quiz","true","","","","","","","","","","","","","","","","","","","","","","","",""
"","","","","","html-button-response","307","1238261","0.0-4.0-1.0-1.0-2.0","63169589b2fd7dd8f24702ba","B2","batch2","","2694.9000000059605","<p class = block-text>Correct! You can only move the ball on top of a peg.</p>","0","tol_quiz_feedback","","","","","","","","","","","","","","","","","","","","","","","","",""
"","","","","","html-button-response","308","1241344","0.0-4.0-1.0-1.0-3.0","63169589b2fd7dd8f24702ba","B2","batch2","","3082.8999999910593","<p class = block-text>True or False: You should try to match your board with the target board with fewest moves possible. <br></p>","0","tol_quiz","true","","","","","","","","","","","","","","","","","","","","","","","",""
"","","","","","html-button-response","309","1243057","0.0-4.0-1.0-1.0-4.0","63169589b2fd7dd8f24702ba","B2","batch2","","1712.699999988079","<p class = block-text>Correct! </p>","0","tol_quiz_feedback","","","","","","","","","","","","","","","","","","","","","","","","",""
"","","","","","html-button-response","310","1245449","0.0-4.0-2.0","63169589b2fd7dd8f24702ba","B2","batch2","","2390.800000011921","<p class=block-text> Now that you've understood the game, let's practice a few easier examples before we start!<br> <br>","0","","","","","","","","","","","","","","","","","","","","","","","","","",""
"","","","","","single-stim-button","311","1249534","0.0-4.0-3.0-0.0","63169589b2fd7dd8f24702ba","B2","batch2","","4083","","","tol_practice","","","","","","","","","","","tol_peg_2","4083","4083","0","[[1,2,0],[0,0],[0]]","1","[[1,2,0],[0,0],[3]]","practice","4083","","","","","",""
"","","","","","single-stim-button","312","1251024","0.0-4.0-3.0-1.0","63169589b2fd7dd8f24702ba","B2","batch2","","1489","","","tol_practice","","","","","","","","","","","tol_peg_3","1489","1489","0","[[1,2,0],[0,0],[3]]","1","[[1,2,0],[0,0],[3]]","practice","1489","","","","","",""
"","","","","","poldrack-single-stim","313","1252027","0.0-4.0-4.0","63169589b2fd7dd8f24702ba","B2","batch2","","-1","","","tol_feedback","true","","","","","","","","","","","1000","1000","500","","","","","","-1","none","true","","0",""
"","","","","","single-stim-button","314","1256390","0.0-4.0-5.0-0.0","63169589b2fd7dd8f24702ba","B2","batch2","","4363","","","tol_practice","","","","","","","","","","","tol_peg_1","4363","4363","0","[[1,0,0],[3,0],[0]]","2","[[0,0,0],[3,1],[2]]","practice","4363","","","","","",""
"","","","","","single-stim-button","315","1259558","0.0-4.0-5.0-1.0","63169589b2fd7dd8f24702ba","B2","batch2","","3168","","","tol_practice","","","","","","","","","","","tol_peg_1","3168","3168","0","[[1,2,0],[3,0],[0]]","2","[[0,0,0],[3,1],[2]]","practice","3168","","","","","",""
"","","","","","single-stim-button","316","1260936","0.0-4.0-5.1-0.1","63169589b2fd7dd8f24702ba","B2","batch2","","1377","","","tol_practice","","","","","","","","","","","tol_peg_1","1377","1377","0","[[1,0,0],[3,0],[0]]","3","[[0,0,0],[3,1],[2]]","practice","1377","","","","","",""
"","","","","","single-stim-button","317","1262237","0.0-4.0-5.1-1.1","63169589b2fd7dd8f24702ba","B2","batch2","","1300","","","tol_practice","","","","","","","","","","","tol_peg_3","1300","1300","0","[[1,0,0],[3,0],[2]]","3","[[0,0,0],[3,1],[2]]","practice","1300","","","","","",""
"","","","","","single-stim-button","318","1263661","0.0-4.0-5.2-0.2","63169589b2fd7dd8f24702ba","B2","batch2","","1424","","","tol_practice","","","","","","","","","","","tol_peg_1","1424","1424","0","[[0,0,0],[3,0],[2]]","4","[[0,0,0],[3,1],[2]]","practice","1424","","","","","",""
"","","","","","single-stim-button","319","1266828","0.0-4.0-5.2-1.2","63169589b2fd7dd8f24702ba","B2","batch2","","3166","","","tol_practice","","","","","","","","","","","tol_peg_2","3166","3166","0","[[0,0,0],[3,1],[2]]","4","[[0,0,0],[3,1],[2]]","practice","3166","","","","","",""
"","","","","","poldrack-single-stim","320","1267830","0.0-4.0-6.0","63169589b2fd7dd8f24702ba","B2","batch2","","-1","","","tol_feedback","true","","","","","","","","","","","1000","1000","500","","","","","","-1","none","true","","0",""
"","","","","","single-stim-button","321","1272672","0.0-4.0-7.0-0.0","63169589b2fd7dd8f24702ba","B2","batch2","","4841","","","tol_practice","","","","","","","","","","","tol_peg_2","4841","4841","0","[[1,2,0],[0,0],[0]]","5","[[1,0,0],[2,0],[3]]","practice","4841","","","","","",""
"","","","","","single-stim-button","322","1273823","0.0-4.0-7.0-1.0","63169589b2fd7dd8f24702ba","B2","batch2","","1151","","","tol_practice","","","","","","","","","","","tol_peg_3","1151","1151","0","[[1,2,0],[0,0],[3]]","5","[[1,0,0],[2,0],[3]]","practice","1151","","","","","",""
"","","","","","single-stim-button","323","1275607","0.0-4.0-7.1-0.1","63169589b2fd7dd8f24702ba","B2","batch2","","1783","","","tol_practice","","","","","","","","","","","tol_peg_1","1783","1783","0","[[1,0,0],[0,0],[3]]","6","[[1,0,0],[2,0],[3]]","practice","1783","","","","","",""
"","","","","","single-stim-button","324","1276358","0.0-4.0-7.1-1.1","63169589b2fd7dd8f24702ba","B2","batch2","","750","","","tol_practice","","","","","","","","","","","tol_peg_2","750","750","0","[[1,0,0],[2,0],[3]]","6","[[1,0,0],[2,0],[3]]","practice","750","","","","","",""
"","","","","","poldrack-single-stim","325","1277359","0.0-4.0-8.0","63169589b2fd7dd8f24702ba","B2","batch2","","-1","","","tol_feedback","true","","","","","","","","","","","1000","1000","500","","","","","","-1","none","true","","0",""
"","","","","","html-button-response","326","1279200","0.0-4.0-9.0","63169589b2fd7dd8f24702ba","B2","batch2","","1840.4000000059605","<div class = centerbox><p class = center-block-text>Great job! You are done with practice trials<br>You are about to start official trials.<br> <br> Problem <strong>1</strong> out of 25 problems</p></div>","0","tol_instruction","","","","","","","","","","","","","","","","","","","","","","","","",""
"","","","","","single-stim-button","327","1289070","0.0-4.0-10.0-0.0","63169589b2fd7dd8f24702ba","B2","batch2","","8868","","","tol_tohand","","","","","","","","","","","tol_peg_2","8868","8868","0","[[1,2,0],[0,0],[0]]","1","[[1,3,0],[2,0],[0]]","0","0","","","","","","3"
"","","","","","single-stim-button","328","1290316","0.0-4.0-10.0-1.0","63169589b2fd7dd8f24702ba","B2","batch2","","1246","","","tol_toboard","","","","","","","","","","","tol_peg_3","1246","1246","0","[[1,2,0],[0,0],[3]]","1","[[1,3,0],[2,0],[0]]","0","0","","","","","","3"
"","","","","","single-stim-button","329","1291684","0.0-4.0-10.1-0.1","63169589b2fd7dd8f24702ba","B2","batch2","","1367","","","tol_tohand","","","","","","","","","","","tol_peg_1","1367","1367","0","[[1,0,0],[0,0],[3]]","2","[[1,3,0],[2,0],[0]]","0","0","","","","","","3"
"","","","","","single-stim-button","330","1293132","0.0-4.0-10.1-1.1","63169589b2fd7dd8f24702ba","B2","batch2","","1448","","","tol_toboard","","","","","","","","","","","tol_peg_2","1448","1448","0","[[1,0,0],[2,0],[3]]","2","[[1,3,0],[2,0],[0]]","0","0","","","","","","3"
"","","","","","single-stim-button","331","1293983","0.0-4.0-10.2-0.2","63169589b2fd7dd8f24702ba","B2","batch2","","850","","","tol_tohand","","","","","","","","","","","tol_peg_3","850","850","0","[[1,0,0],[2,0],[0]]","3","[[1,3,0],[2,0],[0]]","0","0","","","","","","3"
"","","","","","single-stim-button","332","1294845","0.0-4.0-10.2-1.2","63169589b2fd7dd8f24702ba","B2","batch2","","862","","","tol_toboard","","","","","","","","","","","tol_peg_1","862","862","0","[[1,3,0],[2,0],[0]]","3","[[1,3,0],[2,0],[0]]","0","0","","","","","","3"
"","","","","","poldrack-single-stim","333","1295859","0.0-4.0-11.0","63169589b2fd7dd8f24702ba","B2","batch2","","-1","","","tol_feedback","true","","","","","","","","","","","1000","1000","500","","","","","","-1","none","true","8868","11085",""
"","","","","","html-button-response","334","1297223","0.0-4.0-12.0","63169589b2fd7dd8f24702ba","B2","batch2","","1362.5","<div class = centerbox><p class = center-block-text>problem <strong>2</strong> out of 25 problems</p></div>","0","tol_trial_num","","","","","","","","","","","","","","","","","","","","","","","","",""
"","","","","","single-stim-button","335","1302127","0.0-4.0-13.0-0.0","63169589b2fd7dd8f24702ba","B2","batch2","","4904","","","tol_tohand","","","","","","","","","","","tol_peg_1","4904","4904","0","[[1,0,0],[3,0],[0]]","1","[[2,1,3],[0,0],[0]]","1","0","","","","","","5"
"","","","","","single-stim-button","336","1302992","0.0-4.0-13.0-1.0","63169589b2fd7dd8f24702ba","B2","batch2","","865","","","tol_toboard","","","","","","","","","","","tol_peg_3","865","865","0","[[1,0,0],[3,0],[2]]","1","[[2,1,3],[0,0],[0]]","1","0","","","","","","5"
"","","","","","single-stim-button","337","1310884","0.0-4.0-13.1-0.1","63169589b2fd7dd8f24702ba","B2","batch2","","7892","","","tol_tohand","","","","","","","","","","","tol_peg_1","7892","7892","0","[[0,0,0],[3,0],[2]]","2","[[2,1,3],[0,0],[0]]","1","0","","","","","","5"
"","","","","","single-stim-button","338","1311881","0.0-4.0-13.1-1.1","63169589b2fd7dd8f24702ba","B2","batch2","","997","","","tol_toboard","","","","","","","","","","","tol_peg_2","997","997","0","[[0,0,0],[3,1],[2]]","2","[[2,1,3],[0,0],[0]]","1","0","","","","","","5"
"","","","","","single-stim-button","339","1312834","0.0-4.0-13.2-0.2","63169589b2fd7dd8f24702ba","B2","batch2","","953","","","tol_tohand","","","","","","","","","","","tol_peg_3","953","953","0","[[0,0,0],[3,1],[0]]","3","[[2,1,3],[0,0],[0]]","1","0","","","","","","5"
"","","","","","single-stim-button","340","1314069","0.0-4.0-13.2-1.2","63169589b2fd7dd8f24702ba","B2","batch2","","1235","","","tol_toboard","","","","","","","","","","","tol_peg_1","1235","1235","0","[[2,0,0],[3,1],[0]]","3","[[2,1,3],[0,0],[0]]","1","0","","","","","","5"
"","","","","","single-stim-button","341","1314895","0.0-4.0-13.3-0.3","63169589b2fd7dd8f24702ba","B2","batch2","","826","","","tol_tohand","","","","","","","","","","","tol_peg_2","826","826","0","[[2,0,0],[3,0],[0]]","4","[[2,1,3],[0,0],[0]]","1","0","","","","","","5"
"","","","","","single-stim-button","342","1315696","0.0-4.0-13.3-1.3","63169589b2fd7dd8f24702ba","B2","batch2","","801","","","tol_toboard","","","","","","","","","","","tol_peg_1","801","801","0","[[2,1,0],[3,0],[0]]","4","[[2,1,3],[0,0],[0]]","1","0","","","","","","5"
"","","","","","single-stim-button","343","1316786","0.0-4.0-13.4-0.4","63169589b2fd7dd8f24702ba","B2","batch2","","1089","","","tol_tohand","","","","","","","","","","","tol_peg_2","1089","1089","0","[[2,1,0],[0,0],[0]]","5","[[2,1,3],[0,0],[0]]","1","0","","","","","","5"
"","","","","","single-stim-button","344","1317609","0.0-4.0-13.4-1.4","63169589b2fd7dd8f24702ba","B2","batch2","","823","","","tol_toboard","","","","","","","","","","","tol_peg_1","823","823","0","[[2,1,3],[0,0],[0]]","5","[[2,1,3],[0,0],[0]]","1","0","","","","","","5"
"","","","","","poldrack-single-stim","345","1318610","0.0-4.0-14.0","63169589b2fd7dd8f24702ba","B2","batch2","","-1","","","tol_feedback","true","","","","","","","","","","","1000","1000","500","","","","","","-1","none","true","4904","15664",""
"","","","","","html-button-response","346","1320277","0.0-4.0-15.0","63169589b2fd7dd8f24702ba","B2","batch2","","1666.5999999940395","<div class = centerbox><p class = center-block-text>problem <strong>3</strong> out of 25 problems</p></div>","0","tol_trial_num","","","","","","","","","","","","","","","","","","","","","","","","",""
