"success","timeout","failed_images","failed_audio","failed_video","trial_type","trial_index","time_elapsed","internal_node_id","subject_id","study_id","session_id","view_history","rt","stimulus","response","task","correct","answer","item","fiar_detect_rt","fiar_detect_correct","total_correct_fiar_detect","post_trial_gap","choices","mouse_click","stim_duration","block_duration","timing_post_trial","current_position","tol_num_moves_made","tol_target","tol_problem_id","tol_rt","key_press","possible_responses","tol_correct","preplanning","tol_rt_per_trial","tol_min_moves","spm_correct","spm_rt"
"true","false","[]","[]","[]","preload","0","2470","0.0-0.0","631a1f357c56acbb68d5dc14","F1","batch6","","","","","","","","","","","","","","","","","","","","","","","","","","","","","",""
"true","","","","","fullscreen","1","14437","0.0-1.0-0.0","631a1f357c56acbb68d5dc14","F1","batch6","","","","","","","","","","","","","","","","","","","","","","","","","","","","","",""
"true","","","","","fullscreen","2","17988","0.0-2.0-0.0","631a1f357c56acbb68d5dc14","F1","batch6","","","","","","","","","","","","","","","","","","","","","","","","","","","","","",""
"","","","","","instructions","3","33778","0.0-2.0-1.0-0.0","631a1f357c56acbb68d5dc14","F1","batch6","[{""page_index"":0,""viewing_time"":9792.800000071526},{""page_index"":1,""viewing_time"":5993.699999928474}]","15787.399999976158","","","","","","","","","","","","","","","","","","","","","","","","","","","",""
"","","","","","html-button-response","4","35433","0.0-2.0-1.0-1.0-0.0","631a1f357c56acbb68d5dc14","F1","batch6","","1648.7000000476837","<p class=block-text> Let's answer a few questions <br>","0","pattern_enter_quiz","","","","","","","","","","","","","","","","","","","","","","","","",""
"","","","","","html-button-response","5","40639","0.0-2.0-1.0-1.0-1.0","631a1f357c56acbb68d5dc14","F1","batch6","","5201.900000095367","<p class = block-text>True or False: You will have as much time as you want to make each choice. <br></p>","1","pattern_quiz","true","","","","","","","","","","","","","","","","","","","","","","","",""
"","","","","","html-button-response","6","42206","0.0-2.0-1.0-1.0-2.0","631a1f357c56acbb68d5dc14","F1","batch6","","1562","<p class = block-text>Correct! You should make your choice <strong> as fast as you can</strong>.</p>","0","pattern_quiz_feedback","","","","","","","","","","","","","","","","","","","","","","","","",""
"","","","","","html-button-response","7","46472","0.0-2.0-1.0-1.0-3.0","631a1f357c56acbb68d5dc14","F1","batch6","","4262.800000071526","<p class = block-text>True or False: You will look for 4 pieces in black or white color connected in a row either horizontally, vertically or diagonally. <br></p>","0","pattern_quiz","true","","","","","","","","","","","","","","","","","","","","","","","",""
"","","","","","html-button-response","8","47693","0.0-2.0-1.0-1.0-4.0","631a1f357c56acbb68d5dc14","F1","batch6","","1216.8999999761581","<p class = block-text>Correct! </p>","0","pattern_quiz_feedback","","","","","","","","","","","","","","","","","","","","","","","","",""
"","","","","","html-button-response","9","49216","0.0-2.0-2.0","631a1f357c56acbb68d5dc14","F1","batch6","","1517.1000000238419","<p class=block-text> Now that you've understood the game, let's do a few practice trials before we start!<br> <br>","0","pattern_enter_practice","","","","","","","","","","","","","","","","","","","","","","","","",""
"","","","","","image-keyboard-response","10","51477","0.0-2.0-3.0-0.0","631a1f357c56acbb68d5dc14","F1","batch6","","2249.4000000953674","stim/prac_yes_16_ver_w1.png","f","pattern_practice","true","f","","","","","","","","","","","","","","","","","","","","","","",""
"","","","","","html-keyboard-response","11","52488","0.0-2.0-3.0-1.0","631a1f357c56acbb68d5dc14","F1","batch6","","null","<p style=""font-size:30px;color:green;"">Correct!</p>","null","pattern_feedback","","","","","","","","","","","","","","","","","","","","","","","","",""
"","","","","","image-keyboard-response","12","53435","0.0-2.0-3.0-0.1","631a1f357c56acbb68d5dc14","F1","batch6","","943.1000000238419","stim/prac_yes_20_dia_b1.png","j","pattern_practice","false","f","","","","","","","","","","","","","","","","","","","","","","",""
"","","","","","html-keyboard-response","13","54448","0.0-2.0-3.0-1.1","631a1f357c56acbb68d5dc14","F1","batch6","","null","<p style=""font-size:30px;color:red;"">Wrong.</p>","null","pattern_feedback","","","","","","","","","","","","","","","","","","","","","","","","",""
"","","","","","image-keyboard-response","14","55703","0.0-2.0-3.0-0.2","631a1f357c56acbb68d5dc14","F1","batch6","","1251.2999999523163","stim/prac_no_18_1.png","j","pattern_practice","true","j","","","","","","","","","","","","","","","","","","","","","","",""
"","","","","","html-keyboard-response","15","56733","0.0-2.0-3.0-1.2","631a1f357c56acbb68d5dc14","F1","batch6","","null","<p style=""font-size:30px;color:green;"">Correct!</p>","null","pattern_feedback","","","","","","","","","","","","","","","","","","","","","","","","",""
"","","","","","image-keyboard-response","16","57386","0.0-2.0-3.0-0.3","631a1f357c56acbb68d5dc14","F1","batch6","","649.2999999523163","stim/prac_yes_18_hor_w1.png","f","pattern_practice","true","f","","","","","","","","","","","","","","","","","","","","","","",""
"","","","","","html-keyboard-response","17","58406","0.0-2.0-3.0-1.3","631a1f357c56acbb68d5dc14","F1","batch6","","null","<p style=""font-size:30px;color:green;"">Correct!</p>","null","pattern_feedback","","","","","","","","","","","","","","","","","","","","","","","","",""
"","","","","","image-keyboard-response","18","60244","0.0-2.0-3.0-0.4","631a1f357c56acbb68d5dc14","F1","batch6","","1834.1000000238419","stim/prac_no_16_1.png","j","pattern_practice","true","j","","","","","","","","","","","","","","","","","","","","","","",""
"","","","","","html-keyboard-response","19","61261","0.0-2.0-3.0-1.4","631a1f357c56acbb68d5dc14","F1","batch6","","null","<p style=""font-size:30px;color:green;"">Correct!</p>","null","pattern_feedback","","","","","","","","","","","","","","","","","","","","","","","","",""
"","","","","","html-button-response","20","65893","0.0-2.0-4.0","631a1f357c56acbb68d5dc14","F1","batch6","","4627.199999928474","<p class=block-text> Good job! You are done with practice trials!<br>
        You responded correctly on 80% of the trials.<br>
        Press the button below to start official trials. Now you won't see any feedback about your response</p>","0","pattern_enter_official_trials","","","","","","","","","","","","","","","","","","","","","","","","",""
"","","","","","html-keyboard-response","21","66711","0.0-2.0-5.0-0.0","631a1f357c56acbb68d5dc14","F1","batch6","","null","<p class=block-text>Trial 1 out of 78</p>","null","pattern_show_trial_num","","","","","","","","","","","","","","","","","","","","","","","","",""
"","","","","","image-keyboard-response","22","67561","0.0-2.0-5.0-1.0","631a1f357c56acbb68d5dc14","F1","batch6","","845.1999999284744","stim/yes_12_hor_w1_w.png","f","pattern_response","true","f","pattern_42","845.1999999284744","true","1","","","","","","","","","","","","","","","","","","",""
"","","","","","html-keyboard-response","23","68880","0.0-2.0-5.0-0.1","631a1f357c56acbb68d5dc14","F1","batch6","","null","<p class=block-text>Trial 2 out of 78</p>","null","pattern_show_trial_num","","","","","","","","","","","","","","","","","","","","","","","","",""
"","","","","","image-keyboard-response","24","70833","0.0-2.0-5.0-1.1","631a1f357c56acbb68d5dc14","F1","batch6","","1950.1000000238419","stim/no_53_1_b.png","f","pattern_response","false","j","pattern_33","1950.1000000238419","false","1","","","","","","","","","","","","","","","","","","",""
"","","","","","html-keyboard-response","25","72144","0.0-2.0-5.0-0.2","631a1f357c56acbb68d5dc14","F1","batch6","","null","<p class=block-text>Trial 3 out of 78</p>","null","pattern_show_trial_num","","","","","","","","","","","","","","","","","","","","","","","","",""
"","","","","","image-keyboard-response","26","75086","0.0-2.0-5.0-1.2","631a1f357c56acbb68d5dc14","F1","batch6","","2938.2999999523163","stim/yes_63_dia_b1.png","j","pattern_response","false","f","pattern_78","2938.2999999523163","false","1","","","","","","","","","","","","","","","","","","",""
"","","","","","html-keyboard-response","27","76415","0.0-2.0-5.0-0.3","631a1f357c56acbb68d5dc14","F1","batch6","","null","<p class=block-text>Trial 4 out of 78</p>","null","pattern_show_trial_num","","","","","","","","","","","","","","","","","","","","","","","","",""
"","","","","","image-keyboard-response","28","79162","0.0-2.0-5.0-1.3","631a1f357c56acbb68d5dc14","F1","batch6","","2743","stim/no_67_1.png","j","pattern_response","true","j","pattern_39","2743","true","2","","","","","","","","","","","","","","","","","","",""
"","","","","","html-keyboard-response","29","80478","0.0-2.0-5.0-0.4","631a1f357c56acbb68d5dc14","F1","batch6","","null","<p class=block-text>Trial 5 out of 78</p>","null","pattern_show_trial_num","","","","","","","","","","","","","","","","","","","","","","","","",""
"","","","","","image-keyboard-response","30","82262","0.0-2.0-5.0-1.4","631a1f357c56acbb68d5dc14","F1","batch6","","1779.2999999523163","stim/no_36_1_b.png","j","pattern_response","true","j","pattern_17","1779.2999999523163","true","3","","","","","","","","","","","","","","","","","","",""
"","","","","","html-keyboard-response","31","83571","0.0-2.0-5.0-0.5","631a1f357c56acbb68d5dc14","F1","batch6","","null","<p class=block-text>Trial 6 out of 78</p>","null","pattern_show_trial_num","","","","","","","","","","","","","","","","","","","","","","","","",""
"","","","","","image-keyboard-response","32","84325","0.0-2.0-5.0-1.5","631a1f357c56acbb68d5dc14","F1","batch6","","749.6000000238419","stim/yes_23_ver_b1.png","f","pattern_response","true","f","pattern_48","749.6000000238419","true","4","","","","","","","","","","","","","","","","","","",""
"","","","","","html-keyboard-response","33","85647","0.0-2.0-5.0-0.6","631a1f357c56acbb68d5dc14","F1","batch6","","null","<p class=block-text>Trial 7 out of 78</p>","null","pattern_show_trial_num","","","","","","","","","","","","","","","","","","","","","","","","",""
"","","","","","image-keyboard-response","34","86575","0.0-2.0-5.0-1.6","631a1f357c56acbb68d5dc14","F1","batch6","","924.6999999284744","stim/yes_49_hor_w1_b.png","f","pattern_response","true","f","pattern_70","924.6999999284744","true","5","","","","","","","","","","","","","","","","","","",""
"","","","","","html-keyboard-response","35","87894","0.0-2.0-5.0-0.7","631a1f357c56acbb68d5dc14","F1","batch6","","null","<p class=block-text>Trial 8 out of 78</p>","null","pattern_show_trial_num","","","","","","","","","","","","","","","","","","","","","","","","",""
"","","","","","image-keyboard-response","36","90098","0.0-2.0-5.0-1.7","631a1f357c56acbb68d5dc14","F1","batch6","","2200.6999999284744","stim/yes_46_ver_b1_b.png","j","pattern_response","false","f","pattern_68","2200.6999999284744","false","5","","","","","","","","","","","","","","","","","","",""
"","","","","","html-keyboard-response","37","91414","0.0-2.0-5.0-0.8","631a1f357c56acbb68d5dc14","F1","batch6","","null","<p class=block-text>Trial 9 out of 78</p>","null","pattern_show_trial_num","","","","","","","","","","","","","","","","","","","","","","","","",""
"","","","","","image-keyboard-response","38","92429","0.0-2.0-5.0-1.8","631a1f357c56acbb68d5dc14","F1","batch6","","1009.8000000715256","stim/no_22_1_b.png","j","pattern_response","true","j","pattern_07","1009.8000000715256","true","6","","","","","","","","","","","","","","","","","","",""
"","","","","","html-keyboard-response","39","93751","0.0-2.0-5.0-0.9","631a1f357c56acbb68d5dc14","F1","batch6","","null","<p class=block-text>Trial 10 out of 78</p>","null","pattern_show_trial_num","","","","","","","","","","","","","","","","","","","","","","","","",""
"","","","","","image-keyboard-response","40","96030","0.0-2.0-5.0-1.9","631a1f357c56acbb68d5dc14","F1","batch6","","2276","stim/no_45_1_w.png","j","pattern_response","true","j","pattern_25","2276","true","7","","","","","","","","","","","","","","","","","","",""
"","","","","","html-keyboard-response","41","97342","0.0-2.0-5.0-0.10","631a1f357c56acbb68d5dc14","F1","batch6","","null","<p class=block-text>Trial 11 out of 78</p>","null","pattern_show_trial_num","","","","","","","","","","","","","","","","","","","","","","","","",""
"","","","","","image-keyboard-response","42","99605","0.0-2.0-5.0-1.10","631a1f357c56acbb68d5dc14","F1","batch6","","2259.100000023842","stim/no_39_1_w.png","j","pattern_response","true","j","pattern_21","2259.100000023842","true","8","","","","","","","","","","","","","","","","","","",""
"","","","","","html-keyboard-response","43","100933","0.0-2.0-5.0-0.11","631a1f357c56acbb68d5dc14","F1","batch6","","null","<p class=block-text>Trial 12 out of 78</p>","null","pattern_show_trial_num","","","","","","","","","","","","","","","","","","","","","","","","",""
"","","","","","image-keyboard-response","44","101749","0.0-2.0-5.0-1.11","631a1f357c56acbb68d5dc14","F1","batch6","","812.8000000715256","stim/yes_37_hor_w1_w.png","f","pattern_response","true","f","pattern_60","812.8000000715256","true","9","","","","","","","","","","","","","","","","","","",""
"","","","","","html-keyboard-response","45","103064","0.0-2.0-5.0-0.12","631a1f357c56acbb68d5dc14","F1","batch6","","null","<p class=block-text>Trial 13 out of 78</p>","null","pattern_show_trial_num","","","","","","","","","","","","","","","","","","","","","","","","",""
"","","","","","image-keyboard-response","46","104732","0.0-2.0-5.0-1.12","631a1f357c56acbb68d5dc14","F1","batch6","","1664","stim/no_28_2.png","j","pattern_response","true","j","pattern_11","1664","true","10","","","","","","","","","","","","","","","","","","",""
"","","","","","html-keyboard-response","47","106046","0.0-2.0-5.0-0.13","631a1f357c56acbb68d5dc14","F1","batch6","","null","<p class=block-text>Trial 14 out of 78</p>","null","pattern_show_trial_num","","","","","","","","","","","","","","","","","","","","","","","","",""
"","","","","","image-keyboard-response","48","107783","0.0-2.0-5.0-1.13","631a1f357c56acbb68d5dc14","F1","batch6","","1732.1999999284744","stim/no_30_1_b.png","j","pattern_response","true","j","pattern_13","1732.1999999284744","true","11","","","","","","","","","","","","","","","","","","",""
"","","","","","html-keyboard-response","49","109102","0.0-2.0-5.0-0.14","631a1f357c56acbb68d5dc14","F1","batch6","","null","<p class=block-text>Trial 15 out of 78</p>","null","pattern_show_trial_num","","","","","","","","","","","","","","","","","","","","","","","","",""
"","","","","","image-keyboard-response","50","111826","0.0-2.0-5.0-1.14","631a1f357c56acbb68d5dc14","F1","batch6","","2719.7000000476837","stim/no_47_1_b.png","j","pattern_response","true","j","pattern_27","2719.7000000476837","true","12","","","","","","","","","","","","","","","","","","",""
"","","","","","html-keyboard-response","51","113141","0.0-2.0-5.0-0.15","631a1f357c56acbb68d5dc14","F1","batch6","","null","<p class=block-text>Trial 16 out of 78</p>","null","pattern_show_trial_num","","","","","","","","","","","","","","","","","","","","","","","","",""
"","","","","","image-keyboard-response","52","114561","0.0-2.0-5.0-1.15","631a1f357c56acbb68d5dc14","F1","batch6","","1415","stim/yes_44_ver_w1_w.png","f","pattern_response","true","f","pattern_66","1415","true","13","","","","","","","","","","","","","","","","","","",""
"","","","","","html-keyboard-response","53","115884","0.0-2.0-5.0-0.16","631a1f357c56acbb68d5dc14","F1","batch6","","null","<p class=block-text>Trial 17 out of 78</p>","null","pattern_show_trial_num","","","","","","","","","","","","","","","","","","","","","","","","",""
"","","","","","image-keyboard-response","54","118681","0.0-2.0-5.0-1.16","631a1f357c56acbb68d5dc14","F1","batch6","","2796.399999976158","stim/no_49_2_b.png","j","pattern_response","true","j","pattern_29","2796.399999976158","true","14","","","","","","","","","","","","","","","","","","",""
"","","","","","html-keyboard-response","55","120003","0.0-2.0-5.0-0.17","631a1f357c56acbb68d5dc14","F1","batch6","","null","<p class=block-text>Trial 18 out of 78</p>","null","pattern_show_trial_num","","","","","","","","","","","","","","","","","","","","","","","","",""
"","","","","","image-keyboard-response","56","120940","0.0-2.0-5.0-1.17","631a1f357c56acbb68d5dc14","F1","batch6","","930.8999999761581","stim/yes_26_dia_w2_w.png","f","pattern_response","true","f","pattern_50","930.8999999761581","true","15","","","","","","","","","","","","","","","","","","",""
"","","","","","html-keyboard-response","57","122251","0.0-2.0-5.0-0.18","631a1f357c56acbb68d5dc14","F1","batch6","","null","<p class=block-text>Trial 19 out of 78</p>","null","pattern_show_trial_num","","","","","","","","","","","","","","","","","","","","","","","","",""
"","","","","","image-keyboard-response","58","124882","0.0-2.0-5.0-1.18","631a1f357c56acbb68d5dc14","F1","batch6","","2627.5","stim/yes_51_dia_b1.png","j","pattern_response","false","f","pattern_72","2627.5","false","15","","","","","","","","","","","","","","","","","","",""
"","","","","","html-keyboard-response","59","126193","0.0-2.0-5.0-0.19","631a1f357c56acbb68d5dc14","F1","batch6","","null","<p class=block-text>Trial 20 out of 78</p>","null","pattern_show_trial_num","","","","","","","","","","","","","","","","","","","","","","","","",""
"","","","","","image-keyboard-response","60","126948","0.0-2.0-5.0-1.19","631a1f357c56acbb68d5dc14","F1","batch6","","751","stim/yes_15_dia_b1u_b.png","f","pattern_response","true","f","pattern_44","751","true","16","","","","","","","","","","","","","","","","","","",""
"","","","","","html-keyboard-response","61","128258","0.0-2.0-5.0-0.20","631a1f357c56acbb68d5dc14","F1","batch6","","null","<p class=block-text>Trial 21 out of 78</p>","null","pattern_show_trial_num","","","","","","","","","","","","","","","","","","","","","","","","",""
"","","","","","image-keyboard-response","62","128878","0.0-2.0-5.0-1.20","631a1f357c56acbb68d5dc14","F1","batch6","","616.8000000715256","stim/yes_39_hor_w1_w.png","f","pattern_response","true","f","pattern_62","616.8000000715256","true","17","","","","","","","","","","","","","","","","","","",""
"","","","","","html-keyboard-response","63","130196","0.0-2.0-5.0-0.21","631a1f357c56acbb68d5dc14","F1","batch6","","null","<p class=block-text>Trial 22 out of 78</p>","null","pattern_show_trial_num","","","","","","","","","","","","","","","","","","","","","","","","",""
"","","","","","image-keyboard-response","64","130843","0.0-2.0-5.0-1.21","631a1f357c56acbb68d5dc14","F1","batch6","","643.2999999523163","stim/yes_36_ver_w1_w.png","f","pattern_response","true","f","pattern_58","643.2999999523163","true","18","","","","","","","","","","","","","","","","","","",""
"","","","","","html-keyboard-response","65","132171","0.0-2.0-5.0-0.22","631a1f357c56acbb68d5dc14","F1","batch6","","null","<p class=block-text>Trial 23 out of 78</p>","null","pattern_show_trial_num","","","","","","","","","","","","","","","","","","","","","","","","",""
"","","","","","image-keyboard-response","66","132996","0.0-2.0-5.0-1.22","631a1f357c56acbb68d5dc14","F1","batch6","","822.1999999284744","stim/yes_17_ver_b1_b.png","f","pattern_response","true","f","pattern_46","822.1999999284744","true","19","","","","","","","","","","","","","","","","","","",""
"","","","","","html-keyboard-response","67","134320","0.0-2.0-5.0-0.23","631a1f357c56acbb68d5dc14","F1","batch6","","null","<p class=block-text>Trial 24 out of 78</p>","null","pattern_show_trial_num","","","","","","","","","","","","","","","","","","","","","","","","",""
"","","","","","image-keyboard-response","68","137112","0.0-2.0-5.0-1.23","631a1f357c56acbb68d5dc14","F1","batch6","","2788.7999999523163","stim/no_51_1.png","j","pattern_response","true","j","pattern_31","2788.7999999523163","true","20","","","","","","","","","","","","","","","","","","",""
"","","","","","html-keyboard-response","69","138430","0.0-2.0-5.0-0.24","631a1f357c56acbb68d5dc14","F1","batch6","","null","<p class=block-text>Trial 25 out of 78</p>","null","pattern_show_trial_num","","","","","","","","","","","","","","","","","","","","","","","","",""
"","","","","","image-keyboard-response","70","139534","0.0-2.0-5.0-1.24","631a1f357c56acbb68d5dc14","F1","batch6","","1099.7999999523163","stim/yes_53_ver_b1_b.png","f","pattern_response","true","f","pattern_74","1099.7999999523163","true","21","","","","","","","","","","","","","","","","","","",""
"","","","","","html-keyboard-response","71","140855","0.0-2.0-5.0-0.25","631a1f357c56acbb68d5dc14","F1","batch6","","null","<p class=block-text>Trial 26 out of 78</p>","null","pattern_show_trial_num","","","","","","","","","","","","","","","","","","","","","","","","",""
"","","","","","image-keyboard-response","72","144236","0.0-2.0-5.0-1.25","631a1f357c56acbb68d5dc14","F1","batch6","","3377.8000000715256","stim/no_58_1_w.png","j","pattern_response","true","j","pattern_35","3377.8000000715256","true","22","","","","","","","","","","","","","","","","","","",""
"","","","","","html-keyboard-response","73","145555","0.0-2.0-5.0-0.26","631a1f357c56acbb68d5dc14","F1","batch6","","null","<p class=block-text>Trial 27 out of 78</p>","null","pattern_show_trial_num","","","","","","","","","","","","","","","","","","","","","","","","",""
"","","","","","image-keyboard-response","74","146912","0.0-2.0-5.0-1.26","631a1f357c56acbb68d5dc14","F1","batch6","","1351.7999999523163","stim/no_25_1_b.png","j","pattern_response","true","j","pattern_09","1351.7999999523163","true","23","","","","","","","","","","","","","","","","","","",""
"","","","","","html-keyboard-response","75","148239","0.0-2.0-5.0-0.27","631a1f357c56acbb68d5dc14","F1","batch6","","null","<p class=block-text>Trial 28 out of 78</p>","null","pattern_show_trial_num","","","","","","","","","","","","","","","","","","","","","","","","",""
"","","","","","image-keyboard-response","76","149229","0.0-2.0-5.0-1.27","631a1f357c56acbb68d5dc14","F1","batch6","","986.8000000715256","stim/yes_70_ver_b1.png","f","pattern_response","true","f","pattern_80","986.8000000715256","true","24","","","","","","","","","","","","","","","","","","",""
"","","","","","html-keyboard-response","77","150535","0.0-2.0-5.0-0.28","631a1f357c56acbb68d5dc14","F1","batch6","","null","<p class=block-text>Trial 29 out of 78</p>","null","pattern_show_trial_num","","","","","","","","","","","","","","","","","","","","","","","","",""
"","","","","","image-keyboard-response","78","154438","0.0-2.0-5.0-1.28","631a1f357c56acbb68d5dc14","F1","batch6","","3899","stim/yes_58_dia_w1_w.png","j","pattern_response","false","f","pattern_76","3899","false","24","","","","","","","","","","","","","","","","","","",""
"","","","","","html-keyboard-response","79","155745","0.0-2.0-5.0-0.29","631a1f357c56acbb68d5dc14","F1","batch6","","null","<p class=block-text>Trial 30 out of 78</p>","null","pattern_show_trial_num","","","","","","","","","","","","","","","","","","","","","","","","",""
"","","","","","image-keyboard-response","80","156705","0.0-2.0-5.0-1.29","631a1f357c56acbb68d5dc14","F1","batch6","","955.5","stim/yes_29_hor_b1_b.png","f","pattern_response","true","f","pattern_52","955.5","true","25","","","","","","","","","","","","","","","","","","",""
"","","","","","html-keyboard-response","81","158012","0.0-2.0-5.0-0.30","631a1f357c56acbb68d5dc14","F1","batch6","","null","<p class=block-text>Trial 31 out of 78</p>","null","pattern_show_trial_num","","","","","","","","","","","","","","","","","","","","","","","","",""
"","","","","","image-keyboard-response","82","159490","0.0-2.0-5.0-1.30","631a1f357c56acbb68d5dc14","F1","batch6","","1474.8999999761581","stim/yes_42_dia_w1_w.png","f","pattern_response","true","f","pattern_64","1474.8999999761581","true","26","","","","","","","","","","","","","","","","","","",""
"","","","","","html-keyboard-response","83","160822","0.0-2.0-5.0-0.31","631a1f357c56acbb68d5dc14","F1","batch6","","null","<p class=block-text>Trial 32 out of 78</p>","null","pattern_show_trial_num","","","","","","","","","","","","","","","","","","","","","","","","",""
"","","","","","image-keyboard-response","84","163025","0.0-2.0-5.0-1.31","631a1f357c56acbb68d5dc14","F1","batch6","","2200.5","stim/no_43_2_b.png","j","pattern_response","true","j","pattern_23","2200.5","true","27","","","","","","","","","","","","","","","","","","",""
"","","","","","html-keyboard-response","85","164337","0.0-2.0-5.0-0.32","631a1f357c56acbb68d5dc14","F1","batch6","","null","<p class=block-text>Trial 33 out of 78</p>","null","pattern_show_trial_num","","","","","","","","","","","","","","","","","","","","","","","","",""
"","","","","","image-keyboard-response","86","165287","0.0-2.0-5.0-1.32","631a1f357c56acbb68d5dc14","F1","batch6","","946.2000000476837","stim/no_18_1_b.png","j","pattern_response","true","j","pattern_05","946.2000000476837","true","28","","","","","","","","","","","","","","","","","","",""
"","","","","","html-keyboard-response","87","166605","0.0-2.0-5.0-0.33","631a1f357c56acbb68d5dc14","F1","batch6","","null","<p class=block-text>Trial 34 out of 78</p>","null","pattern_show_trial_num","","","","","","","","","","","","","","","","","","","","","","","","",""
"","","","","","image-keyboard-response","88","167711","0.0-2.0-5.0-1.33","631a1f357c56acbb68d5dc14","F1","batch6","","1102.6000000238419","stim/yes_30_ver_b1_b.png","j","pattern_response","false","f","pattern_54","1102.6000000238419","false","28","","","","","","","","","","","","","","","","","","",""
"","","","","","html-keyboard-response","89","169025","0.0-2.0-5.0-0.34","631a1f357c56acbb68d5dc14","F1","batch6","","null","<p class=block-text>Trial 35 out of 78</p>","null","pattern_show_trial_num","","","","","","","","","","","","","","","","","","","","","","","","",""
"","","","","","image-keyboard-response","90","170146","0.0-2.0-5.0-1.34","631a1f357c56acbb68d5dc14","F1","batch6","","1103.6000000238419","stim/no_15_1_w.png","j","pattern_response","true","j","pattern_03","1103.6000000238419","true","29","","","","","","","","","","","","","","","","","","",""
"","","","","","html-keyboard-response","91","171465","0.0-2.0-5.0-0.35","631a1f357c56acbb68d5dc14","F1","batch6","","null","<p class=block-text>Trial 36 out of 78</p>","null","pattern_show_trial_num","","","","","","","","","","","","","","","","","","","","","","","","",""
"","","","","","image-keyboard-response","92","174183","0.0-2.0-5.0-1.35","631a1f357c56acbb68d5dc14","F1","batch6","","2713.7000000476837","stim/no_37_2_w.png","j","pattern_response","true","j","pattern_19","2713.7000000476837","true","30","","","","","","","","","","","","","","","","","","",""
"","","","","","html-keyboard-response","93","175501","0.0-2.0-5.0-0.36","631a1f357c56acbb68d5dc14","F1","batch6","","null","<p class=block-text>Trial 37 out of 78</p>","null","pattern_show_trial_num","","","","","","","","","","","","","","","","","","","","","","","","",""
"","","","","","image-keyboard-response","94","176458","0.0-2.0-5.0-1.36","631a1f357c56acbb68d5dc14","F1","batch6","","952.7000000476837","stim/yes_33_dia_w1_w.png","f","pattern_response","true","f","pattern_56","952.7000000476837","true","31","","","","","","","","","","","","","","","","","","",""
"","","","","","html-keyboard-response","95","177787","0.0-2.0-5.0-0.37","631a1f357c56acbb68d5dc14","F1","batch6","","null","<p class=block-text>Trial 38 out of 78</p>","null","pattern_show_trial_num","","","","","","","","","","","","","","","","","","","","","","","","",""
"","","","","","image-keyboard-response","96","180603","0.0-2.0-5.0-1.37","631a1f357c56acbb68d5dc14","F1","batch6","","2809.7000000476837","stim/no_33_1_b.png","j","pattern_response","true","j","pattern_15","2809.7000000476837","true","32","","","","","","","","","","","","","","","","","","",""
"","","","","","html-keyboard-response","97","181924","0.0-2.0-5.0-0.38","631a1f357c56acbb68d5dc14","F1","batch6","","null","<p class=block-text>Trial 39 out of 78</p>","null","pattern_show_trial_num","","","","","","","","","","","","","","","","","","","","","","","","",""
"","","","","","image-keyboard-response","98","182812","0.0-2.0-5.0-1.38","631a1f357c56acbb68d5dc14","F1","batch6","","884.1000000238419","stim/no_12_1.png","j","pattern_response","true","j","pattern_01","884.1000000238419","true","33","","","","","","","","","","","","","","","","","","",""
"","","","","","image-keyboard-response","99","184945","0.0-2.0-6.0","631a1f357c56acbb68d5dc14","F1","batch6","","1623.1000000238419","stim/empty_board.png","j","attention_check","true","j","","","","","500","[""f"",""j""]","","","","","","","","","","","","","","","","",""
"","","","","","html-keyboard-response","100","185757","0.0-2.0-7.0-0.0","631a1f357c56acbb68d5dc14","F1","batch6","","null","<p class=block-text>Trial 40 out of 78</p>","null","pattern_show_trial_num","","","","","","","","","","","","","","","","","","","","","","","","",""
"","","","","","image-keyboard-response","101","186805","0.0-2.0-7.0-1.0","631a1f357c56acbb68d5dc14","F1","batch6","","1043.1000000238419","stim/yes_25_hor_b1_b.png","f","pattern_response","true","f","pattern_49","1043.1000000238419","true","34","","","","","","","","","","","","","","","","","","",""
"","","","","","html-keyboard-response","102","188121","0.0-2.0-7.0-0.1","631a1f357c56acbb68d5dc14","F1","batch6","","null","<p class=block-text>Trial 41 out of 78</p>","null","pattern_show_trial_num","","","","","","","","","","","","","","","","","","","","","","","","",""
"","","","","","image-keyboard-response","103","191270","0.0-2.0-7.0-1.1","631a1f357c56acbb68d5dc14","F1","batch6","","3143.899999976158","stim/no_48_1_w.png","j","pattern_response","true","j","pattern_28","3143.899999976158","true","35","","","","","","","","","","","","","","","","","","",""
"","","","","","html-keyboard-response","104","192582","0.0-2.0-7.0-0.2","631a1f357c56acbb68d5dc14","F1","batch6","","null","<p class=block-text>Trial 42 out of 78</p>","null","pattern_show_trial_num","","","","","","","","","","","","","","","","","","","","","","","","",""
"","","","","","image-keyboard-response","105","195926","0.0-2.0-7.0-1.2","631a1f357c56acbb68d5dc14","F1","batch6","","3338.899999976158","stim/yes_52_ver_w1.png","f","pattern_response","true","f","pattern_73","3338.899999976158","true","36","","","","","","","","","","","","","","","","","","",""
"","","","","","html-keyboard-response","106","197253","0.0-2.0-7.0-0.3","631a1f357c56acbb68d5dc14","F1","batch6","","null","<p class=block-text>Trial 43 out of 78</p>","null","pattern_show_trial_num","","","","","","","","","","","","","","","","","","","","","","","","",""
"","","","","","image-keyboard-response","107","198781","0.0-2.0-7.0-1.3","631a1f357c56acbb68d5dc14","F1","batch6","","1522.2999999523163","stim/no_29_1_b.png","j","pattern_response","true","j","pattern_12","1522.2999999523163","true","37","","","","","","","","","","","","","","","","","","",""
"","","","","","html-keyboard-response","108","200108","0.0-2.0-7.0-0.4","631a1f357c56acbb68d5dc14","F1","batch6","","null","<p class=block-text>Trial 44 out of 78</p>","null","pattern_show_trial_num","","","","","","","","","","","","","","","","","","","","","","","","",""
"","","","","","image-keyboard-response","109","203071","0.0-2.0-7.0-1.4","631a1f357c56acbb68d5dc14","F1","batch6","","2957.5","stim/no_46_1_b.png","j","pattern_response","true","j","pattern_26","2957.5","true","38","","","","","","","","","","","","","","","","","","",""
"","","","","","html-keyboard-response","110","204387","0.0-2.0-7.0-0.5","631a1f357c56acbb68d5dc14","F1","batch6","","null","<p class=block-text>Trial 45 out of 78</p>","null","pattern_show_trial_num","","","","","","","","","","","","","","","","","","","","","","","","",""
"","","","","","image-keyboard-response","111","205055","0.0-2.0-7.0-1.5","631a1f357c56acbb68d5dc14","F1","batch6","","663.2000000476837","stim/no_13_2_b.png","j","pattern_response","true","j","pattern_02","663.2000000476837","true","39","","","","","","","","","","","","","","","","","","",""
"","","","","","html-keyboard-response","112","206360","0.0-2.0-7.0-0.6","631a1f357c56acbb68d5dc14","F1","batch6","","null","<p class=block-text>Trial 46 out of 78</p>","null","pattern_show_trial_num","","","","","","","","","","","","","","","","","","","","","","","","",""
"","","","","","image-keyboard-response","113","207717","0.0-2.0-7.0-1.6","631a1f357c56acbb68d5dc14","F1","batch6","","1352.7999999523163","stim/no_23_1.png","j","pattern_response","true","j","pattern_08","1352.7999999523163","true","40","","","","","","","","","","","","","","","","","","",""
"","","","","","html-keyboard-response","114","209037","0.0-2.0-7.0-0.7","631a1f357c56acbb68d5dc14","F1","batch6","","null","<p class=block-text>Trial 47 out of 78</p>","null","pattern_show_trial_num","","","","","","","","","","","","","","","","","","","","","","","","",""
"","","","","","image-keyboard-response","115","210927","0.0-2.0-7.0-1.7","631a1f357c56acbb68d5dc14","F1","batch6","","1886.4000000953674","stim/yes_38_hor_b1_b.png","f","pattern_response","true","f","pattern_61","1886.4000000953674","true","41","","","","","","","","","","","","","","","","","","",""
"","","","","","html-keyboard-response","116","212256","0.0-2.0-7.0-0.8","631a1f357c56acbb68d5dc14","F1","batch6","","null","<p class=block-text>Trial 48 out of 78</p>","null","pattern_show_trial_num","","","","","","","","","","","","","","","","","","","","","","","","",""
"","","","","","image-keyboard-response","117","214244","0.0-2.0-7.0-1.8","631a1f357c56acbb68d5dc14","F1","batch6","","1983.3999999761581","stim/no_34_1_b.png","j","pattern_response","true","j","pattern_16","1983.3999999761581","true","42","","","","","","","","","","","","","","","","","","",""
"","","","","","html-keyboard-response","118","215570","0.0-2.0-7.0-0.9","631a1f357c56acbb68d5dc14","F1","batch6","","null","<p class=block-text>Trial 49 out of 78</p>","null","pattern_show_trial_num","","","","","","","","","","","","","","","","","","","","","","","","",""
"","","","","","image-keyboard-response","119","217316","0.0-2.0-7.0-1.9","631a1f357c56acbb68d5dc14","F1","batch6","","1741.8000000715256","stim/no_32_1_w.png","j","pattern_response","true","j","pattern_14","1741.8000000715256","true","43","","","","","","","","","","","","","","","","","","",""
"","","","","","html-keyboard-response","120","218635","0.0-2.0-7.0-0.10","631a1f357c56acbb68d5dc14","F1","batch6","","null","<p class=block-text>Trial 50 out of 78</p>","null","pattern_show_trial_num","","","","","","","","","","","","","","","","","","","","","","","","",""
"","","","","","image-keyboard-response","121","219525","0.0-2.0-7.0-1.10","631a1f357c56acbb68d5dc14","F1","batch6","","886.0999999046326","stim/yes_28_ver_b1.png","f","pattern_response","true","f","pattern_51","886.0999999046326","true","44","","","","","","","","","","","","","","","","","","",""
"","","","","","html-keyboard-response","122","220845","0.0-2.0-7.0-0.11","631a1f357c56acbb68d5dc14","F1","batch6","","null","<p class=block-text>Trial 51 out of 78</p>","null","pattern_show_trial_num","","","","","","","","","","","","","","","","","","","","","","","","",""
"","","","","","image-keyboard-response","123","225391","0.0-2.0-7.0-1.11","631a1f357c56acbb68d5dc14","F1","batch6","","4542.900000095367","stim/no_62_1_w.png","j","pattern_response","true","j","pattern_36","4542.900000095367","true","45","","","","","","","","","","","","","","","","","","",""
"","","","","","html-keyboard-response","124","226713","0.0-2.0-7.0-0.12","631a1f357c56acbb68d5dc14","F1","batch6","","null","<p class=block-text>Trial 52 out of 78</p>","null","pattern_show_trial_num","","","","","","","","","","","","","","","","","","","","","","","","",""
"","","","","","image-keyboard-response","125","227732","0.0-2.0-7.0-1.12","631a1f357c56acbb68d5dc14","F1","batch6","","1013.8999999761581","stim/yes_43_ver_w1_w.png","f","pattern_response","true","f","pattern_65","1013.8999999761581","true","46","","","","","","","","","","","","","","","","","","",""
"","","","","","html-keyboard-response","126","229053","0.0-2.0-7.0-0.13","631a1f357c56acbb68d5dc14","F1","batch6","","null","<p class=block-text>Trial 53 out of 78</p>","null","pattern_show_trial_num","","","","","","","","","","","","","","","","","","","","","","","","",""
"","","","","","image-keyboard-response","127","229686","0.0-2.0-7.0-1.13","631a1f357c56acbb68d5dc14","F1","batch6","","629.6000000238419","stim/yes_14_hor_b1_w.png","f","pattern_response","true","f","pattern_43","629.6000000238419","true","47","","","","","","","","","","","","","","","","","","",""
"","","","","","html-keyboard-response","128","231003","0.0-2.0-7.0-0.14","631a1f357c56acbb68d5dc14","F1","batch6","","null","<p class=block-text>Trial 54 out of 78</p>","null","pattern_show_trial_num","","","","","","","","","","","","","","","","","","","","","","","","",""
"","","","","","image-keyboard-response","129","232318","0.0-2.0-7.0-1.14","631a1f357c56acbb68d5dc14","F1","batch6","","1312.1999999284744","stim/no_20_1_w.png","j","pattern_response","true","j","pattern_06","1312.1999999284744","true","48","","","","","","","","","","","","","","","","","","",""
"","","","","","html-keyboard-response","130","233644","0.0-2.0-7.0-0.15","631a1f357c56acbb68d5dc14","F1","batch6","","null","<p class=block-text>Trial 55 out of 78</p>","null","pattern_show_trial_num","","","","","","","","","","","","","","","","","","","","","","","","",""
"","","","","","image-keyboard-response","131","234959","0.0-2.0-7.0-1.15","631a1f357c56acbb68d5dc14","F1","batch6","","1310.3999999761581","stim/yes_45_hor_b2_b.png","f","pattern_response","true","f","pattern_67","1310.3999999761581","true","49","","","","","","","","","","","","","","","","","","",""
"","","","","","html-keyboard-response","132","236290","0.0-2.0-7.0-0.16","631a1f357c56acbb68d5dc14","F1","batch6","","null","<p class=block-text>Trial 56 out of 78</p>","null","pattern_show_trial_num","","","","","","","","","","","","","","","","","","","","","","","","",""
"","","","","","image-keyboard-response","133","237466","0.0-2.0-7.0-1.16","631a1f357c56acbb68d5dc14","F1","batch6","","1173.1000000238419","stim/yes_40_dia_b1_b.png","f","pattern_response","true","f","pattern_63","1173.1000000238419","true","50","","","","","","","","","","","","","","","","","","",""
"","","","","","html-keyboard-response","134","238783","0.0-2.0-7.0-0.17","631a1f357c56acbb68d5dc14","F1","batch6","","null","<p class=block-text>Trial 57 out of 78</p>","null","pattern_show_trial_num","","","","","","","","","","","","","","","","","","","","","","","","",""
"","","","","","image-keyboard-response","135","240533","0.0-2.0-7.0-1.17","631a1f357c56acbb68d5dc14","F1","batch6","","1746","stim/yes_48_dia_w1_w.png","f","pattern_response","true","f","pattern_69","1746","true","51","","","","","","","","","","","","","","","","","","",""
"","","","","","html-keyboard-response","136","241847","0.0-2.0-7.0-0.18","631a1f357c56acbb68d5dc14","F1","batch6","","null","<p class=block-text>Trial 58 out of 78</p>","null","pattern_show_trial_num","","","","","","","","","","","","","","","","","","","","","","","","",""
"","","","","","image-keyboard-response","137","244508","0.0-2.0-7.0-1.18","631a1f357c56acbb68d5dc14","F1","batch6","","2656.7999999523163","stim/no_36_2_w.png","j","pattern_response","true","j","pattern_18","2656.7999999523163","true","52","","","","","","","","","","","","","","","","","","",""
"","","","","","html-keyboard-response","138","245837","0.0-2.0-7.0-0.19","631a1f357c56acbb68d5dc14","F1","batch6","","null","<p class=block-text>Trial 59 out of 78</p>","null","pattern_show_trial_num","","","","","","","","","","","","","","","","","","","","","","","","",""
"","","","","","image-keyboard-response","139","248264","0.0-2.0-7.0-1.19","631a1f357c56acbb68d5dc14","F1","batch6","","2423.2000000476837","stim/no_42_1_w.png","j","pattern_response","true","j","pattern_22","2423.2000000476837","true","53","","","","","","","","","","","","","","","","","","",""
"","","","","","html-keyboard-response","140","249570","0.0-2.0-7.0-0.20","631a1f357c56acbb68d5dc14","F1","batch6","","null","<p class=block-text>Trial 60 out of 78</p>","null","pattern_show_trial_num","","","","","","","","","","","","","","","","","","","","","","","","",""
"","","","","","image-keyboard-response","141","253129","0.0-2.0-7.0-1.20","631a1f357c56acbb68d5dc14","F1","batch6","","3553.399999976158","stim/no_50_1.png","j","pattern_response","true","j","pattern_30","3553.399999976158","true","54","","","","","","","","","","","","","","","","","","",""
"","","","","","html-keyboard-response","142","254467","0.0-2.0-7.0-0.21","631a1f357c56acbb68d5dc14","F1","batch6","","null","<p class=block-text>Trial 61 out of 78</p>","null","pattern_show_trial_num","","","","","","","","","","","","","","","","","","","","","","","","",""
"","","","","","image-keyboard-response","143","258038","0.0-2.0-7.0-1.21","631a1f357c56acbb68d5dc14","F1","batch6","","3566.5","stim/yes_50_dia_w1.png","j","pattern_response","false","f","pattern_71","3566.5","false","54","","","","","","","","","","","","","","","","","","",""
"","","","","","html-keyboard-response","144","259353","0.0-2.0-7.0-0.22","631a1f357c56acbb68d5dc14","F1","batch6","","null","<p class=block-text>Trial 62 out of 78</p>","null","pattern_show_trial_num","","","","","","","","","","","","","","","","","","","","","","","","",""
"","","","","","image-keyboard-response","145","260586","0.0-2.0-7.0-1.22","631a1f357c56acbb68d5dc14","F1","batch6","","1227.6999999284744","stim/yes_67_hor_b1.png","f","pattern_response","true","f","pattern_79","1227.6999999284744","true","55","","","","","","","","","","","","","","","","","","",""
"","","","","","html-keyboard-response","146","261896","0.0-2.0-7.0-0.23","631a1f357c56acbb68d5dc14","F1","batch6","","null","<p class=block-text>Trial 63 out of 78</p>","null","pattern_show_trial_num","","","","","","","","","","","","","","","","","","","","","","","","",""
"","","","","","image-keyboard-response","147","265613","0.0-2.0-7.0-1.23","631a1f357c56acbb68d5dc14","F1","batch6","","3712.600000023842","stim/no_44_1.png","j","pattern_response","true","j","pattern_24","3712.600000023842","true","56","","","","","","","","","","","","","","","","","","",""
"","","","","","html-keyboard-response","148","266931","0.0-2.0-7.0-0.24","631a1f357c56acbb68d5dc14","F1","batch6","","null","<p class=block-text>Trial 64 out of 78</p>","null","pattern_show_trial_num","","","","","","","","","","","","","","","","","","","","","","","","",""
"","","","","","image-keyboard-response","149","269378","0.0-2.0-7.0-1.24","631a1f357c56acbb68d5dc14","F1","batch6","","2442","stim/no_38_1_b.png","j","pattern_response","true","j","pattern_20","2442","true","57","","","","","","","","","","","","","","","","","","",""
"","","","","","html-keyboard-response","150","270689","0.0-2.0-7.0-0.25","631a1f357c56acbb68d5dc14","F1","batch6","","null","<p class=block-text>Trial 65 out of 78</p>","null","pattern_show_trial_num","","","","","","","","","","","","","","","","","","","","","","","","",""
"","","","","","image-keyboard-response","151","271656","0.0-2.0-7.0-1.25","631a1f357c56acbb68d5dc14","F1","batch6","","962.1000000238419","stim/yes_17_dia_w1.png","f","pattern_response","true","f","pattern_45","962.1000000238419","true","58","","","","","","","","","","","","","","","","","","",""
"","","","","","html-keyboard-response","152","272964","0.0-2.0-7.0-0.26","631a1f357c56acbb68d5dc14","F1","batch6","","null","<p class=block-text>Trial 66 out of 78</p>","null","pattern_show_trial_num","","","","","","","","","","","","","","","","","","","","","","","","",""
"","","","","","image-keyboard-response","153","274547","0.0-2.0-7.0-1.26","631a1f357c56acbb68d5dc14","F1","batch6","","1579.6000000238419","stim/yes_35_dia_b1.png","f","pattern_response","true","f","pattern_57","1579.6000000238419","true","59","","","","","","","","","","","","","","","","","","",""
"","","","","","html-keyboard-response","154","275862","0.0-2.0-7.0-0.27","631a1f357c56acbb68d5dc14","F1","batch6","","null","<p class=block-text>Trial 67 out of 78</p>","null","pattern_show_trial_num","","","","","","","","","","","","","","","","","","","","","","","","",""
"","","","","","image-keyboard-response","155","277365","0.0-2.0-7.0-1.27","631a1f357c56acbb68d5dc14","F1","batch6","","1498.2000000476837","stim/no_26_1_w.png","j","pattern_response","true","j","pattern_10","1498.2000000476837","true","60","","","","","","","","","","","","","","","","","","",""
"","","","","","html-keyboard-response","156","278690","0.0-2.0-7.0-0.28","631a1f357c56acbb68d5dc14","F1","batch6","","null","<p class=block-text>Trial 68 out of 78</p>","null","pattern_show_trial_num","","","","","","","","","","","","","","","","","","","","","","","","",""
"","","","","","image-keyboard-response","157","282637","0.0-2.0-7.0-1.28","631a1f357c56acbb68d5dc14","F1","batch6","","3944.100000023842","stim/no_55_1_w.png","j","pattern_response","true","j","pattern_34","3944.100000023842","true","61","","","","","","","","","","","","","","","","","","",""
"","","","","","html-keyboard-response","158","283952","0.0-2.0-7.0-0.29","631a1f357c56acbb68d5dc14","F1","batch6","","null","<p class=block-text>Trial 69 out of 78</p>","null","pattern_show_trial_num","","","","","","","","","","","","","","","","","","","","","","","","",""
"","","","","","image-keyboard-response","159","284589","0.0-2.0-7.0-1.29","631a1f357c56acbb68d5dc14","F1","batch6","","632.7000000476837","stim/yes_55_hor_w1_w.png","f","pattern_response","true","f","pattern_75","632.7000000476837","true","62","","","","","","","","","","","","","","","","","","",""
"","","","","","html-keyboard-response","160","285916","0.0-2.0-7.0-0.30","631a1f357c56acbb68d5dc14","F1","batch6","","null","<p class=block-text>Trial 70 out of 78</p>","null","pattern_show_trial_num","","","","","","","","","","","","","","","","","","","","","","","","",""
"","","","","","image-keyboard-response","161","287526","0.0-2.0-7.0-1.30","631a1f357c56acbb68d5dc14","F1","batch6","","1606.1000000238419","stim/yes_60_ver_b1_b.png","f","pattern_response","true","f","pattern_77","1606.1000000238419","true","63","","","","","","","","","","","","","","","","","","",""
"","","","","","html-keyboard-response","162","288847","0.0-2.0-7.0-0.31","631a1f357c56acbb68d5dc14","F1","batch6","","null","<p class=block-text>Trial 71 out of 78</p>","null","pattern_show_trial_num","","","","","","","","","","","","","","","","","","","","","","","","",""
"","","","","","image-keyboard-response","163","290055","0.0-2.0-7.0-1.31","631a1f357c56acbb68d5dc14","F1","batch6","","1204.5","stim/yes_29_ver_w1.png","f","pattern_response","true","f","pattern_53","1204.5","true","64","","","","","","","","","","","","","","","","","","",""
"","","","","","html-keyboard-response","164","291378","0.0-2.0-7.0-0.32","631a1f357c56acbb68d5dc14","F1","batch6","","null","<p class=block-text>Trial 72 out of 78</p>","null","pattern_show_trial_num","","","","","","","","","","","","","","","","","","","","","","","","",""
"","","","","","image-keyboard-response","165","292004","0.0-2.0-7.0-1.32","631a1f357c56acbb68d5dc14","F1","batch6","","622.0999999046326","stim/yes_22_ver_w1.png","f","pattern_response","true","f","pattern_47","622.0999999046326","true","65","","","","","","","","","","","","","","","","","","",""
"","","","","","html-keyboard-response","166","293316","0.0-2.0-7.0-0.33","631a1f357c56acbb68d5dc14","F1","batch6","","null","<p class=block-text>Trial 73 out of 78</p>","null","pattern_show_trial_num","","","","","","","","","","","","","","","","","","","","","","","","",""
"","","","","","image-keyboard-response","167","299810","0.0-2.0-7.0-1.33","631a1f357c56acbb68d5dc14","F1","batch6","","6490.600000023842","stim/no_70_2.png","j","pattern_response","true","j","pattern_40","6490.600000023842","true","66","","","","","","","","","","","","","","","","","","",""
"","","","","","html-keyboard-response","168","301131","0.0-2.0-7.0-0.34","631a1f357c56acbb68d5dc14","F1","batch6","","null","<p class=block-text>Trial 74 out of 78</p>","null","pattern_show_trial_num","","","","","","","","","","","","","","","","","","","","","","","","",""
"","","","","","image-keyboard-response","169","302215","0.0-2.0-7.0-1.34","631a1f357c56acbb68d5dc14","F1","batch6","","1078.8999999761581","stim/yes_31_hor_b1.png","f","pattern_response","true","f","pattern_55","1078.8999999761581","true","67","","","","","","","","","","","","","","","","","","",""
"","","","","","html-keyboard-response","170","303533","0.0-2.0-7.0-0.35","631a1f357c56acbb68d5dc14","F1","batch6","","null","<p class=block-text>Trial 75 out of 78</p>","null","pattern_show_trial_num","","","","","","","","","","","","","","","","","","","","","","","","",""
"","","","","","image-keyboard-response","171","309548","0.0-2.0-7.0-1.35","631a1f357c56acbb68d5dc14","F1","batch6","","6011.100000023842","stim/no_65_1_b.png","j","pattern_response","true","j","pattern_38","6011.100000023842","true","68","","","","","","","","","","","","","","","","","","",""
"","","","","","html-keyboard-response","172","310876","0.0-2.0-7.0-0.36","631a1f357c56acbb68d5dc14","F1","batch6","","null","<p class=block-text>Trial 76 out of 78</p>","null","pattern_show_trial_num","","","","","","","","","","","","","","","","","","","","","","","","",""
"","","","","","image-keyboard-response","173","313350","0.0-2.0-7.0-1.36","631a1f357c56acbb68d5dc14","F1","batch6","","2468.9000000953674","stim/yes_37_dia_w1.png","j","pattern_response","false","f","pattern_59","2468.9000000953674","false","68","","","","","","","","","","","","","","","","","","",""
"","","","","","html-keyboard-response","174","314666","0.0-2.0-7.0-0.37","631a1f357c56acbb68d5dc14","F1","batch6","","null","<p class=block-text>Trial 77 out of 78</p>","null","pattern_show_trial_num","","","","","","","","","","","","","","","","","","","","","","","","",""
"","","","","","image-keyboard-response","175","319345","0.0-2.0-7.0-1.37","631a1f357c56acbb68d5dc14","F1","batch6","","4674.5","stim/no_52_1.png","j","pattern_response","true","j","pattern_32","4674.5","true","69","","","","","","","","","","","","","","","","","","",""
"","","","","","html-keyboard-response","176","320670","0.0-2.0-7.0-0.38","631a1f357c56acbb68d5dc14","F1","batch6","","null","<p class=block-text>Trial 78 out of 78</p>","null","pattern_show_trial_num","","","","","","","","","","","","","","","","","","","","","","","","",""
"","","","","","image-keyboard-response","177","321766","0.0-2.0-7.0-1.38","631a1f357c56acbb68d5dc14","F1","batch6","","1090.6000000238419","stim/no_17_1_w.png","j","pattern_response","true","j","pattern_04","1090.6000000238419","true","70","","","","","","","","","","","","","","","","","","",""
"","","","","","html-button-response","178","326368","0.0-2.0-8.0","631a1f357c56acbb68d5dc14","F1","batch6","","4095.100000023842","<p class = block-text>This concludes the 4-in-a-row detection game.Thank you for your responses!<br>
            You responded correctly on 90% of the trials.<br>
            When you are ready, press ""Continue"" button to continue </p>","0","","","","","","","","","","","","","","","","","","","","","","","","","",""
"true","","","","","fullscreen","179","328954","0.0-3.0-0.0","631a1f357c56acbb68d5dc14","F1","batch6","","","","","","","","","","","","","","","","","","","","","","","","","","","","","",""
"","","","","","instructions","180","368486","0.0-3.0-1.0-0.0-0.0","631a1f357c56acbb68d5dc14","F1","batch6","[{""page_index"":0,""viewing_time"":7882},{""page_index"":1,""viewing_time"":3552.7000000476837},{""page_index"":2,""viewing_time"":2463.399999976158},{""page_index"":3,""viewing_time"":7699.899999976158},{""page_index"":4,""viewing_time"":5235.700000047684},{""page_index"":5,""viewing_time"":9893.099999904633},{""page_index"":6,""viewing_time"":2802.100000023842}]","39529.799999952316","","","tol-instructions","","","","","","","","","","","","","","","","","","","","","","","","",""
"","","","","","html-button-response","181","369697","0.0-3.0-1.0-1.0-0.0","631a1f357c56acbb68d5dc14","F1","batch6","","1206.3999999761581","<p class=block-text> Let's answer a few questions <br>","0","tol_enter_quiz","","","","","","","","","","","","","","","","","","","","","","","","",""
"","","","","","html-button-response","182","372796","0.0-3.0-1.0-1.0-1.0","631a1f357c56acbb68d5dc14","F1","batch6","","3095.7999999523163","<p class = block-text>True or False: You can only move the ball on top of a peg. <br></p>","0","tol_quiz","true","","","","","","","","","","","","","","","","","","","","","","","",""
"","","","","","html-button-response","183","373984","0.0-3.0-1.0-1.0-2.0","631a1f357c56acbb68d5dc14","F1","batch6","","1184.7999999523163","<p class = block-text>Correct! You can only move the ball on top of a peg.</p>","0","tol_quiz_feedback","","","","","","","","","","","","","","","","","","","","","","","","",""
"","","","","","html-button-response","184","376946","0.0-3.0-1.0-1.0-3.0","631a1f357c56acbb68d5dc14","F1","batch6","","2959.4000000953674","<p class = block-text>True or False: You should try to match your board with the target board with fewest moves possible. <br></p>","0","tol_quiz","true","","","","","","","","","","","","","","","","","","","","","","","",""
"","","","","","html-button-response","185","377940","0.0-3.0-1.0-1.0-4.0","631a1f357c56acbb68d5dc14","F1","batch6","","990.3000000715256","<p class = block-text>Correct! </p>","0","tol_quiz_feedback","","","","","","","","","","","","","","","","","","","","","","","","",""
"","","","","","html-button-response","186","379636","0.0-3.0-2.0","631a1f357c56acbb68d5dc14","F1","batch6","","1691.6000000238419","<p class=block-text> Now that you've understood the game, let's practice a few easier examples before we start!<br> <br>","0","","","","","","","","","","","","","","","","","","","","","","","","","",""
"","","","","","single-stim-button","187","382016","0.0-3.0-3.0-0.0","631a1f357c56acbb68d5dc14","F1","batch6","","2372","","","tol_practice","","","","","","","","","tol_peg_2","2372","2372","0","[[1,2,0],[0,0],[0]]","1","[[1,2,0],[0,0],[3]]","practice","2372","","","","","","","",""
"","","","","","single-stim-button","188","383587","0.0-3.0-3.0-1.0","631a1f357c56acbb68d5dc14","F1","batch6","","1567","","","tol_practice","","","","","","","","","tol_peg_3","1567","1567","0","[[1,2,0],[0,0],[3]]","1","[[1,2,0],[0,0],[3]]","practice","1567","","","","","","","",""
"","","","","","poldrack-single-stim","189","384597","0.0-3.0-4.0","631a1f357c56acbb68d5dc14","F1","batch6","","-1","","","tol_feedback","true","","","","","","","","","1000","1000","500","","","","","","-1","none","true","","0","","",""
"","","","","","single-stim-button","190","388539","0.0-3.0-5.0-0.0","631a1f357c56acbb68d5dc14","F1","batch6","","3939","","","tol_practice","","","","","","","","","tol_peg_1","3939","3939","0","[[1,0,0],[3,0],[0]]","2","[[0,0,0],[3,1],[2]]","practice","3939","","","","","","","",""
"","","","","","single-stim-button","191","389977","0.0-3.0-5.0-1.0","631a1f357c56acbb68d5dc14","F1","batch6","","1433","","","tol_practice","","","","","","","","","tol_peg_3","1433","1433","0","[[1,0,0],[3,0],[2]]","2","[[0,0,0],[3,1],[2]]","practice","1433","","","","","","","",""
"","","","","","single-stim-button","192","391057","0.0-3.0-5.1-0.1","631a1f357c56acbb68d5dc14","F1","batch6","","1076","","","tol_practice","","","","","","","","","tol_peg_1","1076","1076","0","[[0,0,0],[3,0],[2]]","3","[[0,0,0],[3,1],[2]]","practice","1076","","","","","","","",""
"","","","","","single-stim-button","193","392202","0.0-3.0-5.1-1.1","631a1f357c56acbb68d5dc14","F1","batch6","","1142","","","tol_practice","","","","","","","","","tol_peg_2","1142","1142","0","[[0,0,0],[3,1],[2]]","3","[[0,0,0],[3,1],[2]]","practice","1142","","","","","","","",""
"","","","","","poldrack-single-stim","194","393215","0.0-3.0-6.0","631a1f357c56acbb68d5dc14","F1","batch6","","-1","","","tol_feedback","true","","","","","","","","","1000","1000","500","","","","","","-1","none","true","","0","","",""
"","","","","","single-stim-button","195","395833","0.0-3.0-7.0-0.0","631a1f357c56acbb68d5dc14","F1","batch6","","2615","","","tol_practice","","","","","","","","","tol_peg_2","2615","2615","0","[[1,2,0],[0,0],[0]]","4","[[1,0,0],[2,0],[3]]","practice","2615","","","","","","","",""
"","","","","","single-stim-button","196","396935","0.0-3.0-7.0-1.0","631a1f357c56acbb68d5dc14","F1","batch6","","1098","","","tol_practice","","","","","","","","","tol_peg_3","1098","1098","0","[[1,2,0],[0,0],[3]]","4","[[1,0,0],[2,0],[3]]","practice","1098","","","","","","","",""
"","","","","","single-stim-button","197","397949","0.0-3.0-7.1-0.1","631a1f357c56acbb68d5dc14","F1","batch6","","1012","","","tol_practice","","","","","","","","","tol_peg_1","1012","1012","0","[[1,0,0],[0,0],[3]]","5","[[1,0,0],[2,0],[3]]","practice","1012","","","","","","","",""
"","","","","","single-stim-button","198","398998","0.0-3.0-7.1-1.1","631a1f357c56acbb68d5dc14","F1","batch6","","1045","","","tol_practice","","","","","","","","","tol_peg_2","1045","1045","0","[[1,0,0],[2,0],[3]]","5","[[1,0,0],[2,0],[3]]","practice","1045","","","","","","","",""
"","","","","","poldrack-single-stim","199","400004","0.0-3.0-8.0","631a1f357c56acbb68d5dc14","F1","batch6","","-1","","","tol_feedback","true","","","","","","","","","1000","1000","500","","","","","","-1","none","true","","0","","",""
"","","","","","html-button-response","200","402255","0.0-3.0-9.0","631a1f357c56acbb68d5dc14","F1","batch6","","2248","<div class = centerbox><p class = center-block-text>Great job! You are done with practice trials<br>You are about to start official trials.<br> <br> Problem <strong>1</strong> out of 25 problems</p></div>","0","tol_instruction","","","","","","","","","","","","","","","","","","","","","","","","",""
"","","","","","single-stim-button","201","406159","0.0-3.0-10.0-0.0","631a1f357c56acbb68d5dc14","F1","batch6","","2890","","","tol_tohand","","","","","","","","","tol_peg_2","2890","2890","0","[[1,2,0],[0,0],[0]]","1","[[1,3,0],[2,0],[0]]","0","0","","","","","","3","",""
"","","","","","single-stim-button","202","412457","0.0-3.0-10.0-1.0","631a1f357c56acbb68d5dc14","F1","batch6","","6293","","","tol_toboard","","","","","","","","","tol_peg_3","6293","6293","0","[[1,2,0],[0,0],[3]]","1","[[1,3,0],[2,0],[0]]","0","0","","","","","","3","",""
"","","","","","single-stim-button","203","413547","0.0-3.0-10.1-0.1","631a1f357c56acbb68d5dc14","F1","batch6","","1084","","","tol_tohand","","","","","","","","","tol_peg_1","1084","1084","0","[[1,0,0],[0,0],[3]]","2","[[1,3,0],[2,0],[0]]","0","0","","","","","","3","",""
"","","","","","single-stim-button","204","416151","0.0-3.0-10.1-1.1","631a1f357c56acbb68d5dc14","F1","batch6","","2601","","","tol_toboard","","","","","","","","","tol_peg_2","2601","2601","0","[[1,0,0],[2,0],[3]]","2","[[1,3,0],[2,0],[0]]","0","0","","","","","","3","",""
"","","","","","single-stim-button","205","416919","0.0-3.0-10.2-0.2","631a1f357c56acbb68d5dc14","F1","batch6","","763","","","tol_tohand","","","","","","","","","tol_peg_3","763","763","0","[[1,0,0],[2,0],[0]]","3","[[1,3,0],[2,0],[0]]","0","0","","","","","","3","",""
"","","","","","single-stim-button","206","418141","0.0-3.0-10.2-1.2","631a1f357c56acbb68d5dc14","F1","batch6","","1219","","","tol_toboard","","","","","","","","","tol_peg_1","1219","1219","0","[[1,3,0],[2,0],[0]]","3","[[1,3,0],[2,0],[0]]","0","0","","","","","","3","",""
"","","","","","poldrack-single-stim","207","419158","0.0-3.0-11.0","631a1f357c56acbb68d5dc14","F1","batch6","","-1","","","tol_feedback","true","","","","","","","","","1000","1000","500","","","","","","-1","none","true","2890","4737","","",""
"","","","","","html-button-response","208","420470","0.0-3.0-12.0","631a1f357c56acbb68d5dc14","F1","batch6","","1309.3000000715256","<div class = centerbox><p class = center-block-text>problem <strong>2</strong> out of 25 problems</p></div>","0","tol_trial_num","","","","","","","","","","","","","","","","","","","","","","","","",""
"","","","","","single-stim-button","209","433445","0.0-3.0-13.0-0.0","631a1f357c56acbb68d5dc14","F1","batch6","","12972","","","tol_tohand","","","","","","","","","tol_peg_2","12972","12972","0","[[1,2,0],[0,0],[0]]","1","[[2,1,3],[0,0],[0]]","1","0","","","","","","5","",""
"","","","","","single-stim-button","210","434569","0.0-3.0-13.0-1.0","631a1f357c56acbb68d5dc14","F1","batch6","","1119","","","tol_toboard","","","","","","","","","tol_peg_3","1119","1119","0","[[1,2,0],[0,0],[3]]","1","[[2,1,3],[0,0],[0]]","1","0","","","","","","5","",""
"","","","","","single-stim-button","211","446011","0.0-3.0-13.1-0.1","631a1f357c56acbb68d5dc14","F1","batch6","","11439","","","tol_tohand","","","","","","","","","tol_peg_3","11439","11439","0","[[1,2,0],[0,0],[0]]","2","[[2,1,3],[0,0],[0]]","1","0","","","","","","5","",""
"","","","","","single-stim-button","212","447523","0.0-3.0-13.1-1.1","631a1f357c56acbb68d5dc14","F1","batch6","","1510","","","tol_toboard","","","","","","","","","tol_peg_2","1510","1510","0","[[1,2,0],[3,0],[0]]","2","[[2,1,3],[0,0],[0]]","1","0","","","","","","5","",""
"","","","","","single-stim-button","213","448377","0.0-3.0-13.2-0.2","631a1f357c56acbb68d5dc14","F1","batch6","","850","","","tol_tohand","","","","","","","","","tol_peg_1","850","850","0","[[1,0,0],[3,0],[0]]","3","[[2,1,3],[0,0],[0]]","1","0","","","","","","5","",""
"","","","","","single-stim-button","214","449554","0.0-3.0-13.2-1.2","631a1f357c56acbb68d5dc14","F1","batch6","","1173","","","tol_toboard","","","","","","","","","tol_peg_2","1173","1173","0","[[1,0,0],[3,2],[0]]","3","[[2,1,3],[0,0],[0]]","1","0","","","","","","5","",""
"","","","","","single-stim-button","215","450344","0.0-3.0-13.3-0.3","631a1f357c56acbb68d5dc14","F1","batch6","","788","","","tol_tohand","","","","","","","","","tol_peg_1","788","788","0","[[0,0,0],[3,2],[0]]","4","[[2,1,3],[0,0],[0]]","1","0","","","","","","5","",""
"","","","","","single-stim-button","216","451672","0.0-3.0-13.3-1.3","631a1f357c56acbb68d5dc14","F1","batch6","","1325","","","tol_toboard","","","","","","","","","tol_peg_3","1325","1325","0","[[0,0,0],[3,2],[1]]","4","[[2,1,3],[0,0],[0]]","1","0","","","","","","5","",""
"","","","","","single-stim-button","217","452494","0.0-3.0-13.4-0.4","631a1f357c56acbb68d5dc14","F1","batch6","","819","","","tol_tohand","","","","","","","","","tol_peg_2","819","819","0","[[0,0,0],[3,0],[1]]","5","[[2,1,3],[0,0],[0]]","1","0","","","","","","5","",""
"","","","","","single-stim-button","218","453725","0.0-3.0-13.4-1.4","631a1f357c56acbb68d5dc14","F1","batch6","","1227","","","tol_toboard","","","","","","","","","tol_peg_1","1227","1227","0","[[2,0,0],[3,0],[1]]","5","[[2,1,3],[0,0],[0]]","1","0","","","","","","5","",""
"","","","","","single-stim-button","219","454719","0.0-3.0-13.5-0.5","631a1f357c56acbb68d5dc14","F1","batch6","","991","","","tol_tohand","","","","","","","","","tol_peg_3","991","991","0","[[2,0,0],[3,0],[0]]","6","[[2,1,3],[0,0],[0]]","1","0","","","","","","5","",""
"","","","","","single-stim-button","220","456037","0.0-3.0-13.5-1.5","631a1f357c56acbb68d5dc14","F1","batch6","","1315","","","tol_toboard","","","","","","","","","tol_peg_1","1315","1315","0","[[2,1,0],[3,0],[0]]","6","[[2,1,3],[0,0],[0]]","1","0","","","","","","5","",""
"","","","","","single-stim-button","221","456902","0.0-3.0-13.6-0.6","631a1f357c56acbb68d5dc14","F1","batch6","","861","","","tol_tohand","","","","","","","","","tol_peg_2","861","861","0","[[2,1,0],[0,0],[0]]","7","[[2,1,3],[0,0],[0]]","1","0","","","","","","5","",""
"","","","","","single-stim-button","222","458025","0.0-3.0-13.6-1.6","631a1f357c56acbb68d5dc14","F1","batch6","","1121","","","tol_toboard","","","","","","","","","tol_peg_1","1121","1121","0","[[2,1,3],[0,0],[0]]","7","[[2,1,3],[0,0],[0]]","1","0","","","","","","5","",""
"","","","","","poldrack-single-stim","223","459039","0.0-3.0-14.0","631a1f357c56acbb68d5dc14","F1","batch6","","-1","","","tol_feedback","true","","","","","","","","","1000","1000","500","","","","","","-1","none","true","12972","28720","","",""
"","","","","","html-button-response","224","460229","0.0-3.0-15.0","631a1f357c56acbb68d5dc14","F1","batch6","","1188.3000000715256","<div class = centerbox><p class = center-block-text>problem <strong>3</strong> out of 25 problems</p></div>","0","tol_trial_num","","","","","","","","","","","","","","","","","","","","","","","","",""
"","","","","","single-stim-button","225","465415","0.0-3.0-16.0-0.0","631a1f357c56acbb68d5dc14","F1","batch6","","5183","","","tol_tohand","","","","","","","","","tol_peg_1","5183","5183","0","[[2,0,0],[0,0],[1]]","1","[[1,2,0],[3,0],[0]]","2","0","","","","","","4","",""
"","","","","","single-stim-button","226","466582","0.0-3.0-16.0-1.0","631a1f357c56acbb68d5dc14","F1","batch6","","1164","","","tol_toboard","","","","","","","","","tol_peg_2","1164","1164","0","[[2,0,0],[3,0],[1]]","1","[[1,2,0],[3,0],[0]]","2","0","","","","","","4","",""
"","","","","","single-stim-button","227","469512","0.0-3.0-16.1-0.1","631a1f357c56acbb68d5dc14","F1","batch6","","2928","","","tol_tohand","","","","","","","","","tol_peg_1","2928","2928","0","[[0,0,0],[3,0],[1]]","2","[[1,2,0],[3,0],[0]]","2","0","","","","","","4","",""
"","","","","","single-stim-button","228","470547","0.0-3.0-16.1-1.1","631a1f357c56acbb68d5dc14","F1","batch6","","1033","","","tol_toboard","","","","","","","","","tol_peg_2","1033","1033","0","[[0,0,0],[3,2],[1]]","2","[[1,2,0],[3,0],[0]]","2","0","","","","","","4","",""
"","","","","","single-stim-button","229","471281","0.0-3.0-16.2-0.2","631a1f357c56acbb68d5dc14","F1","batch6","","731","","","tol_tohand","","","","","","","","","tol_peg_3","731","731","0","[[0,0,0],[3,2],[0]]","3","[[1,2,0],[3,0],[0]]","2","0","","","","","","4","",""
"","","","","","single-stim-button","230","472319","0.0-3.0-16.2-1.2","631a1f357c56acbb68d5dc14","F1","batch6","","1036","","","tol_toboard","","","","","","","","","tol_peg_1","1036","1036","0","[[1,0,0],[3,2],[0]]","3","[[1,2,0],[3,0],[0]]","2","0","","","","","","4","",""
"","","","","","single-stim-button","231","473183","0.0-3.0-16.3-0.3","631a1f357c56acbb68d5dc14","F1","batch6","","861","","","tol_tohand","","","","","","","","","tol_peg_2","861","861","0","[[1,0,0],[3,0],[0]]","4","[[1,2,0],[3,0],[0]]","2","0","","","","","","4","",""
"","","","","","single-stim-button","232","474112","0.0-3.0-16.3-1.3","631a1f357c56acbb68d5dc14","F1","batch6","","926","","","tol_toboard","","","","","","","","","tol_peg_1","926","926","0","[[1,2,0],[3,0],[0]]","4","[[1,2,0],[3,0],[0]]","2","0","","","","","","4","",""
"","","","","","poldrack-single-stim","233","475123","0.0-3.0-17.0","631a1f357c56acbb68d5dc14","F1","batch6","","-1","","","tol_feedback","true","","","","","","","","","1000","1000","500","","","","","","-1","none","true","5183","9703","","",""
"","","","","","html-button-response","234","476405","0.0-3.0-18.0","631a1f357c56acbb68d5dc14","F1","batch6","","1279.0999999046326","<div class = centerbox><p class = center-block-text>problem <strong>4</strong> out of 25 problems</p></div>","0","tol_trial_num","","","","","","","","","","","","","","","","","","","","","","","","",""
"","","","","","single-stim-button","235","481226","0.0-3.0-19.0-0.0","631a1f357c56acbb68d5dc14","F1","batch6","","4818","","","tol_tohand","","","","","","","","","tol_peg_2","4818","4818","0","[[3,0,0],[2,0],[0]]","1","[[3,0,0],[1,0],[2]]","3","0","","","","","","3","",""
"","","","","","single-stim-button","236","483215","0.0-3.0-19.0-1.0","631a1f357c56acbb68d5dc14","F1","batch6","","1985","","","tol_toboard","","","","","","","","","tol_peg_1","1985","1985","0","[[3,1,0],[2,0],[0]]","1","[[3,0,0],[1,0],[2]]","3","0","","","","","","3","",""
"","","","","","single-stim-button","237","484014","0.0-3.0-19.1-0.1","631a1f357c56acbb68d5dc14","F1","batch6","","797","","","tol_tohand","","","","","","","","","tol_peg_2","797","797","0","[[3,1,0],[0,0],[0]]","2","[[3,0,0],[1,0],[2]]","3","0","","","","","","3","",""
"","","","","","single-stim-button","238","485148","0.0-3.0-19.1-1.1","631a1f357c56acbb68d5dc14","F1","batch6","","1132","","","tol_toboard","","","","","","","","","tol_peg_3","1132","1132","0","[[3,1,0],[0,0],[2]]","2","[[3,0,0],[1,0],[2]]","3","0","","","","","","3","",""
"","","","","","single-stim-button","239","486002","0.0-3.0-19.2-0.2","631a1f357c56acbb68d5dc14","F1","batch6","","852","","","tol_tohand","","","","","","","","","tol_peg_1","852","852","0","[[3,0,0],[0,0],[2]]","3","[[3,0,0],[1,0],[2]]","3","0","","","","","","3","",""
"","","","","","single-stim-button","240","487071","0.0-3.0-19.2-1.2","631a1f357c56acbb68d5dc14","F1","batch6","","1065","","","tol_toboard","","","","","","","","","tol_peg_2","1065","1065","0","[[3,0,0],[1,0],[2]]","3","[[3,0,0],[1,0],[2]]","3","0","","","","","","3","",""
"","","","","","poldrack-single-stim","241","488089","0.0-3.0-20.0","631a1f357c56acbb68d5dc14","F1","batch6","","-1","","","tol_feedback","true","","","","","","","","","1000","1000","500","","","","","","-1","none","true","4818","6467","","",""
"","","","","","html-button-response","242","489211","0.0-3.0-21.0","631a1f357c56acbb68d5dc14","F1","batch6","","1118.7000000476837","<div class = centerbox><p class = center-block-text>problem <strong>5</strong> out of 25 problems</p></div>","0","tol_trial_num","","","","","","","","","","","","","","","","","","","","","","","","",""
"","","","","","single-stim-button","243","533810","0.0-3.0-22.0-0.0","631a1f357c56acbb68d5dc14","F1","batch6","","44595","","","tol_tohand","","","","","","","","","tol_peg_3","44595","44595","0","[[1,0,0],[2,0],[0]]","1","[[0,0,0],[1,2],[3]]","4","0","","","","","","7","",""
"","","","","","single-stim-button","244","539114","0.0-3.0-22.0-1.0","631a1f357c56acbb68d5dc14","F1","batch6","","5301","","","tol_toboard","","","","","","","","","tol_peg_1","5301","5301","0","[[1,3,0],[2,0],[0]]","1","[[0,0,0],[1,2],[3]]","4","0","","","","","","7","",""
"","","","","","single-stim-button","245","540540","0.0-3.0-22.1-0.1","631a1f357c56acbb68d5dc14","F1","batch6","","1423","","","tol_tohand","","","","","","","","","tol_peg_2","1423","1423","0","[[1,3,0],[0,0],[0]]","2","[[0,0,0],[1,2],[3]]","4","0","","","","","","7","",""
"","","","","","single-stim-button","246","554759","0.0-3.0-22.1-1.1","631a1f357c56acbb68d5dc14","F1","batch6","","14215","","","tol_toboard","","","","","","","","","tol_peg_2","14215","14215","0","[[1,3,0],[2,0],[0]]","2","[[0,0,0],[1,2],[3]]","4","0","","","","","","7","",""
"","","","","","single-stim-button","247","555632","0.0-3.0-22.2-0.2","631a1f357c56acbb68d5dc14","F1","batch6","","869","","","tol_tohand","","","","","","","","","tol_peg_1","869","869","0","[[1,0,0],[2,0],[0]]","3","[[0,0,0],[1,2],[3]]","4","0","","","","","","7","",""
"","","","","","single-stim-button","248","556572","0.0-3.0-22.2-1.2","631a1f357c56acbb68d5dc14","F1","batch6","","938","","","tol_toboard","","","","","","","","","tol_peg_2","938","938","0","[[1,0,0],[2,3],[0]]","3","[[0,0,0],[1,2],[3]]","4","0","","","","","","7","",""
"","","","","","single-stim-button","249","557512","0.0-3.0-22.3-0.3","631a1f357c56acbb68d5dc14","F1","batch6","","937","","","tol_tohand","","","","","","","","","tol_peg_1","937","937","0","[[0,0,0],[2,3],[0]]","4","[[0,0,0],[1,2],[3]]","4","0","","","","","","7","",""
"","","","","","single-stim-button","250","558624","0.0-3.0-22.3-1.3","631a1f357c56acbb68d5dc14","F1","batch6","","1110","","","tol_toboard","","","","","","","","","tol_peg_3","1110","1110","0","[[0,0,0],[2,3],[1]]","4","[[0,0,0],[1,2],[3]]","4","0","","","","","","7","",""
"","","","","","single-stim-button","251","567769","0.0-3.0-22.4-0.4","631a1f357c56acbb68d5dc14","F1","batch6","","9141","","","tol_tohand","","","","","","","","","tol_peg_2","9141","9141","0","[[0,0,0],[2,0],[1]]","5","[[0,0,0],[1,2],[3]]","4","0","","","","","","7","",""
"","","","","","single-stim-button","252","568871","0.0-3.0-22.4-1.4","631a1f357c56acbb68d5dc14","F1","batch6","","1098","","","tol_toboard","","","","","","","","","tol_peg_1","1098","1098","0","[[3,0,0],[2,0],[1]]","5","[[0,0,0],[1,2],[3]]","4","0","","","","","","7","",""
"","","","","","single-stim-button","253","569800","0.0-3.0-22.5-0.5","631a1f357c56acbb68d5dc14","F1","batch6","","926","","","tol_tohand","","","","","","","","","tol_peg_2","926","926","0","[[3,0,0],[0,0],[1]]","6","[[0,0,0],[1,2],[3]]","4","0","","","","","","7","",""
"","","","","","single-stim-button","254","570772","0.0-3.0-22.5-1.5","631a1f357c56acbb68d5dc14","F1","batch6","","969","","","tol_toboard","","","","","","","","","tol_peg_1","969","969","0","[[3,2,0],[0,0],[1]]","6","[[0,0,0],[1,2],[3]]","4","0","","","","","","7","",""
"","","","","","single-stim-button","255","571691","0.0-3.0-22.6-0.6","631a1f357c56acbb68d5dc14","F1","batch6","","915","","","tol_tohand","","","","","","","","","tol_peg_3","915","915","0","[[3,2,0],[0,0],[0]]","7","[[0,0,0],[1,2],[3]]","4","0","","","","","","7","",""
"","","","","","single-stim-button","256","572727","0.0-3.0-22.6-1.6","631a1f357c56acbb68d5dc14","F1","batch6","","1034","","","tol_toboard","","","","","","","","","tol_peg_2","1034","1034","0","[[3,2,0],[1,0],[0]]","7","[[0,0,0],[1,2],[3]]","4","0","","","","","","7","",""
"","","","","","single-stim-button","257","573570","0.0-3.0-22.7-0.7","631a1f357c56acbb68d5dc14","F1","batch6","","840","","","tol_tohand","","","","","","","","","tol_peg_1","840","840","0","[[3,0,0],[1,0],[0]]","8","[[0,0,0],[1,2],[3]]","4","0","","","","","","7","",""
"","","","","","single-stim-button","258","574478","0.0-3.0-22.7-1.7","631a1f357c56acbb68d5dc14","F1","batch6","","906","","","tol_toboard","","","","","","","","","tol_peg_2","906","906","0","[[3,0,0],[1,2],[0]]","8","[[0,0,0],[1,2],[3]]","4","0","","","","","","7","",""
"","","","","","single-stim-button","259","575202","0.0-3.0-22.8-0.8","631a1f357c56acbb68d5dc14","F1","batch6","","722","","","tol_tohand","","","","","","","","","tol_peg_1","722","722","0","[[0,0,0],[1,2],[0]]","9","[[0,0,0],[1,2],[3]]","4","0","","","","","","7","",""
"","","","","","single-stim-button","260","576359","0.0-3.0-22.8-1.8","631a1f357c56acbb68d5dc14","F1","batch6","","1153","","","tol_toboard","","","","","","","","","tol_peg_3","1153","1153","0","[[0,0,0],[1,2],[3]]","9","[[0,0,0],[1,2],[3]]","4","0","","","","","","7","",""
"","","","","","poldrack-single-stim","261","577370","0.0-3.0-23.0","631a1f357c56acbb68d5dc14","F1","batch6","","-1","","","tol_feedback","true","","","","","","","","","1000","1000","500","","","","","","-1","none","true","44595","60368","","",""
"","","","","","html-button-response","262","578722","0.0-3.0-24.0","631a1f357c56acbb68d5dc14","F1","batch6","","1349.4000000953674","<div class = centerbox><p class = center-block-text>problem <strong>6</strong> out of 25 problems</p></div>","0","tol_trial_num","","","","","","","","","","","","","","","","","","","","","","","","",""
"","","","","","single-stim-button","263","595167","0.0-3.0-25.0-0.0","631a1f357c56acbb68d5dc14","F1","batch6","","16443","","","tol_tohand","","","","","","","","","tol_peg_2","16443","16443","0","[[0,0,0],[1,0],[3]]","1","[[1,0,0],[2,3],[0]]","5","0","","","","","","6","",""
"","","","","","single-stim-button","264","596064","0.0-3.0-25.0-1.0","631a1f357c56acbb68d5dc14","F1","batch6","","893","","","tol_toboard","","","","","","","","","tol_peg_1","893","893","0","[[2,0,0],[1,0],[3]]","1","[[1,0,0],[2,3],[0]]","5","0","","","","","","6","",""
"","","","","","single-stim-button","265","597890","0.0-3.0-25.1-0.1","631a1f357c56acbb68d5dc14","F1","batch6","","1824","","","tol_tohand","","","","","","","","","tol_peg_3","1824","1824","0","[[2,0,0],[1,0],[0]]","2","[[1,0,0],[2,3],[0]]","5","0","","","","","","6","",""
"","","","","","single-stim-button","266","598917","0.0-3.0-25.1-1.1","631a1f357c56acbb68d5dc14","F1","batch6","","1024","","","tol_toboard","","","","","","","","","tol_peg_1","1024","1024","0","[[2,3,0],[1,0],[0]]","2","[[1,0,0],[2,3],[0]]","5","0","","","","","","6","",""
"","","","","","single-stim-button","267","599803","0.0-3.0-25.2-0.2","631a1f357c56acbb68d5dc14","F1","batch6","","884","","","tol_tohand","","","","","","","","","tol_peg_2","884","884","0","[[2,3,0],[0,0],[0]]","3","[[1,0,0],[2,3],[0]]","5","0","","","","","","6","",""
"","","","","","single-stim-button","268","601358","0.0-3.0-25.2-1.2","631a1f357c56acbb68d5dc14","F1","batch6","","1553","","","tol_toboard","","","","","","","","","tol_peg_3","1553","1553","0","[[2,3,0],[0,0],[1]]","3","[[1,0,0],[2,3],[0]]","5","0","","","","","","6","",""
"","","","","","single-stim-button","269","613273","0.0-3.0-25.3-0.3","631a1f357c56acbb68d5dc14","F1","batch6","","11912","","","tol_tohand","","","","","","","","","tol_peg_3","11912","11912","0","[[2,3,0],[0,0],[0]]","4","[[1,0,0],[2,3],[0]]","5","0","","","","","","6","",""
"","","","","","single-stim-button","270","614623","0.0-3.0-25.3-1.3","631a1f357c56acbb68d5dc14","F1","batch6","","1346","","","tol_toboard","","","","","","","","","tol_peg_2","1346","1346","0","[[2,3,0],[1,0],[0]]","4","[[1,0,0],[2,3],[0]]","5","0","","","","","","6","",""
"","","","","","single-stim-button","271","629253","0.0-3.0-25.4-0.4","631a1f357c56acbb68d5dc14","F1","batch6","","14627","","","tol_tohand","","","","","","","","","tol_peg_2","14627","14627","0","[[2,3,0],[0,0],[0]]","5","[[1,0,0],[2,3],[0]]","5","0","","","","","","6","",""
"","","","","","single-stim-button","272","630387","0.0-3.0-25.4-1.4","631a1f357c56acbb68d5dc14","F1","batch6","","1129","","","tol_toboard","","","","","","","","","tol_peg_3","1129","1129","0","[[2,3,0],[0,0],[1]]","5","[[1,0,0],[2,3],[0]]","5","0","","","","","","6","",""
"","","","","","single-stim-button","273","631967","0.0-3.0-25.5-0.5","631a1f357c56acbb68d5dc14","F1","batch6","","1577","","","tol_tohand","","","","","","","","","tol_peg_1","1577","1577","0","[[2,0,0],[0,0],[1]]","6","[[1,0,0],[2,3],[0]]","5","0","","","","","","6","",""
"","","","","","single-stim-button","274","632948","0.0-3.0-25.5-1.5","631a1f357c56acbb68d5dc14","F1","batch6","","979","","","tol_toboard","","","","","","","","","tol_peg_2","979","979","0","[[2,0,0],[3,0],[1]]","6","[[1,0,0],[2,3],[0]]","5","0","","","","","","6","",""
"","","","","","single-stim-button","275","633618","0.0-3.0-25.6-0.6","631a1f357c56acbb68d5dc14","F1","batch6","","667","","","tol_tohand","","","","","","","","","tol_peg_1","667","667","0","[[0,0,0],[3,0],[1]]","7","[[1,0,0],[2,3],[0]]","5","0","","","","","","6","",""
"","","","","","single-stim-button","276","634548","0.0-3.0-25.6-1.6","631a1f357c56acbb68d5dc14","F1","batch6","","926","","","tol_toboard","","","","","","","","","tol_peg_2","926","926","0","[[0,0,0],[3,2],[1]]","7","[[1,0,0],[2,3],[0]]","5","0","","","","","","6","",""
"","","","","","single-stim-button","277","635335","0.0-3.0-25.7-0.7","631a1f357c56acbb68d5dc14","F1","batch6","","784","","","tol_tohand","","","","","","","","","tol_peg_3","784","784","0","[[0,0,0],[3,2],[0]]","8","[[1,0,0],[2,3],[0]]","5","0","","","","","","6","",""
"","","","","","single-stim-button","278","636600","0.0-3.0-25.7-1.7","631a1f357c56acbb68d5dc14","F1","batch6","","1262","","","tol_toboard","","","","","","","","","tol_peg_1","1262","1262","0","[[1,0,0],[3,2],[0]]","8","[[1,0,0],[2,3],[0]]","5","0","","","","","","6","",""
"","","","","","single-stim-button","279","637962","0.0-3.0-25.8-0.8","631a1f357c56acbb68d5dc14","F1","batch6","","1358","","","tol_tohand","","","","","","","","","tol_peg_2","1358","1358","0","[[1,0,0],[3,0],[0]]","9","[[1,0,0],[2,3],[0]]","5","0","","","","","","6","",""
"","","","","","single-stim-button","280","643599","0.0-3.0-25.8-1.8","631a1f357c56acbb68d5dc14","F1","batch6","","5635","","","tol_toboard","","","","","","","","","tol_peg_1","5635","5635","0","[[1,2,0],[3,0],[0]]","9","[[1,0,0],[2,3],[0]]","5","0","","","","","","6","",""
"","","","","","single-stim-button","281","644486","0.0-3.0-25.9-0.9","631a1f357c56acbb68d5dc14","F1","batch6","","884","","","tol_tohand","","","","","","","","","tol_peg_2","884","884","0","[[1,2,0],[0,0],[0]]","10","[[1,0,0],[2,3],[0]]","5","0","","","","","","6","",""
"","","","","","single-stim-button","282","645674","0.0-3.0-25.9-1.9","631a1f357c56acbb68d5dc14","F1","batch6","","1186","","","tol_toboard","","","","","","","","","tol_peg_3","1186","1186","0","[[1,2,0],[0,0],[3]]","10","[[1,0,0],[2,3],[0]]","5","0","","","","","","6","",""
"","","","","","single-stim-button","283","646560","0.0-3.0-25.10-0.10","631a1f357c56acbb68d5dc14","F1","batch6","","882","","","tol_tohand","","","","","","","","","tol_peg_1","882","882","0","[[1,0,0],[0,0],[3]]","11","[[1,0,0],[2,3],[0]]","5","0","","","","","","6","",""
"","","","","","single-stim-button","284","647445","0.0-3.0-25.10-1.10","631a1f357c56acbb68d5dc14","F1","batch6","","883","","","tol_toboard","","","","","","","","","tol_peg_2","883","883","0","[[1,0,0],[2,0],[3]]","11","[[1,0,0],[2,3],[0]]","5","0","","","","","","6","",""
"","","","","","single-stim-button","285","648127","0.0-3.0-25.11-0.11","631a1f357c56acbb68d5dc14","F1","batch6","","680","","","tol_tohand","","","","","","","","","tol_peg_3","680","680","0","[[1,0,0],[2,0],[0]]","12","[[1,0,0],[2,3],[0]]","5","0","","","","","","6","",""
"","","","","","single-stim-button","286","648937","0.0-3.0-25.11-1.11","631a1f357c56acbb68d5dc14","F1","batch6","","807","","","tol_toboard","","","","","","","","","tol_peg_2","807","807","0","[[1,0,0],[2,3],[0]]","12","[[1,0,0],[2,3],[0]]","5","0","","","","","","6","",""
"","","","","","poldrack-single-stim","287","649956","0.0-3.0-26.0","631a1f357c56acbb68d5dc14","F1","batch6","","-1","","","tol_feedback","true","","","","","","","","","1000","1000","500","","","","","","-1","none","true","16443","52522","","",""
"","","","","","html-button-response","288","651441","0.0-3.0-27.0","631a1f357c56acbb68d5dc14","F1","batch6","","1482.2999999523163","<div class = centerbox><p class = center-block-text>problem <strong>7</strong> out of 25 problems</p></div>","0","tol_trial_num","","","","","","","","","","","","","","","","","","","","","","","","",""
"","","","","","single-stim-button","289","657159","0.0-3.0-28.0-0.0","631a1f357c56acbb68d5dc14","F1","batch6","","5715","","","tol_tohand","","","","","","","","","tol_peg_1","5715","5715","0","[[2,0,0],[0,0],[3]]","1","[[1,2,0],[3,0],[0]]","6","0","","","","","","5","",""
"","","","","","single-stim-button","290","664711","0.0-3.0-28.0-1.0","631a1f357c56acbb68d5dc14","F1","batch6","","7548","","","tol_toboard","","","","","","","","","tol_peg_1","7548","7548","0","[[2,1,0],[0,0],[3]]","1","[[1,2,0],[3,0],[0]]","6","0","","","","","","5","",""
"","","","","","single-stim-button","291","665661","0.0-3.0-28.1-0.1","631a1f357c56acbb68d5dc14","F1","batch6","","946","","","tol_tohand","","","","","","","","","tol_peg_3","946","946","0","[[2,1,0],[0,0],[0]]","2","[[1,2,0],[3,0],[0]]","6","0","","","","","","5","",""
"","","","","","single-stim-button","292","666676","0.0-3.0-28.1-1.1","631a1f357c56acbb68d5dc14","F1","batch6","","1013","","","tol_toboard","","","","","","","","","tol_peg_2","1013","1013","0","[[2,1,0],[3,0],[0]]","2","[[1,2,0],[3,0],[0]]","6","0","","","","","","5","",""
"","","","","","single-stim-button","293","667552","0.0-3.0-28.2-0.2","631a1f357c56acbb68d5dc14","F1","batch6","","872","","","tol_tohand","","","","","","","","","tol_peg_1","872","872","0","[[2,0,0],[3,0],[0]]","3","[[1,2,0],[3,0],[0]]","6","0","","","","","","5","",""
"","","","","","single-stim-button","294","668448","0.0-3.0-28.2-1.2","631a1f357c56acbb68d5dc14","F1","batch6","","894","","","tol_toboard","","","","","","","","","tol_peg_3","894","894","0","[[2,0,0],[3,0],[1]]","3","[[1,2,0],[3,0],[0]]","6","0","","","","","","5","",""
"","","","","","single-stim-button","295","669335","0.0-3.0-28.3-0.3","631a1f357c56acbb68d5dc14","F1","batch6","","884","","","tol_tohand","","","","","","","","","tol_peg_1","884","884","0","[[0,0,0],[3,0],[1]]","4","[[1,2,0],[3,0],[0]]","6","0","","","","","","5","",""
"","","","","","single-stim-button","296","670468","0.0-3.0-28.3-1.3","631a1f357c56acbb68d5dc14","F1","batch6","","1131","","","tol_toboard","","","","","","","","","tol_peg_2","1131","1131","0","[[0,0,0],[3,2],[1]]","4","[[1,2,0],[3,0],[0]]","6","0","","","","","","5","",""
"","","","","","single-stim-button","297","671224","0.0-3.0-28.4-0.4","631a1f357c56acbb68d5dc14","F1","batch6","","754","","","tol_tohand","","","","","","","","","tol_peg_3","754","754","0","[[0,0,0],[3,2],[0]]","5","[[1,2,0],[3,0],[0]]","6","0","","","","","","5","",""
"","","","","","single-stim-button","298","672748","0.0-3.0-28.4-1.4","631a1f357c56acbb68d5dc14","F1","batch6","","1522","","","tol_toboard","","","","","","","","","tol_peg_1","1522","1522","0","[[1,0,0],[3,2],[0]]","5","[[1,2,0],[3,0],[0]]","6","0","","","","","","5","",""
"","","","","","single-stim-button","299","673504","0.0-3.0-28.5-0.5","631a1f357c56acbb68d5dc14","F1","batch6","","753","","","tol_tohand","","","","","","","","","tol_peg_2","753","753","0","[[1,0,0],[3,0],[0]]","6","[[1,2,0],[3,0],[0]]","6","0","","","","","","5","",""
"","","","","","single-stim-button","300","674444","0.0-3.0-28.5-1.5","631a1f357c56acbb68d5dc14","F1","batch6","","937","","","tol_toboard","","","","","","","","","tol_peg_1","937","937","0","[[1,2,0],[3,0],[0]]","6","[[1,2,0],[3,0],[0]]","6","0","","","","","","5","",""
"","","","","","poldrack-single-stim","301","675452","0.0-3.0-29.0","631a1f357c56acbb68d5dc14","F1","batch6","","-1","","","tol_feedback","true","","","","","","","","","1000","1000","500","","","","","","-1","none","true","5715","9924","","",""
"","","","","","html-button-response","302","676875","0.0-3.0-30.0","631a1f357c56acbb68d5dc14","F1","batch6","","1420","<div class = centerbox><p class = center-block-text>problem <strong>8</strong> out of 25 problems</p></div>","0","tol_trial_num","","","","","","","","","","","","","","","","","","","","","","","","",""
"","","","","","single-stim-button","303","680791","0.0-3.0-31.0-0.0","631a1f357c56acbb68d5dc14","F1","batch6","","3912","","","tol_tohand","","","","","","","","","tol_peg_3","3912","3912","0","[[0,0,0],[2,3],[0]]","1","[[1,2,0],[3,0],[0]]","7","0","","","","","","4","",""
"","","","","","single-stim-button","304","681743","0.0-3.0-31.0-1.0","631a1f357c56acbb68d5dc14","F1","batch6","","947","","","tol_toboard","","","","","","","","","tol_peg_1","947","947","0","[[1,0,0],[2,3],[0]]","1","[[1,2,0],[3,0],[0]]","7","0","","","","","","4","",""
"","","","","","single-stim-button","305","683330","0.0-3.0-31.1-0.1","631a1f357c56acbb68d5dc14","F1","batch6","","1585","","","tol_tohand","","","","","","","","","tol_peg_2","1585","1585","0","[[1,0,0],[2,0],[0]]","2","[[1,2,0],[3,0],[0]]","7","0","","","","","","4","",""
"","","","","","single-stim-button","306","684184","0.0-3.0-31.1-1.1","631a1f357c56acbb68d5dc14","F1","batch6","","851","","","tol_toboard","","","","","","","","","tol_peg_3","851","851","0","[[1,0,0],[2,0],[3]]","2","[[1,2,0],[3,0],[0]]","7","0","","","","","","4","",""
"","","","","","single-stim-button","307","684865","0.0-3.0-31.2-0.2","631a1f357c56acbb68d5dc14","F1","batch6","","678","","","tol_tohand","","","","","","","","","tol_peg_2","678","678","0","[[1,0,0],[0,0],[3]]","3","[[1,2,0],[3,0],[0]]","7","0","","","","","","4","",""
"","","","","","single-stim-button","308","685761","0.0-3.0-31.2-1.2","631a1f357c56acbb68d5dc14","F1","batch6","","894","","","tol_toboard","","","","","","","","","tol_peg_1","894","894","0","[[1,2,0],[0,0],[3]]","3","[[1,2,0],[3,0],[0]]","7","0","","","","","","4","",""
"","","","","","single-stim-button","309","686798","0.0-3.0-31.3-0.3","631a1f357c56acbb68d5dc14","F1","batch6","","1035","","","tol_tohand","","","","","","","","","tol_peg_3","1035","1035","0","[[1,2,0],[0,0],[0]]","4","[[1,2,0],[3,0],[0]]","7","0","","","","","","4","",""
"","","","","","single-stim-button","310","687749","0.0-3.0-31.3-1.3","631a1f357c56acbb68d5dc14","F1","batch6","","949","","","tol_toboard","","","","","","","","","tol_peg_2","949","949","0","[[1,2,0],[3,0],[0]]","4","[[1,2,0],[3,0],[0]]","7","0","","","","","","4","",""
"","","","","","poldrack-single-stim","311","688759","0.0-3.0-32.0","631a1f357c56acbb68d5dc14","F1","batch6","","-1","","","tol_feedback","true","","","","","","","","","1000","1000","500","","","","","","-1","none","true","3912","7210","","",""
"","","","","","html-button-response","312","689742","0.0-3.0-33.0","631a1f357c56acbb68d5dc14","F1","batch6","","981","<div class = centerbox><p class = center-block-text>problem <strong>9</strong> out of 25 problems</p></div>","0","tol_trial_num","","","","","","","","","","","","","","","","","","","","","","","","",""
"","","","","","single-stim-button","313","698821","0.0-3.0-34.0-0.0","631a1f357c56acbb68d5dc14","F1","batch6","","9074","","","tol_tohand","","","","","","","","","tol_peg_1","9074","9074","0","[[3,0,0],[0,0],[1]]","1","[[2,1,0],[3,0],[0]]","8","0","","","","","","6","",""
"","","","","","single-stim-button","314","699901","0.0-3.0-34.0-1.0","631a1f357c56acbb68d5dc14","F1","batch6","","1077","","","tol_toboard","","","","","","","","","tol_peg_2","1077","1077","0","[[3,0,0],[2,0],[1]]","1","[[2,1,0],[3,0],[0]]","8","0","","","","","","6","",""
"","","","","","single-stim-button","315","700939","0.0-3.0-34.1-0.1","631a1f357c56acbb68d5dc14","F1","batch6","","1034","","","tol_tohand","","","","","","","","","tol_peg_1","1034","1034","0","[[0,0,0],[2,0],[1]]","2","[[2,1,0],[3,0],[0]]","8","0","","","","","","6","",""
"","","","","","single-stim-button","316","701932","0.0-3.0-34.1-1.1","631a1f357c56acbb68d5dc14","F1","batch6","","990","","","tol_toboard","","","","","","","","","tol_peg_2","990","990","0","[[0,0,0],[2,3],[1]]","2","[[2,1,0],[3,0],[0]]","8","0","","","","","","6","",""
"","","","","","single-stim-button","317","702742","0.0-3.0-34.2-0.2","631a1f357c56acbb68d5dc14","F1","batch6","","807","","","tol_tohand","","","","","","","","","tol_peg_3","807","807","0","[[0,0,0],[2,3],[0]]","3","[[2,1,0],[3,0],[0]]","8","0","","","","","","6","",""
"","","","","","single-stim-button","318","710473","0.0-3.0-34.2-1.2","631a1f357c56acbb68d5dc14","F1","batch6","","7729","","","tol_toboard","","","","","","","","","tol_peg_1","7729","7729","0","[[1,0,0],[2,3],[0]]","3","[[2,1,0],[3,0],[0]]","8","0","","","","","","6","",""
"","","","","","single-stim-button","319","711426","0.0-3.0-34.3-0.3","631a1f357c56acbb68d5dc14","F1","batch6","","950","","","tol_tohand","","","","","","","","","tol_peg_2","950","950","0","[[1,0,0],[2,0],[0]]","4","[[2,1,0],[3,0],[0]]","8","0","","","","","","6","",""
"","","","","","single-stim-button","320","712753","0.0-3.0-34.3-1.3","631a1f357c56acbb68d5dc14","F1","batch6","","1323","","","tol_toboard","","","","","","","","","tol_peg_3","1323","1323","0","[[1,0,0],[2,0],[3]]","4","[[2,1,0],[3,0],[0]]","8","0","","","","","","6","",""
"","","","","","single-stim-button","321","717222","0.0-3.0-34.4-0.4","631a1f357c56acbb68d5dc14","F1","batch6","","4466","","","tol_tohand","","","","","","","","","tol_peg_3","4466","4466","0","[[1,0,0],[2,0],[0]]","5","[[2,1,0],[3,0],[0]]","8","0","","","","","","6","",""
"","","","","","single-stim-button","322","720855","0.0-3.0-34.4-1.4","631a1f357c56acbb68d5dc14","F1","batch6","","3630","","","tol_toboard","","","","","","","","","tol_peg_1","3630","3630","0","[[1,3,0],[2,0],[0]]","5","[[2,1,0],[3,0],[0]]","8","0","","","","","","6","",""
"","","","","","single-stim-button","323","721762","0.0-3.0-34.5-0.5","631a1f357c56acbb68d5dc14","F1","batch6","","904","","","tol_tohand","","","","","","","","","tol_peg_2","904","904","0","[[1,3,0],[0,0],[0]]","6","[[2,1,0],[3,0],[0]]","8","0","","","","","","6","",""
"","","","","","single-stim-button","324","722864","0.0-3.0-34.5-1.5","631a1f357c56acbb68d5dc14","F1","batch6","","1100","","","tol_toboard","","","","","","","","","tol_peg_3","1100","1100","0","[[1,3,0],[0,0],[2]]","6","[[2,1,0],[3,0],[0]]","8","0","","","","","","6","",""
"","","","","","single-stim-button","325","724184","0.0-3.0-34.6-0.6","631a1f357c56acbb68d5dc14","F1","batch6","","1317","","","tol_tohand","","","","","","","","","tol_peg_1","1317","1317","0","[[1,0,0],[0,0],[2]]","7","[[2,1,0],[3,0],[0]]","8","0","","","","","","6","",""
"","","","","","single-stim-button","326","725318","0.0-3.0-34.6-1.6","631a1f357c56acbb68d5dc14","F1","batch6","","1131","","","tol_toboard","","","","","","","","","tol_peg_2","1131","1131","0","[[1,0,0],[3,0],[2]]","7","[[2,1,0],[3,0],[0]]","8","0","","","","","","6","",""
"","","","","","single-stim-button","327","725943","0.0-3.0-34.7-0.7","631a1f357c56acbb68d5dc14","F1","batch6","","622","","","tol_tohand","","","","","","","","","tol_peg_1","622","622","0","[[0,0,0],[3,0],[2]]","8","[[2,1,0],[3,0],[0]]","8","0","","","","","","6","",""
"","","","","","single-stim-button","328","726873","0.0-3.0-34.7-1.7","631a1f357c56acbb68d5dc14","F1","batch6","","927","","","tol_toboard","","","","","","","","","tol_peg_2","927","927","0","[[0,0,0],[3,1],[2]]","8","[[2,1,0],[3,0],[0]]","8","0","","","","","","6","",""
"","","","","","single-stim-button","329","727608","0.0-3.0-34.8-0.8","631a1f357c56acbb68d5dc14","F1","batch6","","732","","","tol_tohand","","","","","","","","","tol_peg_3","732","732","0","[[0,0,0],[3,1],[0]]","9","[[2,1,0],[3,0],[0]]","8","0","","","","","","6","",""
"","","","","","single-stim-button","330","728504","0.0-3.0-34.8-1.8","631a1f357c56acbb68d5dc14","F1","batch6","","894","","","tol_toboard","","","","","","","","","tol_peg_1","894","894","0","[[2,0,0],[3,1],[0]]","9","[[2,1,0],[3,0],[0]]","8","0","","","","","","6","",""
"","","","","","single-stim-button","331","729238","0.0-3.0-34.9-0.9","631a1f357c56acbb68d5dc14","F1","batch6","","732","","","tol_tohand","","","","","","","","","tol_peg_2","732","732","0","[[2,0,0],[3,0],[0]]","10","[[2,1,0],[3,0],[0]]","8","0","","","","","","6","",""
"","","","","","single-stim-button","332","730244","0.0-3.0-34.9-1.9","631a1f357c56acbb68d5dc14","F1","batch6","","1004","","","tol_toboard","","","","","","","","","tol_peg_1","1004","1004","0","[[2,1,0],[3,0],[0]]","10","[[2,1,0],[3,0],[0]]","8","0","","","","","","6","",""
"","","","","","poldrack-single-stim","333","731256","0.0-3.0-35.0","631a1f357c56acbb68d5dc14","F1","batch6","","-1","","","tol_feedback","true","","","","","","","","","1000","1000","500","","","","","","-1","none","true","9074","20638","","",""
"","","","","","html-button-response","334","732771","0.0-3.0-36.0","631a1f357c56acbb68d5dc14","F1","batch6","","1512","<div class = centerbox><p class = center-block-text>problem <strong>10</strong> out of 25 problems</p></div>","0","tol_trial_num","","","","","","","","","","","","","","","","","","","","","","","","",""
"","","","","","single-stim-button","335","736822","0.0-3.0-37.0-0.0","631a1f357c56acbb68d5dc14","F1","batch6","","4049","","","tol_tohand","","","","","","","","","tol_peg_2","4049","4049","0","[[3,0,0],[0,0],[2]]","1","[[3,0,0],[2,1],[0]]","9","0","","","","","","3","",""
"","","","","","single-stim-button","336","737913","0.0-3.0-37.0-1.0","631a1f357c56acbb68d5dc14","F1","batch6","","1088","","","tol_toboard","","","","","","","","","tol_peg_1","1088","1088","0","[[3,1,0],[0,0],[2]]","1","[[3,0,0],[2,1],[0]]","9","0","","","","","","3","",""
"","","","","","single-stim-button","337","738724","0.0-3.0-37.1-0.1","631a1f357c56acbb68d5dc14","F1","batch6","","809","","","tol_tohand","","","","","","","","","tol_peg_3","809","809","0","[[3,1,0],[0,0],[0]]","2","[[3,0,0],[2,1],[0]]","9","0","","","","","","3","",""
"","","","","","single-stim-button","338","739653","0.0-3.0-37.1-1.1","631a1f357c56acbb68d5dc14","F1","batch6","","926","","","tol_toboard","","","","","","","","","tol_peg_2","926","926","0","[[3,1,0],[2,0],[0]]","2","[[3,0,0],[2,1],[0]]","9","0","","","","","","3","",""
"","","","","","single-stim-button","339","740431","0.0-3.0-37.2-0.2","631a1f357c56acbb68d5dc14","F1","batch6","","775","","","tol_tohand","","","","","","","","","tol_peg_1","775","775","0","[[3,0,0],[2,0],[0]]","3","[[3,0,0],[2,1],[0]]","9","0","","","","","","3","",""
"","","","","","single-stim-button","340","741403","0.0-3.0-37.2-1.2","631a1f357c56acbb68d5dc14","F1","batch6","","970","","","tol_toboard","","","","","","","","","tol_peg_2","970","970","0","[[3,0,0],[2,1],[0]]","3","[[3,0,0],[2,1],[0]]","9","0","","","","","","3","",""
"","","","","","poldrack-single-stim","341","742408","0.0-3.0-38.0","631a1f357c56acbb68d5dc14","F1","batch6","","-1","","","tol_feedback","true","","","","","","","","","1000","1000","500","","","","","","-1","none","true","4049","5633","","",""
"","","","","","html-button-response","342","743564","0.0-3.0-39.0","631a1f357c56acbb68d5dc14","F1","batch6","","1153.6999999284744","<div class = centerbox><p class = center-block-text>problem <strong>11</strong> out of 25 problems</p></div>","0","tol_trial_num","","","","","","","","","","","","","","","","","","","","","","","","",""
"","","","","","single-stim-button","343","758046","0.0-3.0-40.0-0.0","631a1f357c56acbb68d5dc14","F1","batch6","","14478","","","tol_tohand","","","","","","","","","tol_peg_1","14478","14478","0","[[1,0,0],[3,0],[0]]","1","[[2,0,0],[1,3],[0]]","10","0","","","","","","6","",""
"","","","","","single-stim-button","344","761418","0.0-3.0-40.0-1.0","631a1f357c56acbb68d5dc14","F1","batch6","","3368","","","tol_toboard","","","","","","","","","tol_peg_3","3368","3368","0","[[1,0,0],[3,0],[2]]","1","[[2,0,0],[1,3],[0]]","10","0","","","","","","6","",""
"","","","","","single-stim-button","345","762347","0.0-3.0-40.1-0.1","631a1f357c56acbb68d5dc14","F1","batch6","","925","","","tol_tohand","","","","","","","","","tol_peg_1","925","925","0","[[0,0,0],[3,0],[2]]","2","[[2,0,0],[1,3],[0]]","10","0","","","","","","6","",""
"","","","","","single-stim-button","346","763254","0.0-3.0-40.1-1.1","631a1f357c56acbb68d5dc14","F1","batch6","","904","","","tol_toboard","","","","","","","","","tol_peg_2","904","904","0","[[0,0,0],[3,1],[2]]","2","[[2,0,0],[1,3],[0]]","10","0","","","","","","6","",""
"","","","","","single-stim-button","347","763999","0.0-3.0-40.2-0.2","631a1f357c56acbb68d5dc14","F1","batch6","","742","","","tol_tohand","","","","","","","","","tol_peg_3","742","742","0","[[0,0,0],[3,1],[0]]","3","[[2,0,0],[1,3],[0]]","10","0","","","","","","6","",""
"","","","","","single-stim-button","348","764951","0.0-3.0-40.2-1.2","631a1f357c56acbb68d5dc14","F1","batch6","","949","","","tol_toboard","","","","","","","","","tol_peg_1","949","949","0","[[2,0,0],[3,1],[0]]","3","[[2,0,0],[1,3],[0]]","10","0","","","","","","6","",""
