"success","timeout","failed_images","failed_audio","failed_video","trial_type","trial_index","time_elapsed","internal_node_id","subject_id","study_id","session_id","task","rt","stimulus","response","item","answer","correct","spm_correct","spm_rt","view_history","fiar_detect_rt","fiar_detect_correct","total_correct_fiar_detect","post_trial_gap","choices","mouse_click","stim_duration","block_duration","timing_post_trial","current_position","tol_num_moves_made","tol_target","tol_problem_id","tol_rt","key_press","possible_responses","tol_correct","preplanning","tol_rt_per_trial","tol_min_moves"
"true","false","[]","[]","[]","preload","0","4599","0.0-0.0","631de062917efffd355d4394","D2","batch4","","","","","","","","","","","","","","","","","","","","","","","","","","","","","",""
"true","","","","","fullscreen","1","61607","0.0-1.0-0.0","631de062917efffd355d4394","D2","batch4","","","","","","","","","","","","","","","","","","","","","","","","","","","","","",""
"true","","","","","fullscreen","2","65855","0.0-2.0-0.0","631de062917efffd355d4394","D2","batch4","spm_fullscreen","","","","","","","","","","","","","","","","","","","","","","","","","","","","",""
"","","","","","html-button-response","3","76953","0.0-2.0-1.0","631de062917efffd355d4394","D2","batch4","","11096","<p class = block-text><b>Instructions</b> <br>This is a widely used intelligence test in research. <br>In this test, a figure with a missing piece will be presented.<br>Below the figure are alternative pieces to complete the figure, only one of which is correct.<br> Different figures might involve different principles for obtaining the missing piece<br>Your job is to select the most logical piece to complete the figure.</p>","0","","","","","","","","","","","","","","","","","","","","","","","","","",""
"","","","","","html-keyboard-response","4","77755","0.0-2.0-2.0-0.0","631de062917efffd355d4394","D2","batch4","spm_show_trial_num","null","<p class=block-text>Trial 1 out of 60</p>","null","","","","","","","","","","","","","","","","","","","","","","","","","",""
"","","","","","image-button-response","5","93602","0.0-2.0-2.0-1.0","631de062917efffd355d4394","D2","batch4","spm_respsonse","15835","img/question_1_1.jpeg","3","mat_01","4","1","1","15835","","","","","","","","","","","","","","","","","","","","",""
"","","","","","html-keyboard-response","6","94656","0.0-2.0-2.0-0.1","631de062917efffd355d4394","D2","batch4","spm_show_trial_num","null","<p class=block-text>Trial 2 out of 60</p>","null","","","","","","","","","","","","","","","","","","","","","","","","","",""
"","","","","","image-button-response","7","97817","0.0-2.0-2.0-1.1","631de062917efffd355d4394","D2","batch4","spm_respsonse","3151","img/question_1_2.jpeg","4","mat_02","5","1","1","3151","","","","","","","","","","","","","","","","","","","","",""
"","","","","","html-keyboard-response","8","98870","0.0-2.0-2.0-0.2","631de062917efffd355d4394","D2","batch4","spm_show_trial_num","null","<p class=block-text>Trial 3 out of 60</p>","null","","","","","","","","","","","","","","","","","","","","","","","","","",""
"","","","","","image-button-response","9","105067","0.0-2.0-2.0-1.2","631de062917efffd355d4394","D2","batch4","spm_respsonse","6187","img/question_1_3.jpeg","0","mat_03","1","1","1","6187","","","","","","","","","","","","","","","","","","","","",""
"","","","","","html-keyboard-response","10","106121","0.0-2.0-2.0-0.3","631de062917efffd355d4394","D2","batch4","spm_show_trial_num","null","<p class=block-text>Trial 4 out of 60</p>","null","","","","","","","","","","","","","","","","","","","","","","","","","",""
"","","","","","image-button-response","11","114619","0.0-2.0-2.0-1.3","631de062917efffd355d4394","D2","batch4","spm_respsonse","8488","img/question_1_4.jpeg","1","mat_04","2","1","1","8488","","","","","","","","","","","","","","","","","","","","",""
"","","","","","html-keyboard-response","12","115672","0.0-2.0-2.0-0.4","631de062917efffd355d4394","D2","batch4","spm_show_trial_num","null","<p class=block-text>Trial 5 out of 60</p>","null","","","","","","","","","","","","","","","","","","","","","","","","","",""
"","","","","","image-button-response","13","126652","0.0-2.0-2.0-1.4","631de062917efffd355d4394","D2","batch4","spm_respsonse","10970","img/question_1_5.jpeg","5","mat_05","6","1","1","10970","","","","","","","","","","","","","","","","","","","","",""
"","","","","","html-keyboard-response","14","127705","0.0-2.0-2.0-0.5","631de062917efffd355d4394","D2","batch4","spm_show_trial_num","null","<p class=block-text>Trial 6 out of 60</p>","null","","","","","","","","","","","","","","","","","","","","","","","","","",""
"","","","","","image-button-response","15","131817","0.0-2.0-2.0-1.5","631de062917efffd355d4394","D2","batch4","spm_respsonse","4102","img/question_1_6.jpeg","2","mat_06","3","1","1","4102","","","","","","","","","","","","","","","","","","","","",""
"","","","","","html-keyboard-response","16","132870","0.0-2.0-2.0-0.6","631de062917efffd355d4394","D2","batch4","spm_show_trial_num","null","<p class=block-text>Trial 7 out of 60</p>","null","","","","","","","","","","","","","","","","","","","","","","","","","",""
"","","","","","image-button-response","17","138167","0.0-2.0-2.0-1.6","631de062917efffd355d4394","D2","batch4","spm_respsonse","5287","img/question_1_7.jpeg","5","mat_07","6","1","1","5287","","","","","","","","","","","","","","","","","","","","",""
"","","","","","html-keyboard-response","18","139220","0.0-2.0-2.0-0.7","631de062917efffd355d4394","D2","batch4","spm_show_trial_num","null","<p class=block-text>Trial 8 out of 60</p>","null","","","","","","","","","","","","","","","","","","","","","","","","","",""
"","","","","","image-button-response","19","145104","0.0-2.0-2.0-1.7","631de062917efffd355d4394","D2","batch4","spm_respsonse","5874","img/question_1_8.jpeg","1","mat_08","2","1","1","5874","","","","","","","","","","","","","","","","","","","","",""
"","","","","","html-keyboard-response","20","146157","0.0-2.0-2.0-0.8","631de062917efffd355d4394","D2","batch4","spm_show_trial_num","null","<p class=block-text>Trial 9 out of 60</p>","null","","","","","","","","","","","","","","","","","","","","","","","","","",""
"","","","","","image-button-response","21","151051","0.0-2.0-2.0-1.8","631de062917efffd355d4394","D2","batch4","spm_respsonse","4883.999999999971","img/question_1_9.jpeg","0","mat_09","1","1","1","4883.999999999971","","","","","","","","","","","","","","","","","","","","",""
"","","","","","html-keyboard-response","22","152102","0.0-2.0-2.0-0.9","631de062917efffd355d4394","D2","batch4","spm_show_trial_num","null","<p class=block-text>Trial 10 out of 60</p>","null","","","","","","","","","","","","","","","","","","","","","","","","","",""
"","","","","","image-button-response","23","155733","0.0-2.0-2.0-1.9","631de062917efffd355d4394","D2","batch4","spm_respsonse","3623","img/question_1_10.jpeg","2","mat_10","3","1","1","3623","","","","","","","","","","","","","","","","","","","","",""
"","","","","","html-keyboard-response","24","156786","0.0-2.0-2.0-0.10","631de062917efffd355d4394","D2","batch4","spm_show_trial_num","null","<p class=block-text>Trial 11 out of 60</p>","null","","","","","","","","","","","","","","","","","","","","","","","","","",""
"","","","","","image-button-response","25","161719","0.0-2.0-2.0-1.10","631de062917efffd355d4394","D2","batch4","spm_respsonse","4921.999999999971","img/question_1_11.jpeg","3","mat_11","4","1","1","4921.999999999971","","","","","","","","","","","","","","","","","","","","",""
"","","","","","html-keyboard-response","26","162772","0.0-2.0-2.0-0.11","631de062917efffd355d4394","D2","batch4","spm_show_trial_num","null","<p class=block-text>Trial 12 out of 60</p>","null","","","","","","","","","","","","","","","","","","","","","","","","","",""
"","","","","","image-button-response","27","171250","0.0-2.0-2.0-1.11","631de062917efffd355d4394","D2","batch4","spm_respsonse","8470","img/question_1_12.jpeg","4","mat_12","5","1","1","8470","","","","","","","","","","","","","","","","","","","","",""
"","","","","","html-keyboard-response","28","172303","0.0-2.0-2.0-0.12","631de062917efffd355d4394","D2","batch4","spm_show_trial_num","null","<p class=block-text>Trial 13 out of 60</p>","null","","","","","","","","","","","","","","","","","","","","","","","","","",""
"","","","","","image-button-response","29","174833","0.0-2.0-2.0-1.12","631de062917efffd355d4394","D2","batch4","spm_respsonse","2520","img/question_2_1.jpeg","1","mat_13","2","1","1","2520","","","","","","","","","","","","","","","","","","","","",""
"","","","","","html-keyboard-response","30","175886","0.0-2.0-2.0-0.13","631de062917efffd355d4394","D2","batch4","spm_show_trial_num","null","<p class=block-text>Trial 14 out of 60</p>","null","","","","","","","","","","","","","","","","","","","","","","","","","",""
"","","","","","image-button-response","31","182918","0.0-2.0-2.0-1.13","631de062917efffd355d4394","D2","batch4","spm_respsonse","7022","img/question_2_2.jpeg","5","mat_14","6","1","1","7022","","","","","","","","","","","","","","","","","","","","",""
"","","","","","html-keyboard-response","32","183971","0.0-2.0-2.0-0.14","631de062917efffd355d4394","D2","batch4","spm_show_trial_num","null","<p class=block-text>Trial 15 out of 60</p>","null","","","","","","","","","","","","","","","","","","","","","","","","","",""
"","","","","","image-button-response","33","187202","0.0-2.0-2.0-1.14","631de062917efffd355d4394","D2","batch4","spm_respsonse","3220","img/question_2_3.jpeg","0","mat_15","1","1","1","3220","","","","","","","","","","","","","","","","","","","","",""
"","","","","","html-keyboard-response","34","188254","0.0-2.0-2.0-0.15","631de062917efffd355d4394","D2","batch4","spm_show_trial_num","null","<p class=block-text>Trial 16 out of 60</p>","null","","","","","","","","","","","","","","","","","","","","","","","","","",""
"","","","","","image-button-response","35","191587","0.0-2.0-2.0-1.15","631de062917efffd355d4394","D2","batch4","spm_respsonse","3323","img/question_2_4.jpeg","1","mat_16","2","1","1","3323","","","","","","","","","","","","","","","","","","","","",""
"","","","","","html-keyboard-response","36","192640","0.0-2.0-2.0-0.16","631de062917efffd355d4394","D2","batch4","spm_show_trial_num","null","<p class=block-text>Trial 17 out of 60</p>","null","","","","","","","","","","","","","","","","","","","","","","","","","",""
"","","","","","image-button-response","37","196318","0.0-2.0-2.0-1.16","631de062917efffd355d4394","D2","batch4","spm_respsonse","3669","img/question_2_5.jpeg","0","mat_17","1","1","1","3669","","","","","","","","","","","","","","","","","","","","",""
"","","","","","html-keyboard-response","38","197371","0.0-2.0-2.0-0.17","631de062917efffd355d4394","D2","batch4","spm_show_trial_num","null","<p class=block-text>Trial 18 out of 60</p>","null","","","","","","","","","","","","","","","","","","","","","","","","","",""
"","","","","","image-button-response","39","207266","0.0-2.0-2.0-1.17","631de062917efffd355d4394","D2","batch4","spm_respsonse","9886","img/question_2_6.jpeg","2","mat_18","3","1","1","9886","","","","","","","","","","","","","","","","","","","","",""
"","","","","","html-keyboard-response","40","208318","0.0-2.0-2.0-0.18","631de062917efffd355d4394","D2","batch4","spm_show_trial_num","null","<p class=block-text>Trial 19 out of 60</p>","null","","","","","","","","","","","","","","","","","","","","","","","","","",""
"","","","","","image-button-response","41","217469","0.0-2.0-2.0-1.18","631de062917efffd355d4394","D2","batch4","spm_respsonse","9141","img/question_2_7.jpeg","4","mat_19","5","1","1","9141","","","","","","","","","","","","","","","","","","","","",""
"","","","","","html-keyboard-response","42","218523","0.0-2.0-2.0-0.19","631de062917efffd355d4394","D2","batch4","spm_show_trial_num","null","<p class=block-text>Trial 20 out of 60</p>","null","","","","","","","","","","","","","","","","","","","","","","","","","",""
"","","","","","image-button-response","43","223016","0.0-2.0-2.0-1.19","631de062917efffd355d4394","D2","batch4","spm_respsonse","4483","img/question_2_8.jpeg","5","mat_20","6","1","1","4483","","","","","","","","","","","","","","","","","","","","",""
"","","","","","html-keyboard-response","44","224068","0.0-2.0-2.0-0.20","631de062917efffd355d4394","D2","batch4","spm_show_trial_num","null","<p class=block-text>Trial 21 out of 60</p>","null","","","","","","","","","","","","","","","","","","","","","","","","","",""
"","","","","","image-button-response","45","229650","0.0-2.0-2.0-1.20","631de062917efffd355d4394","D2","batch4","spm_respsonse","5575","img/question_2_9.jpeg","3","mat_21","4","1","1","5575","","","","","","","","","","","","","","","","","","","","",""
"","","","","","html-keyboard-response","46","230703","0.0-2.0-2.0-0.21","631de062917efffd355d4394","D2","batch4","spm_show_trial_num","null","<p class=block-text>Trial 22 out of 60</p>","null","","","","","","","","","","","","","","","","","","","","","","","","","",""
"","","","","","image-button-response","47","233919","0.0-2.0-2.0-1.21","631de062917efffd355d4394","D2","batch4","spm_respsonse","3206.000000000029","img/question_2_10.jpeg","2","mat_22","3","1","1","3206.000000000029","","","","","","","","","","","","","","","","","","","","",""
"","","","","","html-keyboard-response","48","234971","0.0-2.0-2.0-0.22","631de062917efffd355d4394","D2","batch4","spm_show_trial_num","null","<p class=block-text>Trial 23 out of 60</p>","null","","","","","","","","","","","","","","","","","","","","","","","","","",""
"","","","","","image-button-response","49","240515","0.0-2.0-2.0-1.22","631de062917efffd355d4394","D2","batch4","spm_respsonse","5534","img/question_2_11.jpeg","3","mat_23","4","1","1","5534","","","","","","","","","","","","","","","","","","","","",""
"","","","","","html-keyboard-response","50","241569","0.0-2.0-2.0-0.23","631de062917efffd355d4394","D2","batch4","spm_show_trial_num","null","<p class=block-text>Trial 24 out of 60</p>","null","","","","","","","","","","","","","","","","","","","","","","","","","",""
"","","","","","image-button-response","51","247349","0.0-2.0-2.0-1.23","631de062917efffd355d4394","D2","batch4","spm_respsonse","5769.999999999971","img/question_2_12.jpeg","4","mat_24","5","1","1","5769.999999999971","","","","","","","","","","","","","","","","","","","","",""
"","","","","","html-button-response","52","250436","0.0-2.0-3.0","631de062917efffd355d4394","D2","batch4","attention_check","2834","<p class = block-text>Attention check: Please choose 1<br></p>","0","","","true","","","","","","","","","","","","","","","","","","","","","","",""
"","","","","","html-keyboard-response","53","251238","0.0-2.0-4.0-0.0","631de062917efffd355d4394","D2","batch4","spm_show_trial_num","null","<p class=block-text>Trial 25 out of 60</p>","null","","","","","","","","","","","","","","","","","","","","","","","","","",""
"","","","","","image-button-response","54","255333","0.0-2.0-4.0-1.0","631de062917efffd355d4394","D2","batch4","spm_respsonse","4084","img/question_3_1.jpeg","7","mat_25","8","1","1","4084","","","","","","","","","","","","","","","","","","","","",""
"","","","","","html-keyboard-response","55","256387","0.0-2.0-4.0-0.1","631de062917efffd355d4394","D2","batch4","spm_show_trial_num","null","<p class=block-text>Trial 26 out of 60</p>","null","","","","","","","","","","","","","","","","","","","","","","","","","",""
"","","","","","image-button-response","56","268683","0.0-2.0-4.0-1.1","631de062917efffd355d4394","D2","batch4","spm_respsonse","12285.00000000003","img/question_3_2.jpeg","1","mat_26","2","1","1","12285.00000000003","","","","","","","","","","","","","","","","","","","","",""
"","","","","","html-keyboard-response","57","269737","0.0-2.0-4.0-0.2","631de062917efffd355d4394","D2","batch4","spm_show_trial_num","null","<p class=block-text>Trial 27 out of 60</p>","null","","","","","","","","","","","","","","","","","","","","","","","","","",""
"","","","","","image-button-response","58","276702","0.0-2.0-4.0-1.2","631de062917efffd355d4394","D2","batch4","spm_respsonse","6953","img/question_3_3.jpeg","2","mat_27","3","1","1","6953","","","","","","","","","","","","","","","","","","","","",""
"","","","","","html-keyboard-response","59","277755","0.0-2.0-4.0-0.3","631de062917efffd355d4394","D2","batch4","spm_show_trial_num","null","<p class=block-text>Trial 28 out of 60</p>","null","","","","","","","","","","","","","","","","","","","","","","","","","",""
"","","","","","image-button-response","60","290266","0.0-2.0-4.0-1.3","631de062917efffd355d4394","D2","batch4","spm_respsonse","12501","img/question_3_4.jpeg","7","mat_28","8","1","1","12501","","","","","","","","","","","","","","","","","","","","",""
"","","","","","html-keyboard-response","61","291320","0.0-2.0-4.0-0.4","631de062917efffd355d4394","D2","batch4","spm_show_trial_num","null","<p class=block-text>Trial 29 out of 60</p>","null","","","","","","","","","","","","","","","","","","","","","","","","","",""
"","","","","","image-button-response","62","300521","0.0-2.0-4.0-1.4","631de062917efffd355d4394","D2","batch4","spm_respsonse","9190","img/question_3_5.jpeg","6","mat_29","7","1","1","9190","","","","","","","","","","","","","","","","","","","","",""
"","","","","","html-keyboard-response","63","301575","0.0-2.0-4.0-0.5","631de062917efffd355d4394","D2","batch4","spm_show_trial_num","null","<p class=block-text>Trial 30 out of 60</p>","null","","","","","","","","","","","","","","","","","","","","","","","","","",""
"","","","","","image-button-response","64","311250","0.0-2.0-4.0-1.5","631de062917efffd355d4394","D2","batch4","spm_respsonse","9663","img/question_3_6.jpeg","3","mat_30","4","1","1","9663","","","","","","","","","","","","","","","","","","","","",""
"","","","","","html-keyboard-response","65","312303","0.0-2.0-4.0-0.6","631de062917efffd355d4394","D2","batch4","spm_show_trial_num","null","<p class=block-text>Trial 31 out of 60</p>","null","","","","","","","","","","","","","","","","","","","","","","","","","",""
"","","","","","image-button-response","66","321985","0.0-2.0-4.0-1.6","631de062917efffd355d4394","D2","batch4","spm_respsonse","9672","img/question_3_7.jpeg","4","mat_31","5","1","1","9672","","","","","","","","","","","","","","","","","","","","",""
"","","","","","html-keyboard-response","67","323039","0.0-2.0-4.0-0.7","631de062917efffd355d4394","D2","batch4","spm_show_trial_num","null","<p class=block-text>Trial 32 out of 60</p>","null","","","","","","","","","","","","","","","","","","","","","","","","","",""
"","","","","","image-button-response","68","389317","0.0-2.0-4.0-1.7","631de062917efffd355d4394","D2","batch4","spm_respsonse","66274","img/question_3_8.jpeg","0","mat_32","1","1","1","66274","","","","","","","","","","","","","","","","","","","","",""
"","","","","","html-keyboard-response","69","390370","0.0-2.0-4.0-0.8","631de062917efffd355d4394","D2","batch4","spm_show_trial_num","null","<p class=block-text>Trial 33 out of 60</p>","null","","","","","","","","","","","","","","","","","","","","","","","","","",""
"","","","","","image-button-response","70","409604","0.0-2.0-4.0-1.8","631de062917efffd355d4394","D2","batch4","spm_respsonse","19225.00000000006","img/question_3_9.jpeg","6","mat_33","7","1","1","19225.00000000006","","","","","","","","","","","","","","","","","","","","",""
"","","","","","html-keyboard-response","71","410658","0.0-2.0-4.0-0.9","631de062917efffd355d4394","D2","batch4","spm_show_trial_num","null","<p class=block-text>Trial 34 out of 60</p>","null","","","","","","","","","","","","","","","","","","","","","","","","","",""
"","","","","","image-button-response","72","453950","0.0-2.0-4.0-1.9","631de062917efffd355d4394","D2","batch4","spm_respsonse","43283","img/question_3_10.jpeg","7","mat_34","6","0","0","43283","","","","","","","","","","","","","","","","","","","","",""
"","","","","","html-keyboard-response","73","455003","0.0-2.0-4.0-0.10","631de062917efffd355d4394","D2","batch4","spm_show_trial_num","null","<p class=block-text>Trial 35 out of 60</p>","null","","","","","","","","","","","","","","","","","","","","","","","","","",""
"","","","","","image-button-response","74","488764","0.0-2.0-4.0-1.10","631de062917efffd355d4394","D2","batch4","spm_respsonse","33753","img/question_3_11.jpeg","0","mat_35","1","1","1","33753","","","","","","","","","","","","","","","","","","","","",""
"","","","","","html-keyboard-response","75","489818","0.0-2.0-4.0-0.11","631de062917efffd355d4394","D2","batch4","spm_show_trial_num","null","<p class=block-text>Trial 36 out of 60</p>","null","","","","","","","","","","","","","","","","","","","","","","","","","",""
"","","","","","image-button-response","76","508320","0.0-2.0-4.0-1.11","631de062917efffd355d4394","D2","batch4","spm_respsonse","18491","img/question_3_12.jpeg","1","mat_36","2","1","1","18491","","","","","","","","","","","","","","","","","","","","",""
"","","","","","html-keyboard-response","77","509372","0.0-2.0-4.0-0.12","631de062917efffd355d4394","D2","batch4","spm_show_trial_num","null","<p class=block-text>Trial 37 out of 60</p>","null","","","","","","","","","","","","","","","","","","","","","","","","","",""
"","","","","","image-button-response","78","512266","0.0-2.0-4.0-1.12","631de062917efffd355d4394","D2","batch4","spm_respsonse","2887.999999999942","img/question_4_1.jpeg","2","mat_37","3","1","1","2887.999999999942","","","","","","","","","","","","","","","","","","","","",""
"","","","","","html-keyboard-response","79","513319","0.0-2.0-4.0-0.13","631de062917efffd355d4394","D2","batch4","spm_show_trial_num","null","<p class=block-text>Trial 38 out of 60</p>","null","","","","","","","","","","","","","","","","","","","","","","","","","",""
"","","","","","image-button-response","80","521949","0.0-2.0-4.0-1.13","631de062917efffd355d4394","D2","batch4","spm_respsonse","8620.000000000058","img/question_4_2.jpeg","3","mat_38","4","1","1","8620.000000000058","","","","","","","","","","","","","","","","","","","","",""
"","","","","","html-keyboard-response","81","523002","0.0-2.0-4.0-0.14","631de062917efffd355d4394","D2","batch4","spm_show_trial_num","null","<p class=block-text>Trial 39 out of 60</p>","null","","","","","","","","","","","","","","","","","","","","","","","","","",""
"","","","","","image-button-response","82","529266","0.0-2.0-4.0-1.14","631de062917efffd355d4394","D2","batch4","spm_respsonse","6253","img/question_4_3.jpeg","2","mat_39","3","1","1","6253","","","","","","","","","","","","","","","","","","","","",""
"","","","","","html-keyboard-response","83","530320","0.0-2.0-4.0-0.15","631de062917efffd355d4394","D2","batch4","spm_show_trial_num","null","<p class=block-text>Trial 40 out of 60</p>","null","","","","","","","","","","","","","","","","","","","","","","","","","",""
"","","","","","image-button-response","84","539318","0.0-2.0-4.0-1.15","631de062917efffd355d4394","D2","batch4","spm_respsonse","8987","img/question_4_4.jpeg","6","mat_40","7","1","1","8987","","","","","","","","","","","","","","","","","","","","",""
"","","","","","html-keyboard-response","85","540371","0.0-2.0-4.0-0.16","631de062917efffd355d4394","D2","batch4","spm_show_trial_num","null","<p class=block-text>Trial 41 out of 60</p>","null","","","","","","","","","","","","","","","","","","","","","","","","","",""
"","","","","","image-button-response","86","548602","0.0-2.0-4.0-1.16","631de062917efffd355d4394","D2","batch4","spm_respsonse","8221","img/question_4_5.jpeg","7","mat_41","8","1","1","8221","","","","","","","","","","","","","","","","","","","","",""
"","","","","","html-keyboard-response","87","549656","0.0-2.0-4.0-0.17","631de062917efffd355d4394","D2","batch4","spm_show_trial_num","null","<p class=block-text>Trial 42 out of 60</p>","null","","","","","","","","","","","","","","","","","","","","","","","","","",""
"","","","","","image-button-response","88","556484","0.0-2.0-4.0-1.17","631de062917efffd355d4394","D2","batch4","spm_respsonse","6817","img/question_4_6.jpeg","1","mat_42","6","0","0","6817","","","","","","","","","","","","","","","","","","","","",""
"","","","","","html-keyboard-response","89","557535","0.0-2.0-4.0-0.18","631de062917efffd355d4394","D2","batch4","spm_show_trial_num","null","<p class=block-text>Trial 43 out of 60</p>","null","","","","","","","","","","","","","","","","","","","","","","","","","",""
"","","","","","image-button-response","90","575348","0.0-2.0-4.0-1.18","631de062917efffd355d4394","D2","batch4","spm_respsonse","17803","img/question_4_7.jpeg","4","mat_43","5","1","1","17803","","","","","","","","","","","","","","","","","","","","",""
"","","","","","html-keyboard-response","91","576402","0.0-2.0-4.0-0.19","631de062917efffd355d4394","D2","batch4","spm_show_trial_num","null","<p class=block-text>Trial 44 out of 60</p>","null","","","","","","","","","","","","","","","","","","","","","","","","","",""
"","","","","","image-button-response","92","589085","0.0-2.0-4.0-1.19","631de062917efffd355d4394","D2","batch4","spm_respsonse","12672","img/question_4_8.jpeg","3","mat_44","4","1","1","12672","","","","","","","","","","","","","","","","","","","","",""
"","","","","","html-keyboard-response","93","590138","0.0-2.0-4.0-0.20","631de062917efffd355d4394","D2","batch4","spm_show_trial_num","null","<p class=block-text>Trial 45 out of 60</p>","null","","","","","","","","","","","","","","","","","","","","","","","","","",""
"","","","","","image-button-response","94","608067","0.0-2.0-4.0-1.20","631de062917efffd355d4394","D2","batch4","spm_respsonse","17920.000000000116","img/question_4_9.jpeg","0","mat_45","1","1","1","17920.000000000116","","","","","","","","","","","","","","","","","","","","",""
"","","","","","html-keyboard-response","95","609121","0.0-2.0-4.0-0.21","631de062917efffd355d4394","D2","batch4","spm_show_trial_num","null","<p class=block-text>Trial 46 out of 60</p>","null","","","","","","","","","","","","","","","","","","","","","","","","","",""
"","","","","","image-button-response","96","647686","0.0-2.0-4.0-1.21","631de062917efffd355d4394","D2","batch4","spm_respsonse","38557","img/question_4_10.jpeg","1","mat_46","2","1","1","38557","","","","","","","","","","","","","","","","","","","","",""
"","","","","","html-keyboard-response","97","648739","0.0-2.0-4.0-0.22","631de062917efffd355d4394","D2","batch4","spm_show_trial_num","null","<p class=block-text>Trial 47 out of 60</p>","null","","","","","","","","","","","","","","","","","","","","","","","","","",""
"","","","","","image-button-response","98","690030","0.0-2.0-4.0-1.22","631de062917efffd355d4394","D2","batch4","spm_respsonse","41281","img/question_4_11.jpeg","4","mat_47","5","1","1","41281","","","","","","","","","","","","","","","","","","","","",""
"","","","","","html-keyboard-response","99","691083","0.0-2.0-4.0-0.23","631de062917efffd355d4394","D2","batch4","spm_show_trial_num","null","<p class=block-text>Trial 48 out of 60</p>","null","","","","","","","","","","","","","","","","","","","","","","","","","",""
"","","","","","image-button-response","100","729033","0.0-2.0-4.0-1.23","631de062917efffd355d4394","D2","batch4","spm_respsonse","37941","img/question_4_12.jpeg","7","mat_48","6","0","0","37941","","","","","","","","","","","","","","","","","","","","",""
"","","","","","html-keyboard-response","101","730086","0.0-2.0-4.0-0.24","631de062917efffd355d4394","D2","batch4","spm_show_trial_num","null","<p class=block-text>Trial 49 out of 60</p>","null","","","","","","","","","","","","","","","","","","","","","","","","","",""
"","","","","","image-button-response","102","748867","0.0-2.0-4.0-1.24","631de062917efffd355d4394","D2","batch4","spm_respsonse","18770.000000000116","img/question_5_1.jpeg","6","mat_49","7","1","1","18770.000000000116","","","","","","","","","","","","","","","","","","","","",""
"","","","","","html-keyboard-response","103","749921","0.0-2.0-4.0-0.25","631de062917efffd355d4394","D2","batch4","spm_show_trial_num","null","<p class=block-text>Trial 50 out of 60</p>","null","","","","","","","","","","","","","","","","","","","","","","","","","",""
"","","","","","image-button-response","104","785128","0.0-2.0-4.0-1.25","631de062917efffd355d4394","D2","batch4","spm_respsonse","35198.00000000012","img/question_5_2.jpeg","5","mat_50","6","1","1","35198.00000000012","","","","","","","","","","","","","","","","","","","","",""
"","","","","","html-keyboard-response","105","786182","0.0-2.0-4.0-0.26","631de062917efffd355d4394","D2","batch4","spm_show_trial_num","null","<p class=block-text>Trial 51 out of 60</p>","null","","","","","","","","","","","","","","","","","","","","","","","","","",""
"","","","","","image-button-response","106","801215","0.0-2.0-4.0-1.26","631de062917efffd355d4394","D2","batch4","spm_respsonse","15025","img/question_5_3.jpeg","7","mat_51","8","1","1","15025","","","","","","","","","","","","","","","","","","","","",""
"","","","","","html-keyboard-response","107","802269","0.0-2.0-4.0-0.27","631de062917efffd355d4394","D2","batch4","spm_show_trial_num","null","<p class=block-text>Trial 52 out of 60</p>","null","","","","","","","","","","","","","","","","","","","","","","","","","",""
"","","","","","image-button-response","108","813050","0.0-2.0-4.0-1.27","631de062917efffd355d4394","D2","batch4","spm_respsonse","10774","img/question_5_4.jpeg","1","mat_52","2","1","1","10774","","","","","","","","","","","","","","","","","","","","",""
"","","","","","html-keyboard-response","109","814103","0.0-2.0-4.0-0.28","631de062917efffd355d4394","D2","batch4","spm_show_trial_num","null","<p class=block-text>Trial 53 out of 60</p>","null","","","","","","","","","","","","","","","","","","","","","","","","","",""
"","","","","","image-button-response","110","829616","0.0-2.0-4.0-1.28","631de062917efffd355d4394","D2","batch4","spm_respsonse","15502.999999999884","img/question_5_5.jpeg","0","mat_53","1","1","1","15502.999999999884","","","","","","","","","","","","","","","","","","","","",""
"","","","","","html-keyboard-response","111","830669","0.0-2.0-4.0-0.29","631de062917efffd355d4394","D2","batch4","spm_show_trial_num","null","<p class=block-text>Trial 54 out of 60</p>","null","","","","","","","","","","","","","","","","","","","","","","","","","",""
"","","","","","image-button-response","112","862932","0.0-2.0-4.0-1.29","631de062917efffd355d4394","D2","batch4","spm_respsonse","32258","img/question_5_6.jpeg","3","mat_54","5","0","0","32258","","","","","","","","","","","","","","","","","","","","",""
"","","","","","html-keyboard-response","113","863986","0.0-2.0-4.0-0.30","631de062917efffd355d4394","D2","batch4","spm_show_trial_num","null","<p class=block-text>Trial 55 out of 60</p>","null","","","","","","","","","","","","","","","","","","","","","","","","","",""
"","","","","","image-button-response","114","891241","0.0-2.0-4.0-1.30","631de062917efffd355d4394","D2","batch4","spm_respsonse","27050.999999999884","img/question_5_7.jpeg","4","mat_55","1","0","0","27050.999999999884","","","","","","","","","","","","","","","","","","","","",""
"","","","","","html-keyboard-response","115","892296","0.0-2.0-4.0-0.31","631de062917efffd355d4394","D2","batch4","spm_show_trial_num","null","<p class=block-text>Trial 56 out of 60</p>","null","","","","","","","","","","","","","","","","","","","","","","","","","",""
"","","","","","image-button-response","116","909608","0.0-2.0-4.0-1.31","631de062917efffd355d4394","D2","batch4","spm_respsonse","17302","img/question_5_8.jpeg","5","mat_56","6","1","1","17302","","","","","","","","","","","","","","","","","","","","",""
"","","","","","html-keyboard-response","117","910662","0.0-2.0-4.0-0.32","631de062917efffd355d4394","D2","batch4","spm_show_trial_num","null","<p class=block-text>Trial 57 out of 60</p>","null","","","","","","","","","","","","","","","","","","","","","","","","","",""
"","","","","","image-button-response","118","927529","0.0-2.0-4.0-1.32","631de062917efffd355d4394","D2","batch4","spm_respsonse","16856","img/question_5_9.jpeg","2","mat_57","3","1","1","16856","","","","","","","","","","","","","","","","","","","","",""
"","","","","","html-keyboard-response","119","928583","0.0-2.0-4.0-0.33","631de062917efffd355d4394","D2","batch4","spm_show_trial_num","null","<p class=block-text>Trial 58 out of 60</p>","null","","","","","","","","","","","","","","","","","","","","","","","","","",""
"","","","","","image-button-response","120","967908","0.0-2.0-4.0-1.33","631de062917efffd355d4394","D2","batch4","spm_respsonse","39315","img/question_5_10.jpeg","3","mat_58","2","0","0","39315","","","","","","","","","","","","","","","","","","","","",""
"","","","","","html-keyboard-response","121","968961","0.0-2.0-4.0-0.34","631de062917efffd355d4394","D2","batch4","spm_show_trial_num","null","<p class=block-text>Trial 59 out of 60</p>","null","","","","","","","","","","","","","","","","","","","","","","","","","",""
"","","","","","image-button-response","122","1010942","0.0-2.0-4.0-1.34","631de062917efffd355d4394","D2","batch4","spm_respsonse","41972","img/question_5_11.jpeg","2","mat_59","4","0","0","41972","","","","","","","","","","","","","","","","","","","","",""
"","","","","","html-keyboard-response","123","1011995","0.0-2.0-4.0-0.35","631de062917efffd355d4394","D2","batch4","spm_show_trial_num","null","<p class=block-text>Trial 60 out of 60</p>","null","","","","","","","","","","","","","","","","","","","","","","","","","",""
"","","","","","image-button-response","124","1050226","0.0-2.0-4.0-1.35","631de062917efffd355d4394","D2","batch4","spm_respsonse","38226","img/question_5_12.jpeg","0","mat_60","5","0","0","38226","","","","","","","","","","","","","","","","","","","","",""
"","","","","","html-button-response","125","1053456","0.0-2.0-5.0","631de062917efffd355d4394","D2","batch4","spm_goodbye","2977","<p class= block-text>This concludes the Standard Progressive Matrix game. Thank you for your responses!<br> When you are ready, click the button continue</p>","0","","","","","","","","","","","","","","","","","","","","","","","","","",""
"true","","","","","fullscreen","126","1057311","0.0-3.0-0.0","631de062917efffd355d4394","D2","batch4","","","","","","","","","","","","","","","","","","","","","","","","","","","","","",""
"","","","","","instructions","127","1072391","0.0-3.0-1.0-0.0","631de062917efffd355d4394","D2","batch4","","15079","","","","","","","","[{""page_index"":0,""viewing_time"":9545},{""page_index"":1,""viewing_time"":5533}]","","","","","","","","","","","","","","","","","","","",""
"","","","","","html-button-response","128","1073573","0.0-3.0-1.0-1.0-0.0","631de062917efffd355d4394","D2","batch4","pattern_enter_quiz","1181","<p class=block-text> Let's answer a few questions <br>","0","","","","","","","","","","","","","","","","","","","","","","","","","",""
"","","","","","html-button-response","129","1077090","0.0-3.0-1.0-1.0-1.0","631de062917efffd355d4394","D2","batch4","pattern_quiz","3515","<p class = block-text>True or False: You will have as much time as you want to make each choice. <br></p>","1","","","true","","","","","","","","","","","","","","","","","","","","","","",""
"","","","","","html-button-response","130","1078857","0.0-3.0-1.0-1.0-2.0","631de062917efffd355d4394","D2","batch4","pattern_quiz_feedback","1765","<p class = block-text>Correct! You should make your choice <strong> as fast as you can</strong>.</p>","0","","","","","","","","","","","","","","","","","","","","","","","","","",""
"","","","","","html-button-response","131","1084257","0.0-3.0-1.0-1.0-3.0","631de062917efffd355d4394","D2","batch4","pattern_quiz","5398","<p class = block-text>True or False: You will look for 4 pieces in black or white color connected in a row either horizontally, vertically or diagonally. <br></p>","0","","","true","","","","","","","","","","","","","","","","","","","","","","",""
"","","","","","html-button-response","132","1085207","0.0-3.0-1.0-1.0-4.0","631de062917efffd355d4394","D2","batch4","pattern_quiz_feedback","950","<p class = block-text>Correct! </p>","0","","","","","","","","","","","","","","","","","","","","","","","","","",""
"","","","","","html-button-response","133","1086790","0.0-3.0-2.0","631de062917efffd355d4394","D2","batch4","pattern_enter_practice","1581.0000000002328","<p class=block-text> Now that you've understood the game, let's do a few practice trials before we start!<br> <br>","0","","","","","","","","","","","","","","","","","","","","","","","","","",""
"","","","","","image-keyboard-response","134","1092259","0.0-3.0-3.0-0.0","631de062917efffd355d4394","D2","batch4","pattern_practice","5454","stim/prac_no_16_1.png","j","","j","true","","","","","","","","","","","","","","","","","","","","","","",""
"","","","","","html-keyboard-response","135","1093262","0.0-3.0-3.0-1.0","631de062917efffd355d4394","D2","batch4","pattern_feedback","null","<p style=""font-size:30px;color:green;"">Correct!</p>","null","","","","","","","","","","","","","","","","","","","","","","","","","",""
"","","","","","image-keyboard-response","136","1094485","0.0-3.0-3.0-0.1","631de062917efffd355d4394","D2","batch4","pattern_practice","1211","stim/prac_yes_20_dia_b1.png","f","","f","true","","","","","","","","","","","","","","","","","","","","","","",""
"","","","","","html-keyboard-response","137","1095489","0.0-3.0-3.0-1.1","631de062917efffd355d4394","D2","batch4","pattern_feedback","null","<p style=""font-size:30px;color:green;"">Correct!</p>","null","","","","","","","","","","","","","","","","","","","","","","","","","",""
"","","","","","image-keyboard-response","138","1096542","0.0-3.0-3.0-0.2","631de062917efffd355d4394","D2","batch4","pattern_practice","1040","stim/prac_yes_18_hor_w1.png","f","","f","true","","","","","","","","","","","","","","","","","","","","","","",""
"","","","","","html-keyboard-response","139","1097544","0.0-3.0-3.0-1.2","631de062917efffd355d4394","D2","batch4","pattern_feedback","null","<p style=""font-size:30px;color:green;"">Correct!</p>","null","","","","","","","","","","","","","","","","","","","","","","","","","",""
"","","","","","image-keyboard-response","140","1098449","0.0-3.0-3.0-0.3","631de062917efffd355d4394","D2","batch4","pattern_practice","892","stim/prac_no_18_1.png","j","","j","true","","","","","","","","","","","","","","","","","","","","","","",""
"","","","","","html-keyboard-response","141","1099453","0.0-3.0-3.0-1.3","631de062917efffd355d4394","D2","batch4","pattern_feedback","null","<p style=""font-size:30px;color:green;"">Correct!</p>","null","","","","","","","","","","","","","","","","","","","","","","","","","",""
"","","","","","image-keyboard-response","142","1100175","0.0-3.0-3.0-0.4","631de062917efffd355d4394","D2","batch4","pattern_practice","709","stim/prac_yes_16_ver_w1.png","f","","f","true","","","","","","","","","","","","","","","","","","","","","","",""
"","","","","","html-keyboard-response","143","1101179","0.0-3.0-3.0-1.4","631de062917efffd355d4394","D2","batch4","pattern_feedback","null","<p style=""font-size:30px;color:green;"">Correct!</p>","null","","","","","","","","","","","","","","","","","","","","","","","","","",""
"","","","","","html-button-response","144","1106056","0.0-3.0-4.0","631de062917efffd355d4394","D2","batch4","pattern_enter_official_trials","4875","<p class=block-text> Good job! You are done with practice trials!<br>
        You responded correctly on 100% of the trials.<br>
        Press the button below to start official trials. Now you won't see any feedback about your response</p>","0","","","","","","","","","","","","","","","","","","","","","","","","","",""
"","","","","","html-keyboard-response","145","1106859","0.0-3.0-5.0-0.0","631de062917efffd355d4394","D2","batch4","pattern_show_trial_num","null","<p class=block-text>Trial 1 out of 78</p>","null","","","","","","","","","","","","","","","","","","","","","","","","","",""
"","","","","","image-keyboard-response","146","1111638","0.0-3.0-5.0-1.0","631de062917efffd355d4394","D2","batch4","pattern_response","4763","stim/no_51_1.png","j","pattern_31","j","true","","","","4763","true","1","","","","","","","","","","","","","","","","",""
"","","","","","html-keyboard-response","147","1112941","0.0-3.0-5.0-0.1","631de062917efffd355d4394","D2","batch4","pattern_show_trial_num","null","<p class=block-text>Trial 2 out of 78</p>","null","","","","","","","","","","","","","","","","","","","","","","","","","",""
"","","","","","image-keyboard-response","148","1115462","0.0-3.0-5.0-1.1","631de062917efffd355d4394","D2","batch4","pattern_response","2508","stim/no_22_1_b.png","j","pattern_07","j","true","","","","2508","true","2","","","","","","","","","","","","","","","","",""
"","","","","","html-keyboard-response","149","1116765","0.0-3.0-5.0-0.2","631de062917efffd355d4394","D2","batch4","pattern_show_trial_num","null","<p class=block-text>Trial 3 out of 78</p>","null","","","","","","","","","","","","","","","","","","","","","","","","","",""
"","","","","","image-keyboard-response","150","1119768","0.0-3.0-5.0-1.2","631de062917efffd355d4394","D2","batch4","pattern_response","2988","stim/no_49_2_b.png","j","pattern_29","j","true","","","","2988","true","3","","","","","","","","","","","","","","","","",""
"","","","","","html-keyboard-response","151","1121070","0.0-3.0-5.0-0.3","631de062917efffd355d4394","D2","batch4","pattern_show_trial_num","null","<p class=block-text>Trial 4 out of 78</p>","null","","","","","","","","","","","","","","","","","","","","","","","","","",""
"","","","","","image-keyboard-response","152","1125976","0.0-3.0-5.0-1.3","631de062917efffd355d4394","D2","batch4","pattern_response","4892","stim/no_47_1_b.png","j","pattern_27","j","true","","","","4892","true","4","","","","","","","","","","","","","","","","",""
"","","","","","html-keyboard-response","153","1127278","0.0-3.0-5.0-0.4","631de062917efffd355d4394","D2","batch4","pattern_show_trial_num","null","<p class=block-text>Trial 5 out of 78</p>","null","","","","","","","","","","","","","","","","","","","","","","","","","",""
"","","","","","image-keyboard-response","154","1128310","0.0-3.0-5.0-1.4","631de062917efffd355d4394","D2","batch4","pattern_response","1022.9999999997672","stim/yes_30_ver_b1_b.png","f","pattern_54","f","true","","","","1022.9999999997672","true","5","","","","","","","","","","","","","","","","",""
"","","","","","html-keyboard-response","155","1129613","0.0-3.0-5.0-0.5","631de062917efffd355d4394","D2","batch4","pattern_show_trial_num","null","<p class=block-text>Trial 6 out of 78</p>","null","","","","","","","","","","","","","","","","","","","","","","","","","",""
"","","","","","image-keyboard-response","156","1130845","0.0-3.0-5.0-1.5","631de062917efffd355d4394","D2","batch4","pattern_response","1219.0000000002328","stim/yes_37_hor_w1_w.png","f","pattern_60","f","true","","","","1219.0000000002328","true","6","","","","","","","","","","","","","","","","",""
"","","","","","html-keyboard-response","157","1132149","0.0-3.0-5.0-0.6","631de062917efffd355d4394","D2","batch4","pattern_show_trial_num","null","<p class=block-text>Trial 7 out of 78</p>","null","","","","","","","","","","","","","","","","","","","","","","","","","",""
"","","","","","image-keyboard-response","158","1134385","0.0-3.0-5.0-1.6","631de062917efffd355d4394","D2","batch4","pattern_response","2221","stim/no_28_2.png","j","pattern_11","j","true","","","","2221","true","7","","","","","","","","","","","","","","","","",""
"","","","","","html-keyboard-response","159","1135687","0.0-3.0-5.0-0.7","631de062917efffd355d4394","D2","batch4","pattern_show_trial_num","null","<p class=block-text>Trial 8 out of 78</p>","null","","","","","","","","","","","","","","","","","","","","","","","","","",""
"","","","","","image-keyboard-response","160","1136771","0.0-3.0-5.0-1.7","631de062917efffd355d4394","D2","batch4","pattern_response","1069.9999999997672","stim/yes_36_ver_w1_w.png","f","pattern_58","f","true","","","","1069.9999999997672","true","8","","","","","","","","","","","","","","","","",""
"","","","","","html-keyboard-response","161","1138075","0.0-3.0-5.0-0.8","631de062917efffd355d4394","D2","batch4","pattern_show_trial_num","null","<p class=block-text>Trial 9 out of 78</p>","null","","","","","","","","","","","","","","","","","","","","","","","","","",""
"","","","","","image-keyboard-response","162","1143046","0.0-3.0-5.0-1.8","631de062917efffd355d4394","D2","batch4","pattern_response","4956","stim/yes_58_dia_w1_w.png","f","pattern_76","f","true","","","","4956","true","9","","","","","","","","","","","","","","","","",""
"","","","","","html-keyboard-response","163","1144349","0.0-3.0-5.0-0.9","631de062917efffd355d4394","D2","batch4","pattern_show_trial_num","null","<p class=block-text>Trial 10 out of 78</p>","null","","","","","","","","","","","","","","","","","","","","","","","","","",""
"","","","","","image-keyboard-response","164","1154394","0.0-3.0-5.0-1.9","631de062917efffd355d4394","D2","batch4","pattern_response","10032","stim/no_53_1_b.png","j","pattern_33","j","true","","","","10032","true","10","","","","","","","","","","","","","","","","",""
"","","","","","html-keyboard-response","165","1155697","0.0-3.0-5.0-0.10","631de062917efffd355d4394","D2","batch4","pattern_show_trial_num","null","<p class=block-text>Trial 11 out of 78</p>","null","","","","","","","","","","","","","","","","","","","","","","","","","",""
"","","","","","image-keyboard-response","166","1156655","0.0-3.0-5.0-1.10","631de062917efffd355d4394","D2","batch4","pattern_response","943","stim/yes_46_ver_b1_b.png","f","pattern_68","f","true","","","","943","true","11","","","","","","","","","","","","","","","","",""
"","","","","","html-keyboard-response","167","1157958","0.0-3.0-5.0-0.11","631de062917efffd355d4394","D2","batch4","pattern_show_trial_num","null","<p class=block-text>Trial 12 out of 78</p>","null","","","","","","","","","","","","","","","","","","","","","","","","","",""
"","","","","","image-keyboard-response","168","1161802","0.0-3.0-5.0-1.11","631de062917efffd355d4394","D2","batch4","pattern_response","3828","stim/no_43_2_b.png","j","pattern_23","j","true","","","","3828","true","12","","","","","","","","","","","","","","","","",""
"","","","","","html-keyboard-response","169","1163103","0.0-3.0-5.0-0.12","631de062917efffd355d4394","D2","batch4","pattern_show_trial_num","null","<p class=block-text>Trial 13 out of 78</p>","null","","","","","","","","","","","","","","","","","","","","","","","","","",""
"","","","","","image-keyboard-response","170","1168040","0.0-3.0-5.0-1.12","631de062917efffd355d4394","D2","batch4","pattern_response","4923","stim/no_39_1_w.png","j","pattern_21","j","true","","","","4923","true","13","","","","","","","","","","","","","","","","",""
"","","","","","html-keyboard-response","171","1169342","0.0-3.0-5.0-0.13","631de062917efffd355d4394","D2","batch4","pattern_show_trial_num","null","<p class=block-text>Trial 14 out of 78</p>","null","","","","","","","","","","","","","","","","","","","","","","","","","",""
"","","","","","image-keyboard-response","172","1170220","0.0-3.0-5.0-1.13","631de062917efffd355d4394","D2","batch4","pattern_response","863","stim/yes_49_hor_w1_b.png","f","pattern_70","f","true","","","","863","true","14","","","","","","","","","","","","","","","","",""
"","","","","","html-keyboard-response","173","1171522","0.0-3.0-5.0-0.14","631de062917efffd355d4394","D2","batch4","pattern_show_trial_num","null","<p class=block-text>Trial 15 out of 78</p>","null","","","","","","","","","","","","","","","","","","","","","","","","","",""
"","","","","","image-keyboard-response","174","1175502","0.0-3.0-5.0-1.14","631de062917efffd355d4394","D2","batch4","pattern_response","3963","stim/no_33_1_b.png","j","pattern_15","j","true","","","","3963","true","15","","","","","","","","","","","","","","","","",""
"","","","","","html-keyboard-response","175","1176806","0.0-3.0-5.0-0.15","631de062917efffd355d4394","D2","batch4","pattern_show_trial_num","null","<p class=block-text>Trial 16 out of 78</p>","null","","","","","","","","","","","","","","","","","","","","","","","","","",""
"","","","","","image-keyboard-response","176","1179576","0.0-3.0-5.0-1.15","631de062917efffd355d4394","D2","batch4","pattern_response","2754","stim/yes_51_dia_b1.png","f","pattern_72","f","true","","","","2754","true","16","","","","","","","","","","","","","","","","",""
"","","","","","html-keyboard-response","177","1180880","0.0-3.0-5.0-0.16","631de062917efffd355d4394","D2","batch4","pattern_show_trial_num","null","<p class=block-text>Trial 17 out of 78</p>","null","","","","","","","","","","","","","","","","","","","","","","","","","",""
"","","","","","image-keyboard-response","178","1181663","0.0-3.0-5.0-1.16","631de062917efffd355d4394","D2","batch4","pattern_response","768","stim/yes_12_hor_w1_w.png","f","pattern_42","f","true","","","","768","true","17","","","","","","","","","","","","","","","","",""
"","","","","","html-keyboard-response","179","1182966","0.0-3.0-5.0-0.17","631de062917efffd355d4394","D2","batch4","pattern_show_trial_num","null","<p class=block-text>Trial 18 out of 78</p>","null","","","","","","","","","","","","","","","","","","","","","","","","","",""
"","","","","","image-keyboard-response","180","1183978","0.0-3.0-5.0-1.17","631de062917efffd355d4394","D2","batch4","pattern_response","998","stim/yes_23_ver_b1.png","f","pattern_48","f","true","","","","998","true","18","","","","","","","","","","","","","","","","",""
"","","","","","html-keyboard-response","181","1185281","0.0-3.0-5.0-0.18","631de062917efffd355d4394","D2","batch4","pattern_show_trial_num","null","<p class=block-text>Trial 19 out of 78</p>","null","","","","","","","","","","","","","","","","","","","","","","","","","",""
"","","","","","image-keyboard-response","182","1188534","0.0-3.0-5.0-1.18","631de062917efffd355d4394","D2","batch4","pattern_response","3238.999999999767","stim/no_37_2_w.png","j","pattern_19","j","true","","","","3238.999999999767","true","19","","","","","","","","","","","","","","","","",""
"","","","","","html-keyboard-response","183","1189838","0.0-3.0-5.0-0.19","631de062917efffd355d4394","D2","batch4","pattern_show_trial_num","null","<p class=block-text>Trial 20 out of 78</p>","null","","","","","","","","","","","","","","","","","","","","","","","","","",""
"","","","","","image-keyboard-response","184","1195389","0.0-3.0-5.0-1.19","631de062917efffd355d4394","D2","batch4","pattern_response","5537","stim/no_58_1_w.png","j","pattern_35","j","true","","","","5537","true","20","","","","","","","","","","","","","","","","",""
"","","","","","html-keyboard-response","185","1196692","0.0-3.0-5.0-0.20","631de062917efffd355d4394","D2","batch4","pattern_show_trial_num","null","<p class=block-text>Trial 21 out of 78</p>","null","","","","","","","","","","","","","","","","","","","","","","","","","",""
"","","","","","image-keyboard-response","186","1198124","0.0-3.0-5.0-1.20","631de062917efffd355d4394","D2","batch4","pattern_response","1418","stim/yes_39_hor_w1_w.png","f","pattern_62","f","true","","","","1418","true","21","","","","","","","","","","","","","","","","",""
"","","","","","html-keyboard-response","187","1199426","0.0-3.0-5.0-0.21","631de062917efffd355d4394","D2","batch4","pattern_show_trial_num","null","<p class=block-text>Trial 22 out of 78</p>","null","","","","","","","","","","","","","","","","","","","","","","","","","",""
"","","","","","image-keyboard-response","188","1200635","0.0-3.0-5.0-1.21","631de062917efffd355d4394","D2","batch4","pattern_response","1196","stim/yes_53_ver_b1_b.png","f","pattern_74","f","true","","","","1196","true","22","","","","","","","","","","","","","","","","",""
"","","","","","html-keyboard-response","189","1201938","0.0-3.0-5.0-0.22","631de062917efffd355d4394","D2","batch4","pattern_show_trial_num","null","<p class=block-text>Trial 23 out of 78</p>","null","","","","","","","","","","","","","","","","","","","","","","","","","",""
"","","","","","image-keyboard-response","190","1202569","0.0-3.0-5.0-1.22","631de062917efffd355d4394","D2","batch4","pattern_response","617","stim/yes_29_hor_b1_b.png","f","pattern_52","f","true","","","","617","true","23","","","","","","","","","","","","","","","","",""
"","","","","","html-keyboard-response","191","1203872","0.0-3.0-5.0-0.23","631de062917efffd355d4394","D2","batch4","pattern_show_trial_num","null","<p class=block-text>Trial 24 out of 78</p>","null","","","","","","","","","","","","","","","","","","","","","","","","","",""
"","","","","","image-keyboard-response","192","1207460","0.0-3.0-5.0-1.23","631de062917efffd355d4394","D2","batch4","pattern_response","3573","stim/no_30_1_b.png","j","pattern_13","j","true","","","","3573","true","24","","","","","","","","","","","","","","","","",""
"","","","","","html-keyboard-response","193","1208763","0.0-3.0-5.0-0.24","631de062917efffd355d4394","D2","batch4","pattern_show_trial_num","null","<p class=block-text>Trial 25 out of 78</p>","null","","","","","","","","","","","","","","","","","","","","","","","","","",""
"","","","","","image-keyboard-response","194","1210366","0.0-3.0-5.0-1.24","631de062917efffd355d4394","D2","batch4","pattern_response","1587","stim/no_18_1_b.png","j","pattern_05","j","true","","","","1587","true","25","","","","","","","","","","","","","","","","",""
"","","","","","html-keyboard-response","195","1211670","0.0-3.0-5.0-0.25","631de062917efffd355d4394","D2","batch4","pattern_show_trial_num","null","<p class=block-text>Trial 26 out of 78</p>","null","","","","","","","","","","","","","","","","","","","","","","","","","",""
"","","","","","image-keyboard-response","196","1212318","0.0-3.0-5.0-1.25","631de062917efffd355d4394","D2","batch4","pattern_response","637","stim/yes_70_ver_b1.png","f","pattern_80","f","true","","","","637","true","26","","","","","","","","","","","","","","","","",""
"","","","","","html-keyboard-response","197","1213622","0.0-3.0-5.0-0.26","631de062917efffd355d4394","D2","batch4","pattern_show_trial_num","null","<p class=block-text>Trial 27 out of 78</p>","null","","","","","","","","","","","","","","","","","","","","","","","","","",""
"","","","","","image-keyboard-response","198","1214278","0.0-3.0-5.0-1.26","631de062917efffd355d4394","D2","batch4","pattern_response","643","stim/yes_15_dia_b1u_b.png","f","pattern_44","f","true","","","","643","true","27","","","","","","","","","","","","","","","","",""
"","","","","","html-keyboard-response","199","1215582","0.0-3.0-5.0-0.27","631de062917efffd355d4394","D2","batch4","pattern_show_trial_num","null","<p class=block-text>Trial 28 out of 78</p>","null","","","","","","","","","","","","","","","","","","","","","","","","","",""
"","","","","","image-keyboard-response","200","1216705","0.0-3.0-5.0-1.27","631de062917efffd355d4394","D2","batch4","pattern_response","1110","stim/no_12_1.png","j","pattern_01","j","true","","","","1110","true","28","","","","","","","","","","","","","","","","",""
"","","","","","html-keyboard-response","201","1218009","0.0-3.0-5.0-0.28","631de062917efffd355d4394","D2","batch4","pattern_show_trial_num","null","<p class=block-text>Trial 29 out of 78</p>","null","","","","","","","","","","","","","","","","","","","","","","","","","",""
"","","","","","image-keyboard-response","202","1218618","0.0-3.0-5.0-1.28","631de062917efffd355d4394","D2","batch4","pattern_response","595","stim/yes_17_ver_b1_b.png","f","pattern_46","f","true","","","","595","true","29","","","","","","","","","","","","","","","","",""
"","","","","","html-keyboard-response","203","1219921","0.0-3.0-5.0-0.29","631de062917efffd355d4394","D2","batch4","pattern_show_trial_num","null","<p class=block-text>Trial 30 out of 78</p>","null","","","","","","","","","","","","","","","","","","","","","","","","","",""
"","","","","","image-keyboard-response","204","1226362","0.0-3.0-5.0-1.29","631de062917efffd355d4394","D2","batch4","pattern_response","6427","stim/no_67_1.png","j","pattern_39","j","true","","","","6427","true","30","","","","","","","","","","","","","","","","",""
"","","","","","html-keyboard-response","205","1227665","0.0-3.0-5.0-0.30","631de062917efffd355d4394","D2","batch4","pattern_show_trial_num","null","<p class=block-text>Trial 31 out of 78</p>","null","","","","","","","","","","","","","","","","","","","","","","","","","",""
"","","","","","image-keyboard-response","206","1230472","0.0-3.0-5.0-1.30","631de062917efffd355d4394","D2","batch4","pattern_response","2792","stim/no_25_1_b.png","j","pattern_09","j","true","","","","2792","true","31","","","","","","","","","","","","","","","","",""
"","","","","","html-keyboard-response","207","1231774","0.0-3.0-5.0-0.31","631de062917efffd355d4394","D2","batch4","pattern_show_trial_num","null","<p class=block-text>Trial 32 out of 78</p>","null","","","","","","","","","","","","","","","","","","","","","","","","","",""
"","","","","","image-keyboard-response","208","1232757","0.0-3.0-5.0-1.31","631de062917efffd355d4394","D2","batch4","pattern_response","967","stim/no_15_1_w.png","j","pattern_03","j","true","","","","967","true","32","","","","","","","","","","","","","","","","",""
"","","","","","html-keyboard-response","209","1234061","0.0-3.0-5.0-0.32","631de062917efffd355d4394","D2","batch4","pattern_show_trial_num","null","<p class=block-text>Trial 33 out of 78</p>","null","","","","","","","","","","","","","","","","","","","","","","","","","",""
"","","","","","image-keyboard-response","210","1240218","0.0-3.0-5.0-1.32","631de062917efffd355d4394","D2","batch4","pattern_response","6144","stim/no_45_1_w.png","j","pattern_25","j","true","","","","6144","true","33","","","","","","","","","","","","","","","","",""
"","","","","","html-keyboard-response","211","1241522","0.0-3.0-5.0-0.33","631de062917efffd355d4394","D2","batch4","pattern_show_trial_num","null","<p class=block-text>Trial 34 out of 78</p>","null","","","","","","","","","","","","","","","","","","","","","","","","","",""
"","","","","","image-keyboard-response","212","1244530","0.0-3.0-5.0-1.33","631de062917efffd355d4394","D2","batch4","pattern_response","2993","stim/yes_63_dia_b1.png","f","pattern_78","f","true","","","","2993","true","34","","","","","","","","","","","","","","","","",""
"","","","","","html-keyboard-response","213","1245833","0.0-3.0-5.0-0.34","631de062917efffd355d4394","D2","batch4","pattern_show_trial_num","null","<p class=block-text>Trial 35 out of 78</p>","null","","","","","","","","","","","","","","","","","","","","","","","","","",""
"","","","","","image-keyboard-response","214","1246648","0.0-3.0-5.0-1.34","631de062917efffd355d4394","D2","batch4","pattern_response","800","stim/yes_26_dia_w2_w.png","f","pattern_50","f","true","","","","800","true","35","","","","","","","","","","","","","","","","",""
"","","","","","html-keyboard-response","215","1247951","0.0-3.0-5.0-0.35","631de062917efffd355d4394","D2","batch4","pattern_show_trial_num","null","<p class=block-text>Trial 36 out of 78</p>","null","","","","","","","","","","","","","","","","","","","","","","","","","",""
"","","","","","image-keyboard-response","216","1249135","0.0-3.0-5.0-1.35","631de062917efffd355d4394","D2","batch4","pattern_response","1169","stim/yes_33_dia_w1_w.png","f","pattern_56","f","true","","","","1169","true","36","","","","","","","","","","","","","","","","",""
"","","","","","html-keyboard-response","217","1250438","0.0-3.0-5.0-0.36","631de062917efffd355d4394","D2","batch4","pattern_show_trial_num","null","<p class=block-text>Trial 37 out of 78</p>","null","","","","","","","","","","","","","","","","","","","","","","","","","",""
"","","","","","image-keyboard-response","218","1251704","0.0-3.0-5.0-1.36","631de062917efffd355d4394","D2","batch4","pattern_response","1249","stim/yes_42_dia_w1_w.png","f","pattern_64","f","true","","","","1249","true","37","","","","","","","","","","","","","","","","",""
"","","","","","html-keyboard-response","219","1253008","0.0-3.0-5.0-0.37","631de062917efffd355d4394","D2","batch4","pattern_show_trial_num","null","<p class=block-text>Trial 38 out of 78</p>","null","","","","","","","","","","","","","","","","","","","","","","","","","",""
"","","","","","image-keyboard-response","220","1254239","0.0-3.0-5.0-1.37","631de062917efffd355d4394","D2","batch4","pattern_response","1215.9999999997672","stim/yes_44_ver_w1_w.png","f","pattern_66","f","true","","","","1215.9999999997672","true","38","","","","","","","","","","","","","","","","",""
"","","","","","html-keyboard-response","221","1255543","0.0-3.0-5.0-0.38","631de062917efffd355d4394","D2","batch4","pattern_show_trial_num","null","<p class=block-text>Trial 39 out of 78</p>","null","","","","","","","","","","","","","","","","","","","","","","","","","",""
"","","","","","image-keyboard-response","222","1258833","0.0-3.0-5.0-1.38","631de062917efffd355d4394","D2","batch4","pattern_response","3276","stim/no_36_1_b.png","j","pattern_17","j","true","","","","3276","true","39","","","","","","","","","","","","","","","","",""
"","","","","","image-keyboard-response","223","1261505","0.0-3.0-6.0","631de062917efffd355d4394","D2","batch4","attention_check","2160","stim/empty_board.png","j","","j","true","","","","","","","500","[""f"",""j""]","","","","","","","","","","","","","","",""
"","","","","","html-keyboard-response","224","1262307","0.0-3.0-7.0-0.0","631de062917efffd355d4394","D2","batch4","pattern_show_trial_num","null","<p class=block-text>Trial 40 out of 78</p>","null","","","","","","","","","","","","","","","","","","","","","","","","","",""
"","","","","","image-keyboard-response","225","1263535","0.0-3.0-7.0-1.0","631de062917efffd355d4394","D2","batch4","pattern_response","1215","stim/yes_43_ver_w1_w.png","f","pattern_65","f","true","","","","1215","true","40","","","","","","","","","","","","","","","","",""
"","","","","","html-keyboard-response","226","1264838","0.0-3.0-7.0-0.1","631de062917efffd355d4394","D2","batch4","pattern_show_trial_num","null","<p class=block-text>Trial 41 out of 78</p>","null","","","","","","","","","","","","","","","","","","","","","","","","","",""
"","","","","","image-keyboard-response","227","1272160","0.0-3.0-7.0-1.1","631de062917efffd355d4394","D2","batch4","pattern_response","7308","stim/no_55_1_w.png","j","pattern_34","j","true","","","","7308","true","41","","","","","","","","","","","","","","","","",""
"","","","","","html-keyboard-response","228","1273465","0.0-3.0-7.0-0.2","631de062917efffd355d4394","D2","batch4","pattern_show_trial_num","null","<p class=block-text>Trial 42 out of 78</p>","null","","","","","","","","","","","","","","","","","","","","","","","","","",""
"","","","","","image-keyboard-response","229","1281707","0.0-3.0-7.0-1.2","631de062917efffd355d4394","D2","batch4","pattern_response","8227","stim/no_70_2.png","j","pattern_40","j","true","","","","8227","true","42","","","","","","","","","","","","","","","","",""
"","","","","","html-keyboard-response","230","1283010","0.0-3.0-7.0-0.3","631de062917efffd355d4394","D2","batch4","pattern_show_trial_num","null","<p class=block-text>Trial 43 out of 78</p>","null","","","","","","","","","","","","","","","","","","","","","","","","","",""
"","","","","","image-keyboard-response","231","1283959","0.0-3.0-7.0-1.3","631de062917efffd355d4394","D2","batch4","pattern_response","936","stim/yes_22_ver_w1.png","f","pattern_47","f","true","","","","936","true","43","","","","","","","","","","","","","","","","",""
"","","","","","html-keyboard-response","232","1285262","0.0-3.0-7.0-0.4","631de062917efffd355d4394","D2","batch4","pattern_show_trial_num","null","<p class=block-text>Trial 44 out of 78</p>","null","","","","","","","","","","","","","","","","","","","","","","","","","",""
"","","","","","image-keyboard-response","233","1286664","0.0-3.0-7.0-1.4","631de062917efffd355d4394","D2","batch4","pattern_response","1387","stim/no_26_1_w.png","j","pattern_10","j","true","","","","1387","true","44","","","","","","","","","","","","","","","","",""
"","","","","","html-keyboard-response","234","1287967","0.0-3.0-7.0-0.5","631de062917efffd355d4394","D2","batch4","pattern_show_trial_num","null","<p class=block-text>Trial 45 out of 78</p>","null","","","","","","","","","","","","","","","","","","","","","","","","","",""
"","","","","","image-keyboard-response","235","1292274","0.0-3.0-7.0-1.5","631de062917efffd355d4394","D2","batch4","pattern_response","4290.999999999767","stim/no_38_1_b.png","j","pattern_20","j","true","","","","4290.999999999767","true","45","","","","","","","","","","","","","","","","",""
"","","","","","html-keyboard-response","236","1293577","0.0-3.0-7.0-0.6","631de062917efffd355d4394","D2","batch4","pattern_show_trial_num","null","<p class=block-text>Trial 46 out of 78</p>","null","","","","","","","","","","","","","","","","","","","","","","","","","",""
"","","","","","image-keyboard-response","237","1294279","0.0-3.0-7.0-1.6","631de062917efffd355d4394","D2","batch4","pattern_response","688","stim/yes_14_hor_b1_w.png","f","pattern_43","f","true","","","","688","true","46","","","","","","","","","","","","","","","","",""
"","","","","","html-keyboard-response","238","1295581","0.0-3.0-7.0-0.7","631de062917efffd355d4394","D2","batch4","pattern_show_trial_num","null","<p class=block-text>Trial 47 out of 78</p>","null","","","","","","","","","","","","","","","","","","","","","","","","","",""
"","","","","","image-keyboard-response","239","1307545","0.0-3.0-7.0-1.7","631de062917efffd355d4394","D2","batch4","pattern_response","11956.999999999767","stim/no_65_1_b.png","j","pattern_38","j","true","","","","11956.999999999767","true","47","","","","","","","","","","","","","","","","",""
"","","","","","html-keyboard-response","240","1308849","0.0-3.0-7.0-0.8","631de062917efffd355d4394","D2","batch4","pattern_show_trial_num","null","<p class=block-text>Trial 48 out of 78</p>","null","","","","","","","","","","","","","","","","","","","","","","","","","",""
"","","","","","image-keyboard-response","241","1310412","0.0-3.0-7.0-1.8","631de062917efffd355d4394","D2","batch4","pattern_response","1549","stim/no_23_1.png","j","pattern_08","j","true","","","","1549","true","48","","","","","","","","","","","","","","","","",""
"","","","","","html-keyboard-response","242","1311715","0.0-3.0-7.0-0.9","631de062917efffd355d4394","D2","batch4","pattern_show_trial_num","null","<p class=block-text>Trial 49 out of 78</p>","null","","","","","","","","","","","","","","","","","","","","","","","","","",""
"","","","","","image-keyboard-response","243","1314581","0.0-3.0-7.0-1.9","631de062917efffd355d4394","D2","batch4","pattern_response","2850","stim/no_34_1_b.png","j","pattern_16","j","true","","","","2850","true","49","","","","","","","","","","","","","","","","",""
"","","","","","html-keyboard-response","244","1315884","0.0-3.0-7.0-0.10","631de062917efffd355d4394","D2","batch4","pattern_show_trial_num","null","<p class=block-text>Trial 50 out of 78</p>","null","","","","","","","","","","","","","","","","","","","","","","","","","",""
"","","","","","image-keyboard-response","245","1318550","0.0-3.0-7.0-1.10","631de062917efffd355d4394","D2","batch4","pattern_response","2650","stim/yes_67_hor_b1.png","f","pattern_79","f","true","","","","2650","true","50","","","","","","","","","","","","","","","","",""
"","","","","","html-keyboard-response","246","1319853","0.0-3.0-7.0-0.11","631de062917efffd355d4394","D2","batch4","pattern_show_trial_num","null","<p class=block-text>Trial 51 out of 78</p>","null","","","","","","","","","","","","","","","","","","","","","","","","","",""
"","","","","","image-keyboard-response","247","1322190","0.0-3.0-7.0-1.11","631de062917efffd355d4394","D2","batch4","pattern_response","2323","stim/no_32_1_w.png","j","pattern_14","j","true","","","","2323","true","51","","","","","","","","","","","","","","","","",""
"","","","","","html-keyboard-response","248","1323494","0.0-3.0-7.0-0.12","631de062917efffd355d4394","D2","batch4","pattern_show_trial_num","null","<p class=block-text>Trial 52 out of 78</p>","null","","","","","","","","","","","","","","","","","","","","","","","","","",""
"","","","","","image-keyboard-response","249","1324486","0.0-3.0-7.0-1.12","631de062917efffd355d4394","D2","batch4","pattern_response","988","stim/yes_45_hor_b2_b.png","f","pattern_67","f","true","","","","988","true","52","","","","","","","","","","","","","","","","",""
"","","","","","html-keyboard-response","250","1325790","0.0-3.0-7.0-0.13","631de062917efffd355d4394","D2","batch4","pattern_show_trial_num","null","<p class=block-text>Trial 53 out of 78</p>","null","","","","","","","","","","","","","","","","","","","","","","","","","",""
"","","","","","image-keyboard-response","251","1331806","0.0-3.0-7.0-1.13","631de062917efffd355d4394","D2","batch4","pattern_response","6002","stim/yes_50_dia_w1.png","j","pattern_71","f","false","","","","6002","false","52","","","","","","","","","","","","","","","","",""
"","","","","","html-keyboard-response","252","1333111","0.0-3.0-7.0-0.14","631de062917efffd355d4394","D2","batch4","pattern_show_trial_num","null","<p class=block-text>Trial 54 out of 78</p>","null","","","","","","","","","","","","","","","","","","","","","","","","","",""
"","","","","","image-keyboard-response","253","1334106","0.0-3.0-7.0-1.14","631de062917efffd355d4394","D2","batch4","pattern_response","980.0000000002328","stim/yes_38_hor_b1_b.png","f","pattern_61","f","true","","","","980.0000000002328","true","53","","","","","","","","","","","","","","","","",""
"","","","","","html-keyboard-response","254","1335409","0.0-3.0-7.0-0.15","631de062917efffd355d4394","D2","batch4","pattern_show_trial_num","null","<p class=block-text>Trial 55 out of 78</p>","null","","","","","","","","","","","","","","","","","","","","","","","","","",""
"","","","","","image-keyboard-response","255","1339178","0.0-3.0-7.0-1.15","631de062917efffd355d4394","D2","batch4","pattern_response","3754.999999999767","stim/no_48_1_w.png","j","pattern_28","j","true","","","","3754.999999999767","true","54","","","","","","","","","","","","","","","","",""
"","","","","","html-keyboard-response","256","1340481","0.0-3.0-7.0-0.16","631de062917efffd355d4394","D2","batch4","pattern_show_trial_num","null","<p class=block-text>Trial 56 out of 78</p>","null","","","","","","","","","","","","","","","","","","","","","","","","","",""
"","","","","","image-keyboard-response","257","1341236","0.0-3.0-7.0-1.16","631de062917efffd355d4394","D2","batch4","pattern_response","741","stim/yes_25_hor_b1_b.png","f","pattern_49","f","true","","","","741","true","55","","","","","","","","","","","","","","","","",""
"","","","","","html-keyboard-response","258","1342540","0.0-3.0-7.0-0.17","631de062917efffd355d4394","D2","batch4","pattern_show_trial_num","null","<p class=block-text>Trial 57 out of 78</p>","null","","","","","","","","","","","","","","","","","","","","","","","","","",""
"","","","","","image-keyboard-response","259","1344361","0.0-3.0-7.0-1.17","631de062917efffd355d4394","D2","batch4","pattern_response","1804","stim/yes_31_hor_b1.png","f","pattern_55","f","true","","","","1804","true","56","","","","","","","","","","","","","","","","",""
"","","","","","html-keyboard-response","260","1345664","0.0-3.0-7.0-0.18","631de062917efffd355d4394","D2","batch4","pattern_show_trial_num","null","<p class=block-text>Trial 58 out of 78</p>","null","","","","","","","","","","","","","","","","","","","","","","","","","",""
"","","","","","image-keyboard-response","261","1352353","0.0-3.0-7.0-1.18","631de062917efffd355d4394","D2","batch4","pattern_response","6675","stim/no_52_1.png","j","pattern_32","j","true","","","","6675","true","57","","","","","","","","","","","","","","","","",""
"","","","","","html-keyboard-response","262","1353657","0.0-3.0-7.0-0.19","631de062917efffd355d4394","D2","batch4","pattern_show_trial_num","null","<p class=block-text>Trial 59 out of 78</p>","null","","","","","","","","","","","","","","","","","","","","","","","","","",""
"","","","","","image-keyboard-response","263","1354604","0.0-3.0-7.0-1.19","631de062917efffd355d4394","D2","batch4","pattern_response","934","stim/yes_17_dia_w1.png","f","pattern_45","f","true","","","","934","true","58","","","","","","","","","","","","","","","","",""
"","","","","","html-keyboard-response","264","1355905","0.0-3.0-7.0-0.20","631de062917efffd355d4394","D2","batch4","pattern_show_trial_num","null","<p class=block-text>Trial 60 out of 78</p>","null","","","","","","","","","","","","","","","","","","","","","","","","","",""
"","","","","","image-keyboard-response","265","1357105","0.0-3.0-7.0-1.20","631de062917efffd355d4394","D2","batch4","pattern_response","1195.0000000002328","stim/no_17_1_w.png","j","pattern_04","j","true","","","","1195.0000000002328","true","59","","","","","","","","","","","","","","","","",""
"","","","","","html-keyboard-response","266","1358407","0.0-3.0-7.0-0.21","631de062917efffd355d4394","D2","batch4","pattern_show_trial_num","null","<p class=block-text>Trial 61 out of 78</p>","null","","","","","","","","","","","","","","","","","","","","","","","","","",""
"","","","","","image-keyboard-response","267","1360238","0.0-3.0-7.0-1.21","631de062917efffd355d4394","D2","batch4","pattern_response","1817","stim/yes_48_dia_w1_w.png","f","pattern_69","f","true","","","","1817","true","60","","","","","","","","","","","","","","","","",""
"","","","","","html-keyboard-response","268","1361542","0.0-3.0-7.0-0.22","631de062917efffd355d4394","D2","batch4","pattern_show_trial_num","null","<p class=block-text>Trial 62 out of 78</p>","null","","","","","","","","","","","","","","","","","","","","","","","","","",""
"","","","","","image-keyboard-response","269","1362455","0.0-3.0-7.0-1.22","631de062917efffd355d4394","D2","batch4","pattern_response","897.9999999997672","stim/yes_55_hor_w1_w.png","f","pattern_75","f","true","","","","897.9999999997672","true","61","","","","","","","","","","","","","","","","",""
"","","","","","html-keyboard-response","270","1363758","0.0-3.0-7.0-0.23","631de062917efffd355d4394","D2","batch4","pattern_show_trial_num","null","<p class=block-text>Trial 63 out of 78</p>","null","","","","","","","","","","","","","","","","","","","","","","","","","",""
"","","","","","image-keyboard-response","271","1367406","0.0-3.0-7.0-1.23","631de062917efffd355d4394","D2","batch4","pattern_response","3636","stim/no_29_1_b.png","j","pattern_12","j","true","","","","3636","true","62","","","","","","","","","","","","","","","","",""
"","","","","","html-keyboard-response","272","1368709","0.0-3.0-7.0-0.24","631de062917efffd355d4394","D2","batch4","pattern_show_trial_num","null","<p class=block-text>Trial 64 out of 78</p>","null","","","","","","","","","","","","","","","","","","","","","","","","","",""
"","","","","","image-keyboard-response","273","1369456","0.0-3.0-7.0-1.24","631de062917efffd355d4394","D2","batch4","pattern_response","732","stim/yes_28_ver_b1.png","f","pattern_51","f","true","","","","732","true","63","","","","","","","","","","","","","","","","",""
"","","","","","html-keyboard-response","274","1370759","0.0-3.0-7.0-0.25","631de062917efffd355d4394","D2","batch4","pattern_show_trial_num","null","<p class=block-text>Trial 65 out of 78</p>","null","","","","","","","","","","","","","","","","","","","","","","","","","",""
"","","","","","image-keyboard-response","275","1378857","0.0-3.0-7.0-1.25","631de062917efffd355d4394","D2","batch4","pattern_response","8083","stim/no_62_1_w.png","j","pattern_36","j","true","","","","8083","true","64","","","","","","","","","","","","","","","","",""
"","","","","","html-keyboard-response","276","1380160","0.0-3.0-7.0-0.26","631de062917efffd355d4394","D2","batch4","pattern_show_trial_num","null","<p class=block-text>Trial 66 out of 78</p>","null","","","","","","","","","","","","","","","","","","","","","","","","","",""
"","","","","","image-keyboard-response","277","1387175","0.0-3.0-7.0-1.26","631de062917efffd355d4394","D2","batch4","pattern_response","7003","stim/no_46_1_b.png","j","pattern_26","j","true","","","","7003","true","65","","","","","","","","","","","","","","","","",""
"","","","","","html-keyboard-response","278","1388479","0.0-3.0-7.0-0.27","631de062917efffd355d4394","D2","batch4","pattern_show_trial_num","null","<p class=block-text>Trial 67 out of 78</p>","null","","","","","","","","","","","","","","","","","","","","","","","","","",""
"","","","","","image-keyboard-response","279","1390479","0.0-3.0-7.0-1.27","631de062917efffd355d4394","D2","batch4","pattern_response","1985.0000000002328","stim/yes_40_dia_b1_b.png","f","pattern_63","f","true","","","","1985.0000000002328","true","66","","","","","","","","","","","","","","","","",""
"","","","","","html-keyboard-response","280","1391783","0.0-3.0-7.0-0.28","631de062917efffd355d4394","D2","batch4","pattern_show_trial_num","null","<p class=block-text>Trial 68 out of 78</p>","null","","","","","","","","","","","","","","","","","","","","","","","","","",""
"","","","","","image-keyboard-response","281","1396944","0.0-3.0-7.0-1.28","631de062917efffd355d4394","D2","batch4","pattern_response","5149","stim/yes_37_dia_w1.png","j","pattern_59","f","false","","","","5149","false","66","","","","","","","","","","","","","","","","",""
"","","","","","html-keyboard-response","282","1398247","0.0-3.0-7.0-0.29","631de062917efffd355d4394","D2","batch4","pattern_show_trial_num","null","<p class=block-text>Trial 69 out of 78</p>","null","","","","","","","","","","","","","","","","","","","","","","","","","",""
"","","","","","image-keyboard-response","283","1400262","0.0-3.0-7.0-1.29","631de062917efffd355d4394","D2","batch4","pattern_response","2001","stim/no_20_1_w.png","j","pattern_06","j","true","","","","2001","true","67","","","","","","","","","","","","","","","","",""
"","","","","","html-keyboard-response","284","1401565","0.0-3.0-7.0-0.30","631de062917efffd355d4394","D2","batch4","pattern_show_trial_num","null","<p class=block-text>Trial 70 out of 78</p>","null","","","","","","","","","","","","","","","","","","","","","","","","","",""
"","","","","","image-keyboard-response","285","1402602","0.0-3.0-7.0-1.30","631de062917efffd355d4394","D2","batch4","pattern_response","1023","stim/yes_52_ver_w1.png","f","pattern_73","f","true","","","","1023","true","68","","","","","","","","","","","","","","","","",""
"","","","","","html-keyboard-response","286","1403904","0.0-3.0-7.0-0.31","631de062917efffd355d4394","D2","batch4","pattern_show_trial_num","null","<p class=block-text>Trial 71 out of 78</p>","null","","","","","","","","","","","","","","","","","","","","","","","","","",""
"","","","","","image-keyboard-response","287","1407300","0.0-3.0-7.0-1.31","631de062917efffd355d4394","D2","batch4","pattern_response","3381","stim/no_42_1_w.png","j","pattern_22","j","true","","","","3381","true","69","","","","","","","","","","","","","","","","",""
"","","","","","html-keyboard-response","288","1408603","0.0-3.0-7.0-0.32","631de062917efffd355d4394","D2","batch4","pattern_show_trial_num","null","<p class=block-text>Trial 72 out of 78</p>","null","","","","","","","","","","","","","","","","","","","","","","","","","",""
"","","","","","image-keyboard-response","289","1415548","0.0-3.0-7.0-1.32","631de062917efffd355d4394","D2","batch4","pattern_response","6930","stim/no_44_1.png","j","pattern_24","j","true","","","","6930","true","70","","","","","","","","","","","","","","","","",""
"","","","","","html-keyboard-response","290","1416852","0.0-3.0-7.0-0.33","631de062917efffd355d4394","D2","batch4","pattern_show_trial_num","null","<p class=block-text>Trial 73 out of 78</p>","null","","","","","","","","","","","","","","","","","","","","","","","","","",""
"","","","","","image-keyboard-response","291","1417629","0.0-3.0-7.0-1.33","631de062917efffd355d4394","D2","batch4","pattern_response","767","stim/no_13_2_b.png","j","pattern_02","j","true","","","","767","true","71","","","","","","","","","","","","","","","","",""
"","","","","","html-keyboard-response","292","1418931","0.0-3.0-7.0-0.34","631de062917efffd355d4394","D2","batch4","pattern_show_trial_num","null","<p class=block-text>Trial 74 out of 78</p>","null","","","","","","","","","","","","","","","","","","","","","","","","","",""
"","","","","","image-keyboard-response","293","1419736","0.0-3.0-7.0-1.34","631de062917efffd355d4394","D2","batch4","pattern_response","790","stim/yes_29_ver_w1.png","f","pattern_53","f","true","","","","790","true","72","","","","","","","","","","","","","","","","",""
"","","","","","html-keyboard-response","294","1421040","0.0-3.0-7.0-0.35","631de062917efffd355d4394","D2","batch4","pattern_show_trial_num","null","<p class=block-text>Trial 75 out of 78</p>","null","","","","","","","","","","","","","","","","","","","","","","","","","",""
"","","","","","image-keyboard-response","295","1422578","0.0-3.0-7.0-1.35","631de062917efffd355d4394","D2","batch4","pattern_response","1523.9999999997672","stim/yes_35_dia_b1.png","f","pattern_57","f","true","","","","1523.9999999997672","true","73","","","","","","","","","","","","","","","","",""
"","","","","","html-keyboard-response","296","1423881","0.0-3.0-7.0-0.36","631de062917efffd355d4394","D2","batch4","pattern_show_trial_num","null","<p class=block-text>Trial 76 out of 78</p>","null","","","","","","","","","","","","","","","","","","","","","","","","","",""
"","","","","","image-keyboard-response","297","1431675","0.0-3.0-7.0-1.36","631de062917efffd355d4394","D2","batch4","pattern_response","7779","stim/no_50_1.png","j","pattern_30","j","true","","","","7779","true","74","","","","","","","","","","","","","","","","",""
"","","","","","html-keyboard-response","298","1432979","0.0-3.0-7.0-0.37","631de062917efffd355d4394","D2","batch4","pattern_show_trial_num","null","<p class=block-text>Trial 77 out of 78</p>","null","","","","","","","","","","","","","","","","","","","","","","","","","",""
"","","","","","image-keyboard-response","299","1438854","0.0-3.0-7.0-1.37","631de062917efffd355d4394","D2","batch4","pattern_response","5862","stim/no_36_2_w.png","j","pattern_18","j","true","","","","5862","true","75","","","","","","","","","","","","","","","","",""
"","","","","","html-keyboard-response","300","1440156","0.0-3.0-7.0-0.38","631de062917efffd355d4394","D2","batch4","pattern_show_trial_num","null","<p class=block-text>Trial 78 out of 78</p>","null","","","","","","","","","","","","","","","","","","","","","","","","","",""
"","","","","","image-keyboard-response","301","1441041","0.0-3.0-7.0-1.38","631de062917efffd355d4394","D2","batch4","pattern_response","870","stim/yes_60_ver_b1_b.png","f","pattern_77","f","true","","","","870","true","76","","","","","","","","","","","","","","","","",""
"","","","","","html-button-response","302","1446041","0.0-3.0-8.0","631de062917efffd355d4394","D2","batch4","","4496","<p class = block-text>This concludes the 4-in-a-row detection game.Thank you for your responses!<br>
            You responded correctly on 97% of the trials.<br>
            When you are ready, press ""Continue"" button to continue </p>","0","","","","","","","","","","","","","","","","","","","","","","","","","",""
"true","","","","","fullscreen","303","1448823","0.0-4.0-0.0","631de062917efffd355d4394","D2","batch4","","","","","","","","","","","","","","","","","","","","","","","","","","","","","",""
"","","","","","instructions","304","1504506","0.0-4.0-1.0-0.0-0.0","631de062917efffd355d4394","D2","batch4","tol-instructions","55684","","","","","","","","[{""page_index"":0,""viewing_time"":9283},{""page_index"":1,""viewing_time"":5348},{""page_index"":2,""viewing_time"":4535},{""page_index"":3,""viewing_time"":8799},{""page_index"":4,""viewing_time"":6333},{""page_index"":5,""viewing_time"":18418},{""page_index"":6,""viewing_time"":2968}]","","","","","","","","","","","","","","","","","","","",""
"","","","","","html-button-response","305","1505474","0.0-4.0-1.0-1.0-0.0","631de062917efffd355d4394","D2","batch4","tol_enter_quiz","966","<p class=block-text> Let's answer a few questions <br>","0","","","","","","","","","","","","","","","","","","","","","","","","","",""
"","","","","","html-button-response","306","1509338","0.0-4.0-1.0-1.0-1.0","631de062917efffd355d4394","D2","batch4","tol_quiz","3863.000000000233","<p class = block-text>True or False: You can only move the ball on top of a peg. <br></p>","1","","","false","","","","","","","","","","","","","","","","","","","","","","",""
"","","","","","html-button-response","307","1510839","0.0-4.0-1.0-1.0-2.0","631de062917efffd355d4394","D2","batch4","tol_quiz_feedback","1499.0000000002328","<p class = block-text>Incorrect. Remember, you can only move the ball on top of a peg.</p>","0","","","","","","","","","","","","","","","","","","","","","","","","","",""
"","","","","","html-button-response","308","1513939","0.0-4.0-1.0-1.0-3.0","631de062917efffd355d4394","D2","batch4","tol_quiz","3099","<p class = block-text>True or False: You should try to match your board with the target board with fewest moves possible. <br></p>","0","","","true","","","","","","","","","","","","","","","","","","","","","","",""
"","","","","","html-button-response","309","1514858","0.0-4.0-1.0-1.0-4.0","631de062917efffd355d4394","D2","batch4","tol_quiz_feedback","917","<p class = block-text>Correct! </p>","0","","","","","","","","","","","","","","","","","","","","","","","","","",""
"","","","","","html-button-response","310","1515956","0.0-4.0-1.0-2.0-0.0","631de062917efffd355d4394","D2","batch4","","1097","<p class = block-text>You made too many incorrect choices.</p><p class = block-text>You will now repeat the instructions and quiz</p>","0","","","","","","","","","","","","","","","","","","","","","","","","","",""
"","","","","","instructions","311","1523322","0.0-4.0-1.1-0.1-0.1","631de062917efffd355d4394","D2","batch4","tol-instructions","7365","","","","","","","","[{""page_index"":0,""viewing_time"":1233},{""page_index"":1,""viewing_time"":834},{""page_index"":2,""viewing_time"":1113},{""page_index"":3,""viewing_time"":768.0000000002328},{""page_index"":4,""viewing_time"":764.9999999997672},{""page_index"":5,""viewing_time"":635},{""page_index"":6,""viewing_time"":2016}]","","","","","","","","","","","","","","","","","","","",""
"","","","","","html-button-response","312","1524307","0.0-4.0-1.1-1.1-0.1","631de062917efffd355d4394","D2","batch4","tol_enter_quiz","983","<p class=block-text> Let's answer a few questions <br>","0","","","","","","","","","","","","","","","","","","","","","","","","","",""
"","","","","","html-button-response","313","1531522","0.0-4.0-1.1-1.1-1.1","631de062917efffd355d4394","D2","batch4","tol_quiz","7215","<p class = block-text>True or False: You can only move the ball on top of a peg. <br></p>","0","","","true","","","","","","","","","","","","","","","","","","","","","","",""
"","","","","","html-button-response","314","1532523","0.0-4.0-1.1-1.1-2.1","631de062917efffd355d4394","D2","batch4","tol_quiz_feedback","1000","<p class = block-text>Correct! You can only move the ball on top of a peg.</p>","0","","","","","","","","","","","","","","","","","","","","","","","","","",""
"","","","","","html-button-response","315","1534289","0.0-4.0-1.1-1.1-3.1","631de062917efffd355d4394","D2","batch4","tol_quiz","1765.0000000002328","<p class = block-text>True or False: You should try to match your board with the target board with fewest moves possible. <br></p>","0","","","true","","","","","","","","","","","","","","","","","","","","","","",""
"","","","","","html-button-response","316","1537022","0.0-4.0-1.1-1.1-4.1","631de062917efffd355d4394","D2","batch4","tol_quiz_feedback","2731","<p class = block-text>Correct! </p>","0","","","","","","","","","","","","","","","","","","","","","","","","","",""
"","","","","","html-button-response","317","1538754","0.0-4.0-2.0","631de062917efffd355d4394","D2","batch4","","1732","<p class=block-text> Now that you've understood the game, let's practice a few easier examples before we start!<br> <br>","0","","","","","","","","","","","","","","","","","","","","","","","","","",""
"","","","","","single-stim-button","318","1542624","0.0-4.0-3.0-0.0","631de062917efffd355d4394","D2","batch4","tol_practice","3867","","","","","","","","","","","","","","tol_peg_2","3867","3867","0","[[1,2,0],[0,0],[0]]","1","[[1,2,0],[0,0],[3]]","practice","3867","","","","","",""
"","","","","","single-stim-button","319","1544373","0.0-4.0-3.0-1.0","631de062917efffd355d4394","D2","batch4","tol_practice","1746","","","","","","","","","","","","","","tol_peg_3","1746","1746","0","[[1,2,0],[0,0],[3]]","1","[[1,2,0],[0,0],[3]]","practice","1746","","","","","",""
"","","","","","poldrack-single-stim","320","1545378","0.0-4.0-4.0","631de062917efffd355d4394","D2","batch4","tol_feedback","-1","","","","","true","","","","","","","","","","1000","1000","500","","","","","","-1","none","true","","0",""
"","","","","","single-stim-button","321","1547871","0.0-4.0-5.0-0.0","631de062917efffd355d4394","D2","batch4","tol_practice","2492","","","","","","","","","","","","","","tol_peg_1","2492","2492","0","[[1,0,0],[3,0],[0]]","2","[[0,0,0],[3,1],[2]]","practice","2492","","","","","",""
"","","","","","single-stim-button","322","1549042","0.0-4.0-5.0-1.0","631de062917efffd355d4394","D2","batch4","tol_practice","1169","","","","","","","","","","","","","","tol_peg_3","1169","1169","0","[[1,0,0],[3,0],[2]]","2","[[0,0,0],[3,1],[2]]","practice","1169","","","","","",""
"","","","","","single-stim-button","323","1551858","0.0-4.0-5.1-0.1","631de062917efffd355d4394","D2","batch4","tol_practice","2814","","","","","","","","","","","","","","tol_peg_1","2814","2814","0","[[0,0,0],[3,0],[2]]","3","[[0,0,0],[3,1],[2]]","practice","2814","","","","","",""
"","","","","","single-stim-button","324","1552540","0.0-4.0-5.1-1.1","631de062917efffd355d4394","D2","batch4","tol_practice","681","","","","","","","","","","","","","","tol_peg_2","681","681","0","[[0,0,0],[3,1],[2]]","3","[[0,0,0],[3,1],[2]]","practice","681","","","","","",""
"","","","","","poldrack-single-stim","325","1553543","0.0-4.0-6.0","631de062917efffd355d4394","D2","batch4","tol_feedback","-1","","","","","true","","","","","","","","","","1000","1000","500","","","","","","-1","none","true","","0",""
"","","","","","single-stim-button","326","1556122","0.0-4.0-7.0-0.0","631de062917efffd355d4394","D2","batch4","tol_practice","2578","","","","","","","","","","","","","","tol_peg_2","2578","2578","0","[[1,2,0],[0,0],[0]]","4","[[1,0,0],[2,0],[3]]","practice","2578","","","","","",""
"","","","","","single-stim-button","327","1556890","0.0-4.0-7.0-1.0","631de062917efffd355d4394","D2","batch4","tol_practice","767","","","","","","","","","","","","","","tol_peg_3","767","767","0","[[1,2,0],[0,0],[3]]","4","[[1,0,0],[2,0],[3]]","practice","767","","","","","",""
"","","","","","single-stim-button","328","1557756","0.0-4.0-7.1-0.1","631de062917efffd355d4394","D2","batch4","tol_practice","864","","","","","","","","","","","","","","tol_peg_1","864","864","0","[[1,0,0],[0,0],[3]]","5","[[1,0,0],[2,0],[3]]","practice","864","","","","","",""
"","","","","","single-stim-button","329","1558422","0.0-4.0-7.1-1.1","631de062917efffd355d4394","D2","batch4","tol_practice","664","","","","","","","","","","","","","","tol_peg_2","664","664","0","[[1,0,0],[2,0],[3]]","5","[[1,0,0],[2,0],[3]]","practice","664","","","","","",""
"","","","","","poldrack-single-stim","330","1559425","0.0-4.0-8.0","631de062917efffd355d4394","D2","batch4","tol_feedback","-1","","","","","true","","","","","","","","","","1000","1000","500","","","","","","-1","none","true","","0",""
"","","","","","html-button-response","331","1561458","0.0-4.0-9.0","631de062917efffd355d4394","D2","batch4","tol_instruction","2028","<div class = centerbox><p class = center-block-text>Great job! You are done with practice trials<br>You are about to start official trials.<br> <br> Problem <strong>1</strong> out of 25 problems</p></div>","0","","","","","","","","","","","","","","","","","","","","","","","","","",""
"","","","","","single-stim-button","332","1566657","0.0-4.0-10.0-0.0","631de062917efffd355d4394","D2","batch4","tol_tohand","4197","","","","","","","","","","","","","","tol_peg_1","4197","4197","0","[[1,0,0],[3,0],[0]]","1","[[1,3,0],[2,0],[0]]","0","0","","","","","","3"
"","","","","","single-stim-button","333","1567506","0.0-4.0-10.0-1.0","631de062917efffd355d4394","D2","batch4","tol_toboard","847","","","","","","","","","","","","","","tol_peg_3","847","847","0","[[1,0,0],[3,0],[2]]","1","[[1,3,0],[2,0],[0]]","0","0","","","","","","3"
"","","","","","single-stim-button","334","1568225","0.0-4.0-10.1-0.1","631de062917efffd355d4394","D2","batch4","tol_tohand","716","","","","","","","","","","","","","","tol_peg_2","716","716","0","[[1,0,0],[0,0],[2]]","2","[[1,3,0],[2,0],[0]]","0","0","","","","","","3"
"","","","","","single-stim-button","335","1568973","0.0-4.0-10.1-1.1","631de062917efffd355d4394","D2","batch4","tol_toboard","747","","","","","","","","","","","","","","tol_peg_1","747","747","0","[[1,3,0],[0,0],[2]]","2","[[1,3,0],[2,0],[0]]","0","0","","","","","","3"
"","","","","","single-stim-button","336","1569841","0.0-4.0-10.2-0.2","631de062917efffd355d4394","D2","batch4","tol_tohand","866","","","","","","","","","","","","","","tol_peg_3","866","866","0","[[1,3,0],[0,0],[0]]","3","[[1,3,0],[2,0],[0]]","0","0","","","","","","3"
"","","","","","single-stim-button","337","1570624","0.0-4.0-10.2-1.2","631de062917efffd355d4394","D2","batch4","tol_toboard","781","","","","","","","","","","","","","","tol_peg_2","781","781","0","[[1,3,0],[2,0],[0]]","3","[[1,3,0],[2,0],[0]]","0","0","","","","","","3"
"","","","","","poldrack-single-stim","338","1571626","0.0-4.0-11.0","631de062917efffd355d4394","D2","batch4","tol_feedback","-1","","","","","true","","","","","","","","","","1000","1000","500","","","","","","-1","none","true","4197","5779",""
"","","","","","html-button-response","339","1572589","0.0-4.0-12.0","631de062917efffd355d4394","D2","batch4","tol_trial_num","961","<div class = centerbox><p class = center-block-text>problem <strong>2</strong> out of 25 problems</p></div>","0","","","","","","","","","","","","","","","","","","","","","","","","","",""
"","","","","","single-stim-button","340","1574654","0.0-4.0-13.0-0.0","631de062917efffd355d4394","D2","batch4","tol_tohand","2064","","","","","","","","","","","","","","tol_peg_1","2064","2064","0","[[1,0,0],[3,0],[0]]","1","[[2,1,3],[0,0],[0]]","1","0","","","","","","5"
"","","","","","single-stim-button","341","1575607","0.0-4.0-13.0-1.0","631de062917efffd355d4394","D2","batch4","tol_toboard","951","","","","","","","","","","","","","","tol_peg_3","951","951","0","[[1,0,0],[3,0],[2]]","1","[[2,1,3],[0,0],[0]]","1","0","","","","","","5"
"","","","","","single-stim-button","342","1581192","0.0-4.0-13.1-0.1","631de062917efffd355d4394","D2","batch4","tol_tohand","5582","","","","","","","","","","","","","","tol_peg_1","5582","5582","0","[[0,0,0],[3,0],[2]]","2","[[2,1,3],[0,0],[0]]","1","0","","","","","","5"
"","","","","","single-stim-button","343","1581805","0.0-4.0-13.1-1.1","631de062917efffd355d4394","D2","batch4","tol_toboard","612","","","","","","","","","","","","","","tol_peg_2","612","612","0","[[0,0,0],[3,1],[2]]","2","[[2,1,3],[0,0],[0]]","1","0","","","","","","5"
"","","","","","single-stim-button","344","1582438","0.0-4.0-13.2-0.2","631de062917efffd355d4394","D2","batch4","tol_tohand","631","","","","","","","","","","","","","","tol_peg_3","631","631","0","[[0,0,0],[3,1],[0]]","3","[[2,1,3],[0,0],[0]]","1","0","","","","","","5"
"","","","","","single-stim-button","345","1583241","0.0-4.0-13.2-1.2","631de062917efffd355d4394","D2","batch4","tol_toboard","799","","","","","","","","","","","","","","tol_peg_1","799","799","0","[[2,0,0],[3,1],[0]]","3","[[2,1,3],[0,0],[0]]","1","0","","","","","","5"
"","","","","","single-stim-button","346","1584040","0.0-4.0-13.3-0.3","631de062917efffd355d4394","D2","batch4","tol_tohand","796","","","","","","","","","","","","","","tol_peg_2","796","796","0","[[2,0,0],[3,0],[0]]","4","[[2,1,3],[0,0],[0]]","1","0","","","","","","5"
"","","","","","single-stim-button","347","1584909","0.0-4.0-13.3-1.3","631de062917efffd355d4394","D2","batch4","tol_toboard","867","","","","","","","","","","","","","","tol_peg_1","867","867","0","[[2,1,0],[3,0],[0]]","4","[[2,1,3],[0,0],[0]]","1","0","","","","","","5"
"","","","","","single-stim-button","348","1585521","0.0-4.0-13.4-0.4","631de062917efffd355d4394","D2","batch4","tol_tohand","610","","","","","","","","","","","","","","tol_peg_2","610","610","0","[[2,1,0],[0,0],[0]]","5","[[2,1,3],[0,0],[0]]","1","0","","","","","","5"
"","","","","","single-stim-button","349","1586074","0.0-4.0-13.4-1.4","631de062917efffd355d4394","D2","batch4","tol_toboard","553","","","","","","","","","","","","","","tol_peg_1","553","553","0","[[2,1,3],[0,0],[0]]","5","[[2,1,3],[0,0],[0]]","1","0","","","","","","5"
"","","","","","poldrack-single-stim","350","1587078","0.0-4.0-14.0","631de062917efffd355d4394","D2","batch4","tol_feedback","-1","","","","","true","","","","","","","","","","1000","1000","500","","","","","","-1","none","true","2064","9683",""
"","","","","","html-button-response","351","1587639","0.0-4.0-15.0","631de062917efffd355d4394","D2","batch4","tol_trial_num","559","<div class = centerbox><p class = center-block-text>problem <strong>3</strong> out of 25 problems</p></div>","0","","","","","","","","","","","","","","","","","","","","","","","","","",""
"","","","","","single-stim-button","352","1590958","0.0-4.0-16.0-0.0","631de062917efffd355d4394","D2","batch4","tol_tohand","3318","","","","","","","","","","","","","","tol_peg_1","3318","3318","0","[[2,0,0],[0,0],[1]]","1","[[1,2,0],[3,0],[0]]","2","0","","","","","","4"
"","","","","","single-stim-button","353","1591689","0.0-4.0-16.0-1.0","631de062917efffd355d4394","D2","batch4","tol_toboard","729","","","","","","","","","","","","","","tol_peg_2","729","729","0","[[2,0,0],[3,0],[1]]","1","[[1,2,0],[3,0],[0]]","2","0","","","","","","4"
"","","","","","single-stim-button","354","1593108","0.0-4.0-16.1-0.1","631de062917efffd355d4394","D2","batch4","tol_tohand","1416","","","","","","","","","","","","","","tol_peg_1","1416","1416","0","[[0,0,0],[3,0],[1]]","2","[[1,2,0],[3,0],[0]]","2","0","","","","","","4"
"","","","","","single-stim-button","355","1593725","0.0-4.0-16.1-1.1","631de062917efffd355d4394","D2","batch4","tol_toboard","615","","","","","","","","","","","","","","tol_peg_2","615","615","0","[[0,0,0],[3,2],[1]]","2","[[1,2,0],[3,0],[0]]","2","0","","","","","","4"
