"success","timeout","failed_images","failed_audio","failed_video","trial_type","trial_index","time_elapsed","internal_node_id","subject_id","study_id","session_id","view_history","rt","task","stimulus","response","correct","mouse_click","stim_duration","block_duration","timing_post_trial","current_position","tol_num_moves_made","tol_target","tol_problem_id","tol_rt","key_press","possible_responses","tol_correct","preplanning","tol_rt_per_trial","tol_min_moves","item","answer","spm_correct","spm_rt","fiar_detect_rt","fiar_detect_correct","total_correct_fiar_detect","post_trial_gap","choices"
"true","false","[]","[]","[]","preload","0","5253","0.0-0.0","631d4876679fad1a9469e76c","E1","batch5","","","","","","","","","","","","","","","","","","","","","","","","","","","","","",""
"true","","","","","fullscreen","1","11182","0.0-1.0-0.0","631d4876679fad1a9469e76c","E1","batch5","","","","","","","","","","","","","","","","","","","","","","","","","","","","","",""
"true","","","","","fullscreen","2","13789","0.0-2.0-0.0","631d4876679fad1a9469e76c","E1","batch5","","","","","","","","","","","","","","","","","","","","","","","","","","","","","",""
"","","","","","instructions","3","47247","0.0-2.0-1.0-0.0-0.0","631d4876679fad1a9469e76c","E1","batch5","[{""page_index"":0,""viewing_time"":8224.5},{""page_index"":1,""viewing_time"":3461.9000000953674},{""page_index"":2,""viewing_time"":2362},{""page_index"":3,""viewing_time"":5072.299999952316},{""page_index"":4,""viewing_time"":4411.299999952316},{""page_index"":5,""viewing_time"":7322.100000023842},{""page_index"":6,""viewing_time"":2602.2000000476837}]","33456.5","tol-instructions","","","","","","","","","","","","","","","","","","","","","","","","","","",""
"","","","","","html-button-response","4","48359","0.0-2.0-1.0-1.0-0.0","631d4876679fad1a9469e76c","E1","batch5","","1111.2999999523163","tol_enter_quiz","<p class=block-text> Let's answer a few questions <br>","0","","","","","","","","","","","","","","","","","","","","","","","","",""
"","","","","","html-button-response","5","51371","0.0-2.0-1.0-1.0-1.0","631d4876679fad1a9469e76c","E1","batch5","","3011","tol_quiz","<p class = block-text>True or False: You can only move the ball on top of a peg. <br></p>","0","true","","","","","","","","","","","","","","","","","","","","","","","",""
"","","","","","html-button-response","6","52363","0.0-2.0-1.0-1.0-2.0","631d4876679fad1a9469e76c","E1","batch5","","991.3000000715256","tol_quiz_feedback","<p class = block-text>Correct! You can only move the ball on top of a peg.</p>","0","","","","","","","","","","","","","","","","","","","","","","","","",""
"","","","","","html-button-response","7","54605","0.0-2.0-1.0-1.0-3.0","631d4876679fad1a9469e76c","E1","batch5","","2241.5","tol_quiz","<p class = block-text>True or False: You should try to match your board with the target board with fewest moves possible. <br></p>","0","true","","","","","","","","","","","","","","","","","","","","","","","",""
"","","","","","html-button-response","8","55597","0.0-2.0-1.0-1.0-4.0","631d4876679fad1a9469e76c","E1","batch5","","991.3000000715256","tol_quiz_feedback","<p class = block-text>Correct! </p>","0","","","","","","","","","","","","","","","","","","","","","","","","",""
"","","","","","html-button-response","9","57399","0.0-2.0-2.0","631d4876679fad1a9469e76c","E1","batch5","","1801.2000000476837","","<p class=block-text> Now that you've understood the game, let's practice a few easier examples before we start!<br> <br>","0","","","","","","","","","","","","","","","","","","","","","","","","",""
"","","","","","single-stim-button","10","59251","0.0-2.0-3.0-0.0","631d4876679fad1a9469e76c","E1","batch5","","1852","tol_practice","","","","tol_peg_2","1852","1852","0","[[1,2,0],[0,0],[0]]","1","[[1,2,0],[0,0],[3]]","practice","1852","","","","","","","","","","","","","","",""
"","","","","","single-stim-button","11","60723","0.0-2.0-3.0-1.0","631d4876679fad1a9469e76c","E1","batch5","","1471","tol_practice","","","","tol_peg_3","1471","1471","0","[[1,2,0],[0,0],[3]]","1","[[1,2,0],[0,0],[3]]","practice","1471","","","","","","","","","","","","","","",""
"","","","","","poldrack-single-stim","12","61726","0.0-2.0-4.0","631d4876679fad1a9469e76c","E1","batch5","","-1","tol_feedback","","","true","","1000","1000","500","","","","","","-1","none","true","","0","","","","","","","","","",""
"","","","","","single-stim-button","13","64345","0.0-2.0-5.0-0.0","631d4876679fad1a9469e76c","E1","batch5","","2618","tol_practice","","","","tol_peg_1","2618","2618","0","[[1,0,0],[3,0],[0]]","2","[[0,0,0],[3,1],[2]]","practice","2618","","","","","","","","","","","","","","",""
"","","","","","single-stim-button","14","65547","0.0-2.0-5.0-1.0","631d4876679fad1a9469e76c","E1","batch5","","1202","tol_practice","","","","tol_peg_3","1202","1202","0","[[1,0,0],[3,0],[2]]","2","[[0,0,0],[3,1],[2]]","practice","1202","","","","","","","","","","","","","","",""
"","","","","","single-stim-button","15","66569","0.0-2.0-5.1-0.1","631d4876679fad1a9469e76c","E1","batch5","","1021","tol_practice","","","","tol_peg_1","1021","1021","0","[[0,0,0],[3,0],[2]]","3","[[0,0,0],[3,1],[2]]","practice","1021","","","","","","","","","","","","","","",""
"","","","","","single-stim-button","16","67481","0.0-2.0-5.1-1.1","631d4876679fad1a9469e76c","E1","batch5","","912","tol_practice","","","","tol_peg_2","912","912","0","[[0,0,0],[3,1],[2]]","3","[[0,0,0],[3,1],[2]]","practice","912","","","","","","","","","","","","","","",""
"","","","","","poldrack-single-stim","17","68482","0.0-2.0-6.0","631d4876679fad1a9469e76c","E1","batch5","","-1","tol_feedback","","","true","","1000","1000","500","","","","","","-1","none","true","","0","","","","","","","","","",""
"","","","","","single-stim-button","18","70693","0.0-2.0-7.0-0.0","631d4876679fad1a9469e76c","E1","batch5","","2210","tol_practice","","","","tol_peg_2","2210","2210","0","[[1,2,0],[0,0],[0]]","4","[[1,0,0],[2,0],[3]]","practice","2210","","","","","","","","","","","","","","",""
"","","","","","single-stim-button","19","71485","0.0-2.0-7.0-1.0","631d4876679fad1a9469e76c","E1","batch5","","792","tol_practice","","","","tol_peg_3","792","792","0","[[1,2,0],[0,0],[3]]","4","[[1,0,0],[2,0],[3]]","practice","792","","","","","","","","","","","","","","",""
"","","","","","single-stim-button","20","72307","0.0-2.0-7.1-0.1","631d4876679fad1a9469e76c","E1","batch5","","822","tol_practice","","","","tol_peg_1","822","822","0","[[1,0,0],[0,0],[3]]","5","[[1,0,0],[2,0],[3]]","practice","822","","","","","","","","","","","","","","",""
"","","","","","single-stim-button","21","73249","0.0-2.0-7.1-1.1","631d4876679fad1a9469e76c","E1","batch5","","942","tol_practice","","","","tol_peg_2","942","942","0","[[1,0,0],[2,0],[3]]","5","[[1,0,0],[2,0],[3]]","practice","942","","","","","","","","","","","","","","",""
"","","","","","poldrack-single-stim","22","74258","0.0-2.0-8.0","631d4876679fad1a9469e76c","E1","batch5","","-1","tol_feedback","","","true","","1000","1000","500","","","","","","-1","none","true","","0","","","","","","","","","",""
"","","","","","html-button-response","23","77061","0.0-2.0-9.0","631d4876679fad1a9469e76c","E1","batch5","","2801.399999976158","tol_instruction","<div class = centerbox><p class = center-block-text>Great job! You are done with practice trials<br>You are about to start official trials.<br> <br> Problem <strong>1</strong> out of 25 problems</p></div>","0","","","","","","","","","","","","","","","","","","","","","","","","",""
"","","","","","single-stim-button","24","81093","0.0-2.0-10.0-0.0","631d4876679fad1a9469e76c","E1","batch5","","3030","tol_tohand","","","","tol_peg_1","3030","3030","0","[[1,0,0],[3,0],[0]]","1","[[1,3,0],[2,0],[0]]","0","0","","","","","","3","","","","","","","","",""
"","","","","","single-stim-button","25","81825","0.0-2.0-10.0-1.0","631d4876679fad1a9469e76c","E1","batch5","","731","tol_toboard","","","","tol_peg_3","731","731","0","[[1,0,0],[3,0],[2]]","1","[[1,3,0],[2,0],[0]]","0","0","","","","","","3","","","","","","","","",""
"","","","","","single-stim-button","26","82647","0.0-2.0-10.1-0.1","631d4876679fad1a9469e76c","E1","batch5","","822","tol_tohand","","","","tol_peg_2","822","822","0","[[1,0,0],[0,0],[2]]","2","[[1,3,0],[2,0],[0]]","0","0","","","","","","3","","","","","","","","",""
"","","","","","single-stim-button","27","83459","0.0-2.0-10.1-1.1","631d4876679fad1a9469e76c","E1","batch5","","812","tol_toboard","","","","tol_peg_1","812","812","0","[[1,3,0],[0,0],[2]]","2","[[1,3,0],[2,0],[0]]","0","0","","","","","","3","","","","","","","","",""
"","","","","","single-stim-button","28","84151","0.0-2.0-10.2-0.2","631d4876679fad1a9469e76c","E1","batch5","","692","tol_tohand","","","","tol_peg_3","692","692","0","[[1,3,0],[0,0],[0]]","3","[[1,3,0],[2,0],[0]]","0","0","","","","","","3","","","","","","","","",""
"","","","","","single-stim-button","29","84873","0.0-2.0-10.2-1.2","631d4876679fad1a9469e76c","E1","batch5","","722","tol_toboard","","","","tol_peg_2","722","722","0","[[1,3,0],[2,0],[0]]","3","[[1,3,0],[2,0],[0]]","0","0","","","","","","3","","","","","","","","",""
"","","","","","poldrack-single-stim","30","85874","0.0-2.0-11.0","631d4876679fad1a9469e76c","E1","batch5","","-1","tol_feedback","","","true","","1000","1000","500","","","","","","-1","none","true","3030","4544","","","","","","","","","",""
"","","","","","html-button-response","31","86955","0.0-2.0-12.0","631d4876679fad1a9469e76c","E1","batch5","","1079.2000000476837","tol_trial_num","<div class = centerbox><p class = center-block-text>problem <strong>2</strong> out of 25 problems</p></div>","0","","","","","","","","","","","","","","","","","","","","","","","","",""
"","","","","","single-stim-button","32","95797","0.0-2.0-13.0-0.0","631d4876679fad1a9469e76c","E1","batch5","","8842","tol_tohand","","","","tol_peg_1","8842","8842","0","[[1,0,0],[3,0],[0]]","1","[[2,1,3],[0,0],[0]]","1","0","","","","","","5","","","","","","","","",""
"","","","","","single-stim-button","33","98939","0.0-2.0-13.0-1.0","631d4876679fad1a9469e76c","E1","batch5","","3142","tol_toboard","","","","tol_peg_3","3142","3142","0","[[1,0,0],[3,0],[2]]","1","[[2,1,3],[0,0],[0]]","1","0","","","","","","5","","","","","","","","",""
"","","","","","single-stim-button","34","99661","0.0-2.0-13.1-0.1","631d4876679fad1a9469e76c","E1","batch5","","721","tol_tohand","","","","tol_peg_1","721","721","0","[[0,0,0],[3,0],[2]]","2","[[2,1,3],[0,0],[0]]","1","0","","","","","","5","","","","","","","","",""
"","","","","","single-stim-button","35","100413","0.0-2.0-13.1-1.1","631d4876679fad1a9469e76c","E1","batch5","","752","tol_toboard","","","","tol_peg_2","752","752","0","[[0,0,0],[3,1],[2]]","2","[[2,1,3],[0,0],[0]]","1","0","","","","","","5","","","","","","","","",""
"","","","","","single-stim-button","36","100985","0.0-2.0-13.2-0.2","631d4876679fad1a9469e76c","E1","batch5","","572","tol_tohand","","","","tol_peg_3","572","572","0","[[0,0,0],[3,1],[0]]","3","[[2,1,3],[0,0],[0]]","1","0","","","","","","5","","","","","","","","",""
"","","","","","single-stim-button","37","101757","0.0-2.0-13.2-1.2","631d4876679fad1a9469e76c","E1","batch5","","772","tol_toboard","","","","tol_peg_1","772","772","0","[[2,0,0],[3,1],[0]]","3","[[2,1,3],[0,0],[0]]","1","0","","","","","","5","","","","","","","","",""
"","","","","","single-stim-button","38","102429","0.0-2.0-13.3-0.3","631d4876679fad1a9469e76c","E1","batch5","","672","tol_tohand","","","","tol_peg_2","672","672","0","[[2,0,0],[3,0],[0]]","4","[[2,1,3],[0,0],[0]]","1","0","","","","","","5","","","","","","","","",""
"","","","","","single-stim-button","39","103001","0.0-2.0-13.3-1.3","631d4876679fad1a9469e76c","E1","batch5","","572","tol_toboard","","","","tol_peg_1","572","572","0","[[2,1,0],[3,0],[0]]","4","[[2,1,3],[0,0],[0]]","1","0","","","","","","5","","","","","","","","",""
"","","","","","single-stim-button","40","103643","0.0-2.0-13.4-0.4","631d4876679fad1a9469e76c","E1","batch5","","641","tol_tohand","","","","tol_peg_2","641","641","0","[[2,1,0],[0,0],[0]]","5","[[2,1,3],[0,0],[0]]","1","0","","","","","","5","","","","","","","","",""
"","","","","","single-stim-button","41","104345","0.0-2.0-13.4-1.4","631d4876679fad1a9469e76c","E1","batch5","","702","tol_toboard","","","","tol_peg_1","702","702","0","[[2,1,3],[0,0],[0]]","5","[[2,1,3],[0,0],[0]]","1","0","","","","","","5","","","","","","","","",""
"","","","","","poldrack-single-stim","42","105347","0.0-2.0-14.0","631d4876679fad1a9469e76c","E1","batch5","","-1","tol_feedback","","","true","","1000","1000","500","","","","","","-1","none","true","8842","11448","","","","","","","","","",""
"","","","","","html-button-response","43","106397","0.0-2.0-15.0","631d4876679fad1a9469e76c","E1","batch5","","1048.9000000953674","tol_trial_num","<div class = centerbox><p class = center-block-text>problem <strong>3</strong> out of 25 problems</p></div>","0","","","","","","","","","","","","","","","","","","","","","","","","",""
"","","","","","single-stim-button","44","111219","0.0-2.0-16.0-0.0","631d4876679fad1a9469e76c","E1","batch5","","4822","tol_tohand","","","","tol_peg_1","4822","4822","0","[[2,0,0],[0,0],[1]]","1","[[1,2,0],[3,0],[0]]","2","0","","","","","","4","","","","","","","","",""
"","","","","","single-stim-button","45","112161","0.0-2.0-16.0-1.0","631d4876679fad1a9469e76c","E1","batch5","","942","tol_toboard","","","","tol_peg_2","942","942","0","[[2,0,0],[3,0],[1]]","1","[[1,2,0],[3,0],[0]]","2","0","","","","","","4","","","","","","","","",""
"","","","","","single-stim-button","46","113223","0.0-2.0-16.1-0.1","631d4876679fad1a9469e76c","E1","batch5","","1062","tol_tohand","","","","tol_peg_1","1062","1062","0","[[0,0,0],[3,0],[1]]","2","[[1,2,0],[3,0],[0]]","2","0","","","","","","4","","","","","","","","",""
"","","","","","single-stim-button","47","114156","0.0-2.0-16.1-1.1","631d4876679fad1a9469e76c","E1","batch5","","933","tol_toboard","","","","tol_peg_2","933","933","0","[[0,0,0],[3,2],[1]]","2","[[1,2,0],[3,0],[0]]","2","0","","","","","","4","","","","","","","","",""
"","","","","","single-stim-button","48","114727","0.0-2.0-16.2-0.2","631d4876679fad1a9469e76c","E1","batch5","","571","tol_tohand","","","","tol_peg_3","571","571","0","[[0,0,0],[3,2],[0]]","3","[[1,2,0],[3,0],[0]]","2","0","","","","","","4","","","","","","","","",""
"","","","","","single-stim-button","49","115499","0.0-2.0-16.2-1.2","631d4876679fad1a9469e76c","E1","batch5","","772","tol_toboard","","","","tol_peg_1","772","772","0","[[1,0,0],[3,2],[0]]","3","[[1,2,0],[3,0],[0]]","2","0","","","","","","4","","","","","","","","",""
"","","","","","single-stim-button","50","116021","0.0-2.0-16.3-0.3","631d4876679fad1a9469e76c","E1","batch5","","521","tol_tohand","","","","tol_peg_2","521","521","0","[[1,0,0],[3,0],[0]]","4","[[1,2,0],[3,0],[0]]","2","0","","","","","","4","","","","","","","","",""
"","","","","","single-stim-button","51","116653","0.0-2.0-16.3-1.3","631d4876679fad1a9469e76c","E1","batch5","","632","tol_toboard","","","","tol_peg_1","632","632","0","[[1,2,0],[3,0],[0]]","4","[[1,2,0],[3,0],[0]]","2","0","","","","","","4","","","","","","","","",""
"","","","","","poldrack-single-stim","52","117660","0.0-2.0-17.0","631d4876679fad1a9469e76c","E1","batch5","","-1","tol_feedback","","","true","","1000","1000","500","","","","","","-1","none","true","4822","6976","","","","","","","","","",""
"","","","","","html-button-response","53","118755","0.0-2.0-18.0","631d4876679fad1a9469e76c","E1","batch5","","1093.3999999761581","tol_trial_num","<div class = centerbox><p class = center-block-text>problem <strong>4</strong> out of 25 problems</p></div>","0","","","","","","","","","","","","","","","","","","","","","","","","",""
"","","","","","single-stim-button","54","121337","0.0-2.0-19.0-0.0","631d4876679fad1a9469e76c","E1","batch5","","2582","tol_tohand","","","","tol_peg_2","2582","2582","0","[[3,0,0],[2,0],[0]]","1","[[3,0,0],[1,0],[2]]","3","0","","","","","","3","","","","","","","","",""
"","","","","","single-stim-button","55","122069","0.0-2.0-19.0-1.0","631d4876679fad1a9469e76c","E1","batch5","","731","tol_toboard","","","","tol_peg_1","731","731","0","[[3,1,0],[2,0],[0]]","1","[[3,0,0],[1,0],[2]]","3","0","","","","","","3","","","","","","","","",""
"","","","","","single-stim-button","56","122742","0.0-2.0-19.1-0.1","631d4876679fad1a9469e76c","E1","batch5","","672","tol_tohand","","","","tol_peg_2","672","672","0","[[3,1,0],[0,0],[0]]","2","[[3,0,0],[1,0],[2]]","3","0","","","","","","3","","","","","","","","",""
"","","","","","single-stim-button","57","123533","0.0-2.0-19.1-1.1","631d4876679fad1a9469e76c","E1","batch5","","791","tol_toboard","","","","tol_peg_3","791","791","0","[[3,1,0],[0,0],[2]]","2","[[3,0,0],[1,0],[2]]","3","0","","","","","","3","","","","","","","","",""
"","","","","","single-stim-button","58","124155","0.0-2.0-19.2-0.2","631d4876679fad1a9469e76c","E1","batch5","","621","tol_tohand","","","","tol_peg_1","621","621","0","[[3,0,0],[0,0],[2]]","3","[[3,0,0],[1,0],[2]]","3","0","","","","","","3","","","","","","","","",""
"","","","","","single-stim-button","59","124787","0.0-2.0-19.2-1.2","631d4876679fad1a9469e76c","E1","batch5","","632","tol_toboard","","","","tol_peg_2","632","632","0","[[3,0,0],[1,0],[2]]","3","[[3,0,0],[1,0],[2]]","3","0","","","","","","3","","","","","","","","",""
"","","","","","poldrack-single-stim","60","125789","0.0-2.0-20.0","631d4876679fad1a9469e76c","E1","batch5","","-1","tol_feedback","","","true","","1000","1000","500","","","","","","-1","none","true","2582","3875","","","","","","","","","",""
"","","","","","html-button-response","61","126799","0.0-2.0-21.0","631d4876679fad1a9469e76c","E1","batch5","","1009.1000000238419","tol_trial_num","<div class = centerbox><p class = center-block-text>problem <strong>5</strong> out of 25 problems</p></div>","0","","","","","","","","","","","","","","","","","","","","","","","","",""
"","","","","","single-stim-button","62","130531","0.0-2.0-22.0-0.0","631d4876679fad1a9469e76c","E1","batch5","","3731","tol_tohand","","","","tol_peg_3","3731","3731","0","[[1,0,0],[2,0],[0]]","1","[[0,0,0],[1,2],[3]]","4","0","","","","","","7","","","","","","","","",""
"","","","","","single-stim-button","63","134243","0.0-2.0-22.0-1.0","631d4876679fad1a9469e76c","E1","batch5","","3711","tol_toboard","","","","tol_peg_1","3711","3711","0","[[1,3,0],[2,0],[0]]","1","[[0,0,0],[1,2],[3]]","4","0","","","","","","7","","","","","","","","",""
"","","","","","single-stim-button","64","146325","0.0-2.0-22.1-0.1","631d4876679fad1a9469e76c","E1","batch5","","12082","tol_tohand","","","","tol_peg_2","12082","12082","0","[[1,3,0],[0,0],[0]]","2","[[0,0,0],[1,2],[3]]","4","0","","","","","","7","","","","","","","","",""
"","","","","","single-stim-button","65","150107","0.0-2.0-22.1-1.1","631d4876679fad1a9469e76c","E1","batch5","","3781","tol_toboard","","","","tol_peg_2","3781","3781","0","[[1,3,0],[2,0],[0]]","2","[[0,0,0],[1,2],[3]]","4","0","","","","","","7","","","","","","","","",""
"","","","","","single-stim-button","66","163159","0.0-2.0-22.2-0.2","631d4876679fad1a9469e76c","E1","batch5","","13052","tol_tohand","","","","tol_peg_2","13052","13052","0","[[1,3,0],[0,0],[0]]","3","[[0,0,0],[1,2],[3]]","4","0","","","","","","7","","","","","","","","",""
"","","","","","single-stim-button","67","166651","0.0-2.0-22.2-1.2","631d4876679fad1a9469e76c","E1","batch5","","3492","tol_toboard","","","","tol_peg_2","3492","3492","0","[[1,3,0],[2,0],[0]]","3","[[0,0,0],[1,2],[3]]","4","0","","","","","","7","","","","","","","","",""
"","","","","","single-stim-button","68","167283","0.0-2.0-22.3-0.3","631d4876679fad1a9469e76c","E1","batch5","","632","tol_tohand","","","","tol_peg_1","632","632","0","[[1,0,0],[2,0],[0]]","4","[[0,0,0],[1,2],[3]]","4","0","","","","","","7","","","","","","","","",""
"","","","","","single-stim-button","69","167776","0.0-2.0-22.3-1.3","631d4876679fad1a9469e76c","E1","batch5","","493","tol_toboard","","","","tol_peg_2","493","493","0","[[1,0,0],[2,3],[0]]","4","[[0,0,0],[1,2],[3]]","4","0","","","","","","7","","","","","","","","",""
"","","","","","single-stim-button","70","168287","0.0-2.0-22.4-0.4","631d4876679fad1a9469e76c","E1","batch5","","511","tol_tohand","","","","tol_peg_1","511","511","0","[[0,0,0],[2,3],[0]]","5","[[0,0,0],[1,2],[3]]","4","0","","","","","","7","","","","","","","","",""
"","","","","","single-stim-button","71","169741","0.0-2.0-22.4-1.4","631d4876679fad1a9469e76c","E1","batch5","","1454","tol_toboard","","","","tol_peg_3","1454","1454","0","[[0,0,0],[2,3],[1]]","5","[[0,0,0],[1,2],[3]]","4","0","","","","","","7","","","","","","","","",""
"","","","","","single-stim-button","72","171943","0.0-2.0-22.5-0.5","631d4876679fad1a9469e76c","E1","batch5","","2201","tol_tohand","","","","tol_peg_2","2201","2201","0","[[0,0,0],[2,0],[1]]","6","[[0,0,0],[1,2],[3]]","4","0","","","","","","7","","","","","","","","",""
"","","","","","single-stim-button","73","172595","0.0-2.0-22.5-1.5","631d4876679fad1a9469e76c","E1","batch5","","652","tol_toboard","","","","tol_peg_1","652","652","0","[[3,0,0],[2,0],[1]]","6","[[0,0,0],[1,2],[3]]","4","0","","","","","","7","","","","","","","","",""
"","","","","","single-stim-button","74","173077","0.0-2.0-22.6-0.6","631d4876679fad1a9469e76c","E1","batch5","","482","tol_tohand","","","","tol_peg_2","482","482","0","[[3,0,0],[0,0],[1]]","7","[[0,0,0],[1,2],[3]]","4","0","","","","","","7","","","","","","","","",""
"","","","","","single-stim-button","75","173819","0.0-2.0-22.6-1.6","631d4876679fad1a9469e76c","E1","batch5","","742","tol_toboard","","","","tol_peg_1","742","742","0","[[3,2,0],[0,0],[1]]","7","[[0,0,0],[1,2],[3]]","4","0","","","","","","7","","","","","","","","",""
"","","","","","single-stim-button","76","174451","0.0-2.0-22.7-0.7","631d4876679fad1a9469e76c","E1","batch5","","632","tol_tohand","","","","tol_peg_3","632","632","0","[[3,2,0],[0,0],[0]]","8","[[0,0,0],[1,2],[3]]","4","0","","","","","","7","","","","","","","","",""
"","","","","","single-stim-button","77","175143","0.0-2.0-22.7-1.7","631d4876679fad1a9469e76c","E1","batch5","","692","tol_toboard","","","","tol_peg_2","692","692","0","[[3,2,0],[1,0],[0]]","8","[[0,0,0],[1,2],[3]]","4","0","","","","","","7","","","","","","","","",""
"","","","","","single-stim-button","78","175645","0.0-2.0-22.8-0.8","631d4876679fad1a9469e76c","E1","batch5","","502","tol_tohand","","","","tol_peg_1","502","502","0","[[3,0,0],[1,0],[0]]","9","[[0,0,0],[1,2],[3]]","4","0","","","","","","7","","","","","","","","",""
"","","","","","single-stim-button","79","176207","0.0-2.0-22.8-1.8","631d4876679fad1a9469e76c","E1","batch5","","562","tol_toboard","","","","tol_peg_2","562","562","0","[[3,0,0],[1,2],[0]]","9","[[0,0,0],[1,2],[3]]","4","0","","","","","","7","","","","","","","","",""
"","","","","","single-stim-button","80","176799","0.0-2.0-22.9-0.9","631d4876679fad1a9469e76c","E1","batch5","","592","tol_tohand","","","","tol_peg_1","592","592","0","[[0,0,0],[1,2],[0]]","10","[[0,0,0],[1,2],[3]]","4","0","","","","","","7","","","","","","","","",""
"","","","","","single-stim-button","81","177521","0.0-2.0-22.9-1.9","631d4876679fad1a9469e76c","E1","batch5","","721","tol_toboard","","","","tol_peg_3","721","721","0","[[0,0,0],[1,2],[3]]","10","[[0,0,0],[1,2],[3]]","4","0","","","","","","7","","","","","","","","",""
"","","","","","poldrack-single-stim","82","178523","0.0-2.0-23.0","631d4876679fad1a9469e76c","E1","batch5","","-1","tol_feedback","","","true","","1000","1000","500","","","","","","-1","none","true","3731","34417","","","","","","","","","",""
"","","","","","html-button-response","83","179353","0.0-2.0-24.0","631d4876679fad1a9469e76c","E1","batch5","","828.5","tol_trial_num","<div class = centerbox><p class = center-block-text>problem <strong>6</strong> out of 25 problems</p></div>","0","","","","","","","","","","","","","","","","","","","","","","","","",""
"","","","","","single-stim-button","84","186455","0.0-2.0-25.0-0.0","631d4876679fad1a9469e76c","E1","batch5","","7101","tol_tohand","","","","tol_peg_2","7101","7101","0","[[0,0,0],[1,0],[3]]","1","[[1,0,0],[2,3],[0]]","5","0","","","","","","6","","","","","","","","",""
"","","","","","single-stim-button","85","187227","0.0-2.0-25.0-1.0","631d4876679fad1a9469e76c","E1","batch5","","771","tol_toboard","","","","tol_peg_1","771","771","0","[[2,0,0],[1,0],[3]]","1","[[1,0,0],[2,3],[0]]","5","0","","","","","","6","","","","","","","","",""
"","","","","","single-stim-button","86","187998","0.0-2.0-25.1-0.1","631d4876679fad1a9469e76c","E1","batch5","","771","tol_tohand","","","","tol_peg_2","771","771","0","[[2,0,0],[0,0],[3]]","2","[[1,0,0],[2,3],[0]]","5","0","","","","","","6","","","","","","","","",""
"","","","","","single-stim-button","87","188741","0.0-2.0-25.1-1.1","631d4876679fad1a9469e76c","E1","batch5","","742","tol_toboard","","","","tol_peg_1","742","742","0","[[2,1,0],[0,0],[3]]","2","[[1,0,0],[2,3],[0]]","5","0","","","","","","6","","","","","","","","",""
"","","","","","single-stim-button","88","192482","0.0-2.0-25.2-0.2","631d4876679fad1a9469e76c","E1","batch5","","3741","tol_tohand","","","","tol_peg_3","3741","3741","0","[[2,1,0],[0,0],[0]]","3","[[1,0,0],[2,3],[0]]","5","0","","","","","","6","","","","","","","","",""
"","","","","","single-stim-button","89","193115","0.0-2.0-25.2-1.2","631d4876679fad1a9469e76c","E1","batch5","","632","tol_toboard","","","","tol_peg_2","632","632","0","[[2,1,0],[3,0],[0]]","3","[[1,0,0],[2,3],[0]]","5","0","","","","","","6","","","","","","","","",""
"","","","","","single-stim-button","90","193647","0.0-2.0-25.3-0.3","631d4876679fad1a9469e76c","E1","batch5","","531","tol_tohand","","","","tol_peg_1","531","531","0","[[2,0,0],[3,0],[0]]","4","[[1,0,0],[2,3],[0]]","5","0","","","","","","6","","","","","","","","",""
"","","","","","single-stim-button","91","194339","0.0-2.0-25.3-1.3","631d4876679fad1a9469e76c","E1","batch5","","691","tol_toboard","","","","tol_peg_3","691","691","0","[[2,0,0],[3,0],[1]]","4","[[1,0,0],[2,3],[0]]","5","0","","","","","","6","","","","","","","","",""
"","","","","","single-stim-button","92","195292","0.0-2.0-25.4-0.4","631d4876679fad1a9469e76c","E1","batch5","","952","tol_tohand","","","","tol_peg_1","952","952","0","[[0,0,0],[3,0],[1]]","5","[[1,0,0],[2,3],[0]]","5","0","","","","","","6","","","","","","","","",""
"","","","","","single-stim-button","93","195843","0.0-2.0-25.4-1.4","631d4876679fad1a9469e76c","E1","batch5","","551","tol_toboard","","","","tol_peg_2","551","551","0","[[0,0,0],[3,2],[1]]","5","[[1,0,0],[2,3],[0]]","5","0","","","","","","6","","","","","","","","",""
"","","","","","single-stim-button","94","196345","0.0-2.0-25.5-0.5","631d4876679fad1a9469e76c","E1","batch5","","500","tol_tohand","","","","tol_peg_3","500","500","0","[[0,0,0],[3,2],[0]]","6","[[1,0,0],[2,3],[0]]","5","0","","","","","","6","","","","","","","","",""
"","","","","","single-stim-button","95","197116","0.0-2.0-25.5-1.5","631d4876679fad1a9469e76c","E1","batch5","","771","tol_toboard","","","","tol_peg_1","771","771","0","[[1,0,0],[3,2],[0]]","6","[[1,0,0],[2,3],[0]]","5","0","","","","","","6","","","","","","","","",""
"","","","","","single-stim-button","96","200279","0.0-2.0-25.6-0.6","631d4876679fad1a9469e76c","E1","batch5","","3161","tol_tohand","","","","tol_peg_2","3161","3161","0","[[1,0,0],[3,0],[0]]","7","[[1,0,0],[2,3],[0]]","5","0","","","","","","6","","","","","","","","",""
"","","","","","single-stim-button","97","200831","0.0-2.0-25.6-1.6","631d4876679fad1a9469e76c","E1","batch5","","551","tol_toboard","","","","tol_peg_3","551","551","0","[[1,0,0],[3,0],[2]]","7","[[1,0,0],[2,3],[0]]","5","0","","","","","","6","","","","","","","","",""
"","","","","","single-stim-button","98","201293","0.0-2.0-25.7-0.7","631d4876679fad1a9469e76c","E1","batch5","","461","tol_tohand","","","","tol_peg_2","461","461","0","[[1,0,0],[0,0],[2]]","8","[[1,0,0],[2,3],[0]]","5","0","","","","","","6","","","","","","","","",""
"","","","","","single-stim-button","99","202174","0.0-2.0-25.7-1.7","631d4876679fad1a9469e76c","E1","batch5","","881","tol_toboard","","","","tol_peg_1","881","881","0","[[1,3,0],[0,0],[2]]","8","[[1,0,0],[2,3],[0]]","5","0","","","","","","6","","","","","","","","",""
"","","","","","single-stim-button","100","202936","0.0-2.0-25.8-0.8","631d4876679fad1a9469e76c","E1","batch5","","762","tol_tohand","","","","tol_peg_3","762","762","0","[[1,3,0],[0,0],[0]]","9","[[1,0,0],[2,3],[0]]","5","0","","","","","","6","","","","","","","","",""
"","","","","","single-stim-button","101","203528","0.0-2.0-25.8-1.8","631d4876679fad1a9469e76c","E1","batch5","","591","tol_toboard","","","","tol_peg_2","591","591","0","[[1,3,0],[2,0],[0]]","9","[[1,0,0],[2,3],[0]]","5","0","","","","","","6","","","","","","","","",""
"","","","","","single-stim-button","102","204001","0.0-2.0-25.9-0.9","631d4876679fad1a9469e76c","E1","batch5","","471","tol_tohand","","","","tol_peg_1","471","471","0","[[1,0,0],[2,0],[0]]","10","[[1,0,0],[2,3],[0]]","5","0","","","","","","6","","","","","","","","",""
"","","","","","single-stim-button","103","204563","0.0-2.0-25.9-1.9","631d4876679fad1a9469e76c","E1","batch5","","561","tol_toboard","","","","tol_peg_2","561","561","0","[[1,0,0],[2,3],[0]]","10","[[1,0,0],[2,3],[0]]","5","0","","","","","","6","","","","","","","","",""
"","","","","","poldrack-single-stim","104","205564","0.0-2.0-26.0","631d4876679fad1a9469e76c","E1","batch5","","-1","tol_feedback","","","true","","1000","1000","500","","","","","","-1","none","true","7101","18451","","","","","","","","","",""
"","","","","","html-button-response","105","206355","0.0-2.0-27.0","631d4876679fad1a9469e76c","E1","batch5","","789.5","tol_trial_num","<div class = centerbox><p class = center-block-text>problem <strong>7</strong> out of 25 problems</p></div>","0","","","","","","","","","","","","","","","","","","","","","","","","",""
"","","","","","single-stim-button","106","212177","0.0-2.0-28.0-0.0","631d4876679fad1a9469e76c","E1","batch5","","5822","tol_tohand","","","","tol_peg_3","5822","5822","0","[[2,1,0],[0,0],[0]]","1","[[1,2,0],[3,0],[0]]","6","0","","","","","","5","","","","","","","","",""
"","","","","","single-stim-button","107","212939","0.0-2.0-28.0-1.0","631d4876679fad1a9469e76c","E1","batch5","","761","tol_toboard","","","","tol_peg_2","761","761","0","[[2,1,0],[3,0],[0]]","1","[[1,2,0],[3,0],[0]]","6","0","","","","","","5","","","","","","","","",""
"","","","","","single-stim-button","108","213961","0.0-2.0-28.1-0.1","631d4876679fad1a9469e76c","E1","batch5","","1022","tol_tohand","","","","tol_peg_1","1022","1022","0","[[2,0,0],[3,0],[0]]","2","[[1,2,0],[3,0],[0]]","6","0","","","","","","5","","","","","","","","",""
"","","","","","single-stim-button","109","214783","0.0-2.0-28.1-1.1","631d4876679fad1a9469e76c","E1","batch5","","822","tol_toboard","","","","tol_peg_3","822","822","0","[[2,0,0],[3,0],[1]]","2","[[1,2,0],[3,0],[0]]","6","0","","","","","","5","","","","","","","","",""
"","","","","","single-stim-button","110","215515","0.0-2.0-28.2-0.2","631d4876679fad1a9469e76c","E1","batch5","","731","tol_tohand","","","","tol_peg_1","731","731","0","[[0,0,0],[3,0],[1]]","3","[[1,2,0],[3,0],[0]]","6","0","","","","","","5","","","","","","","","",""
"","","","","","single-stim-button","111","216247","0.0-2.0-28.2-1.2","631d4876679fad1a9469e76c","E1","batch5","","731","tol_toboard","","","","tol_peg_2","731","731","0","[[0,0,0],[3,2],[1]]","3","[[1,2,0],[3,0],[0]]","6","0","","","","","","5","","","","","","","","",""
"","","","","","single-stim-button","112","216818","0.0-2.0-28.3-0.3","631d4876679fad1a9469e76c","E1","batch5","","571","tol_tohand","","","","tol_peg_3","571","571","0","[[0,0,0],[3,2],[0]]","4","[[1,2,0],[3,0],[0]]","6","0","","","","","","5","","","","","","","","",""
"","","","","","single-stim-button","113","217450","0.0-2.0-28.3-1.3","631d4876679fad1a9469e76c","E1","batch5","","631","tol_toboard","","","","tol_peg_1","631","631","0","[[1,0,0],[3,2],[0]]","4","[[1,2,0],[3,0],[0]]","6","0","","","","","","5","","","","","","","","",""
"","","","","","single-stim-button","114","218053","0.0-2.0-28.4-0.4","631d4876679fad1a9469e76c","E1","batch5","","601","tol_tohand","","","","tol_peg_2","601","601","0","[[1,0,0],[3,0],[0]]","5","[[1,2,0],[3,0],[0]]","6","0","","","","","","5","","","","","","","","",""
"","","","","","single-stim-button","115","218795","0.0-2.0-28.4-1.4","631d4876679fad1a9469e76c","E1","batch5","","741","tol_toboard","","","","tol_peg_1","741","741","0","[[1,2,0],[3,0],[0]]","5","[[1,2,0],[3,0],[0]]","6","0","","","","","","5","","","","","","","","",""
"","","","","","poldrack-single-stim","116","219800","0.0-2.0-29.0","631d4876679fad1a9469e76c","E1","batch5","","-1","tol_feedback","","","true","","1000","1000","500","","","","","","-1","none","true","5822","8747","","","","","","","","","",""
"","","","","","html-button-response","117","220547","0.0-2.0-30.0","631d4876679fad1a9469e76c","E1","batch5","","745.8999999761581","tol_trial_num","<div class = centerbox><p class = center-block-text>problem <strong>8</strong> out of 25 problems</p></div>","0","","","","","","","","","","","","","","","","","","","","","","","","",""
"","","","","","single-stim-button","118","222798","0.0-2.0-31.0-0.0","631d4876679fad1a9469e76c","E1","batch5","","2251","tol_tohand","","","","tol_peg_3","2251","2251","0","[[0,0,0],[2,3],[0]]","1","[[1,2,0],[3,0],[0]]","7","0","","","","","","4","","","","","","","","",""
"","","","","","single-stim-button","119","223830","0.0-2.0-31.0-1.0","631d4876679fad1a9469e76c","E1","batch5","","1031","tol_toboard","","","","tol_peg_1","1031","1031","0","[[1,0,0],[2,3],[0]]","1","[[1,2,0],[3,0],[0]]","7","0","","","","","","4","","","","","","","","",""
"","","","","","single-stim-button","120","224423","0.0-2.0-31.1-0.1","631d4876679fad1a9469e76c","E1","batch5","","593","tol_tohand","","","","tol_peg_2","593","593","0","[[1,0,0],[2,0],[0]]","2","[[1,2,0],[3,0],[0]]","7","0","","","","","","4","","","","","","","","",""
"","","","","","single-stim-button","121","224985","0.0-2.0-31.1-1.1","631d4876679fad1a9469e76c","E1","batch5","","562","tol_toboard","","","","tol_peg_3","562","562","0","[[1,0,0],[2,0],[3]]","2","[[1,2,0],[3,0],[0]]","7","0","","","","","","4","","","","","","","","",""
"","","","","","single-stim-button","122","225537","0.0-2.0-31.2-0.2","631d4876679fad1a9469e76c","E1","batch5","","551","tol_tohand","","","","tol_peg_2","551","551","0","[[1,0,0],[0,0],[3]]","3","[[1,2,0],[3,0],[0]]","7","0","","","","","","4","","","","","","","","",""
"","","","","","single-stim-button","123","226109","0.0-2.0-31.2-1.2","631d4876679fad1a9469e76c","E1","batch5","","571","tol_toboard","","","","tol_peg_1","571","571","0","[[1,2,0],[0,0],[3]]","3","[[1,2,0],[3,0],[0]]","7","0","","","","","","4","","","","","","","","",""
"","","","","","single-stim-button","124","226781","0.0-2.0-31.3-0.3","631d4876679fad1a9469e76c","E1","batch5","","671","tol_tohand","","","","tol_peg_3","671","671","0","[[1,2,0],[0,0],[0]]","4","[[1,2,0],[3,0],[0]]","7","0","","","","","","4","","","","","","","","",""
"","","","","","single-stim-button","125","227333","0.0-2.0-31.3-1.3","631d4876679fad1a9469e76c","E1","batch5","","551","tol_toboard","","","","tol_peg_2","551","551","0","[[1,2,0],[3,0],[0]]","4","[[1,2,0],[3,0],[0]]","7","0","","","","","","4","","","","","","","","",""
"","","","","","poldrack-single-stim","126","228334","0.0-2.0-32.0","631d4876679fad1a9469e76c","E1","batch5","","-1","tol_feedback","","","true","","1000","1000","500","","","","","","-1","none","true","2251","4066","","","","","","","","","",""
"","","","","","html-button-response","127","229125","0.0-2.0-33.0","631d4876679fad1a9469e76c","E1","batch5","","789.8999999761581","tol_trial_num","<div class = centerbox><p class = center-block-text>problem <strong>9</strong> out of 25 problems</p></div>","0","","","","","","","","","","","","","","","","","","","","","","","","",""
"","","","","","single-stim-button","128","232797","0.0-2.0-34.0-0.0","631d4876679fad1a9469e76c","E1","batch5","","3672","tol_tohand","","","","tol_peg_3","3672","3672","0","[[3,2,0],[0,0],[0]]","1","[[2,1,0],[3,0],[0]]","8","0","","","","","","6","","","","","","","","",""
"","","","","","single-stim-button","129","233599","0.0-2.0-34.0-1.0","631d4876679fad1a9469e76c","E1","batch5","","802","tol_toboard","","","","tol_peg_2","802","802","0","[[3,2,0],[1,0],[0]]","1","[[2,1,0],[3,0],[0]]","8","0","","","","","","6","","","","","","","","",""
"","","","","","single-stim-button","130","234221","0.0-2.0-34.1-0.1","631d4876679fad1a9469e76c","E1","batch5","","621","tol_tohand","","","","tol_peg_1","621","621","0","[[3,0,0],[1,0],[0]]","2","[[2,1,0],[3,0],[0]]","8","0","","","","","","6","","","","","","","","",""
"","","","","","single-stim-button","131","235003","0.0-2.0-34.1-1.1","631d4876679fad1a9469e76c","E1","batch5","","781","tol_toboard","","","","tol_peg_3","781","781","0","[[3,0,0],[1,0],[2]]","2","[[2,1,0],[3,0],[0]]","8","0","","","","","","6","","","","","","","","",""
"","","","","","single-stim-button","132","235755","0.0-2.0-34.2-0.2","631d4876679fad1a9469e76c","E1","batch5","","751","tol_tohand","","","","tol_peg_1","751","751","0","[[0,0,0],[1,0],[2]]","3","[[2,1,0],[3,0],[0]]","8","0","","","","","","6","","","","","","","","",""
"","","","","","single-stim-button","133","236406","0.0-2.0-34.2-1.2","631d4876679fad1a9469e76c","E1","batch5","","651","tol_toboard","","","","tol_peg_2","651","651","0","[[0,0,0],[1,3],[2]]","3","[[2,1,0],[3,0],[0]]","8","0","","","","","","6","","","","","","","","",""
"","","","","","single-stim-button","134","237029","0.0-2.0-34.3-0.3","631d4876679fad1a9469e76c","E1","batch5","","622","tol_tohand","","","","tol_peg_3","622","622","0","[[0,0,0],[1,3],[0]]","4","[[2,1,0],[3,0],[0]]","8","0","","","","","","6","","","","","","","","",""
"","","","","","single-stim-button","135","237691","0.0-2.0-34.3-1.3","631d4876679fad1a9469e76c","E1","batch5","","661","tol_toboard","","","","tol_peg_1","661","661","0","[[2,0,0],[1,3],[0]]","4","[[2,1,0],[3,0],[0]]","8","0","","","","","","6","","","","","","","","",""
"","","","","","single-stim-button","136","238242","0.0-2.0-34.4-0.4","631d4876679fad1a9469e76c","E1","batch5","","551","tol_tohand","","","","tol_peg_2","551","551","0","[[2,0,0],[1,0],[0]]","5","[[2,1,0],[3,0],[0]]","8","0","","","","","","6","","","","","","","","",""
"","","","","","single-stim-button","137","238935","0.0-2.0-34.4-1.4","631d4876679fad1a9469e76c","E1","batch5","","692","tol_toboard","","","","tol_peg_3","692","692","0","[[2,0,0],[1,0],[3]]","5","[[2,1,0],[3,0],[0]]","8","0","","","","","","6","","","","","","","","",""
"","","","","","single-stim-button","138","239486","0.0-2.0-34.5-0.5","631d4876679fad1a9469e76c","E1","batch5","","551","tol_tohand","","","","tol_peg_2","551","551","0","[[2,0,0],[0,0],[3]]","6","[[2,1,0],[3,0],[0]]","8","0","","","","","","6","","","","","","","","",""
"","","","","","single-stim-button","139","240208","0.0-2.0-34.5-1.5","631d4876679fad1a9469e76c","E1","batch5","","721","tol_toboard","","","","tol_peg_1","721","721","0","[[2,1,0],[0,0],[3]]","6","[[2,1,0],[3,0],[0]]","8","0","","","","","","6","","","","","","","","",""
"","","","","","single-stim-button","140","240851","0.0-2.0-34.6-0.6","631d4876679fad1a9469e76c","E1","batch5","","642","tol_tohand","","","","tol_peg_3","642","642","0","[[2,1,0],[0,0],[0]]","7","[[2,1,0],[3,0],[0]]","8","0","","","","","","6","","","","","","","","",""
"","","","","","single-stim-button","141","241443","0.0-2.0-34.6-1.6","631d4876679fad1a9469e76c","E1","batch5","","591","tol_toboard","","","","tol_peg_2","591","591","0","[[2,1,0],[3,0],[0]]","7","[[2,1,0],[3,0],[0]]","8","0","","","","","","6","","","","","","","","",""
"","","","","","poldrack-single-stim","142","242445","0.0-2.0-35.0","631d4876679fad1a9469e76c","E1","batch5","","-1","tol_feedback","","","true","","1000","1000","500","","","","","","-1","none","true","3672","7410","","","","","","","","","",""
"","","","","","html-button-response","143","243195","0.0-2.0-36.0","631d4876679fad1a9469e76c","E1","batch5","","748.7000000476837","tol_trial_num","<div class = centerbox><p class = center-block-text>problem <strong>10</strong> out of 25 problems</p></div>","0","","","","","","","","","","","","","","","","","","","","","","","","",""
"","","","","","single-stim-button","144","245957","0.0-2.0-37.0-0.0","631d4876679fad1a9469e76c","E1","batch5","","2762","tol_tohand","","","","tol_peg_2","2762","2762","0","[[3,0,0],[0,0],[2]]","1","[[3,0,0],[2,1],[0]]","9","0","","","","","","3","","","","","","","","",""
"","","","","","single-stim-button","145","246459","0.0-2.0-37.0-1.0","631d4876679fad1a9469e76c","E1","batch5","","501","tol_toboard","","","","tol_peg_1","501","501","0","[[3,1,0],[0,0],[2]]","1","[[3,0,0],[2,1],[0]]","9","0","","","","","","3","","","","","","","","",""
"","","","","","single-stim-button","146","246941","0.0-2.0-37.1-0.1","631d4876679fad1a9469e76c","E1","batch5","","481","tol_tohand","","","","tol_peg_3","481","481","0","[[3,1,0],[0,0],[0]]","2","[[3,0,0],[2,1],[0]]","9","0","","","","","","3","","","","","","","","",""
"","","","","","single-stim-button","147","247473","0.0-2.0-37.1-1.1","631d4876679fad1a9469e76c","E1","batch5","","531","tol_toboard","","","","tol_peg_2","531","531","0","[[3,1,0],[2,0],[0]]","2","[[3,0,0],[2,1],[0]]","9","0","","","","","","3","","","","","","","","",""
"","","","","","single-stim-button","148","248035","0.0-2.0-37.2-0.2","631d4876679fad1a9469e76c","E1","batch5","","561","tol_tohand","","","","tol_peg_1","561","561","0","[[3,0,0],[2,0],[0]]","3","[[3,0,0],[2,1],[0]]","9","0","","","","","","3","","","","","","","","",""
"","","","","","single-stim-button","149","248627","0.0-2.0-37.2-1.2","631d4876679fad1a9469e76c","E1","batch5","","591","tol_toboard","","","","tol_peg_2","591","591","0","[[3,0,0],[2,1],[0]]","3","[[3,0,0],[2,1],[0]]","9","0","","","","","","3","","","","","","","","",""
"","","","","","poldrack-single-stim","150","249629","0.0-2.0-38.0","631d4876679fad1a9469e76c","E1","batch5","","-1","tol_feedback","","","true","","1000","1000","500","","","","","","-1","none","true","2762","3804","","","","","","","","","",""
"","","","","","html-button-response","151","250359","0.0-2.0-39.0","631d4876679fad1a9469e76c","E1","batch5","","729.2999999523163","tol_trial_num","<div class = centerbox><p class = center-block-text>problem <strong>11</strong> out of 25 problems</p></div>","0","","","","","","","","","","","","","","","","","","","","","","","","",""
"","","","","","single-stim-button","152","253871","0.0-2.0-40.0-0.0","631d4876679fad1a9469e76c","E1","batch5","","3511","tol_tohand","","","","tol_peg_1","3511","3511","0","[[1,0,0],[3,0],[0]]","1","[[2,0,0],[1,3],[0]]","10","0","","","","","","6","","","","","","","","",""
"","","","","","single-stim-button","153","258653","0.0-2.0-40.0-1.0","631d4876679fad1a9469e76c","E1","batch5","","4781","tol_toboard","","","","tol_peg_2","4781","4781","0","[[1,0,0],[3,2],[0]]","1","[[2,0,0],[1,3],[0]]","10","0","","","","","","6","","","","","","","","",""
"","","","","","single-stim-button","154","259185","0.0-2.0-40.1-0.1","631d4876679fad1a9469e76c","E1","batch5","","532","tol_tohand","","","","tol_peg_1","532","532","0","[[0,0,0],[3,2],[0]]","2","[[2,0,0],[1,3],[0]]","10","0","","","","","","6","","","","","","","","",""
"","","","","","single-stim-button","155","260107","0.0-2.0-40.1-1.1","631d4876679fad1a9469e76c","E1","batch5","","922","tol_toboard","","","","tol_peg_3","922","922","0","[[0,0,0],[3,2],[1]]","2","[[2,0,0],[1,3],[0]]","10","0","","","","","","6","","","","","","","","",""
"","","","","","single-stim-button","156","260619","0.0-2.0-40.2-0.2","631d4876679fad1a9469e76c","E1","batch5","","512","tol_tohand","","","","tol_peg_2","512","512","0","[[0,0,0],[3,0],[1]]","3","[[2,0,0],[1,3],[0]]","10","0","","","","","","6","","","","","","","","",""
"","","","","","single-stim-button","157","261271","0.0-2.0-40.2-1.2","631d4876679fad1a9469e76c","E1","batch5","","652","tol_toboard","","","","tol_peg_1","652","652","0","[[2,0,0],[3,0],[1]]","3","[[2,0,0],[1,3],[0]]","10","0","","","","","","6","","","","","","","","",""
"","","","","","single-stim-button","158","262334","0.0-2.0-40.3-0.3","631d4876679fad1a9469e76c","E1","batch5","","1063","tol_tohand","","","","tol_peg_2","1063","1063","0","[[2,0,0],[0,0],[1]]","4","[[2,0,0],[1,3],[0]]","10","0","","","","","","6","","","","","","","","",""
"","","","","","single-stim-button","159","263005","0.0-2.0-40.3-1.3","631d4876679fad1a9469e76c","E1","batch5","","671","tol_toboard","","","","tol_peg_1","671","671","0","[[2,3,0],[0,0],[1]]","4","[[2,0,0],[1,3],[0]]","10","0","","","","","","6","","","","","","","","",""
"","","","","","single-stim-button","160","263497","0.0-2.0-40.4-0.4","631d4876679fad1a9469e76c","E1","batch5","","491","tol_tohand","","","","tol_peg_3","491","491","0","[[2,3,0],[0,0],[0]]","5","[[2,0,0],[1,3],[0]]","10","0","","","","","","6","","","","","","","","",""
"","","","","","single-stim-button","161","264030","0.0-2.0-40.4-1.4","631d4876679fad1a9469e76c","E1","batch5","","533","tol_toboard","","","","tol_peg_2","533","533","0","[[2,3,0],[1,0],[0]]","5","[[2,0,0],[1,3],[0]]","10","0","","","","","","6","","","","","","","","",""
"","","","","","single-stim-button","162","264581","0.0-2.0-40.5-0.5","631d4876679fad1a9469e76c","E1","batch5","","551","tol_tohand","","","","tol_peg_1","551","551","0","[[2,0,0],[1,0],[0]]","6","[[2,0,0],[1,3],[0]]","10","0","","","","","","6","","","","","","","","",""
"","","","","","single-stim-button","163","265053","0.0-2.0-40.5-1.5","631d4876679fad1a9469e76c","E1","batch5","","472","tol_toboard","","","","tol_peg_2","472","472","0","[[2,0,0],[1,3],[0]]","6","[[2,0,0],[1,3],[0]]","10","0","","","","","","6","","","","","","","","",""
"","","","","","poldrack-single-stim","164","266054","0.0-2.0-41.0","631d4876679fad1a9469e76c","E1","batch5","","-1","tol_feedback","","","true","","1000","1000","500","","","","","","-1","none","true","3511","6660","","","","","","","","","",""
"","","","","","html-button-response","165","266915","0.0-2.0-42.0","631d4876679fad1a9469e76c","E1","batch5","","860","tol_trial_num","<div class = centerbox><p class = center-block-text>problem <strong>12</strong> out of 25 problems</p></div>","0","","","","","","","","","","","","","","","","","","","","","","","","",""
"","","","","","single-stim-button","166","270497","0.0-2.0-43.0-0.0","631d4876679fad1a9469e76c","E1","batch5","","3582","tol_tohand","","","","tol_peg_1","3582","3582","0","[[1,0,0],[3,0],[0]]","1","[[2,3,0],[0,0],[1]]","11","0","","","","","","4","","","","","","","","",""
"","","","","","single-stim-button","167","271459","0.0-2.0-43.0-1.0","631d4876679fad1a9469e76c","E1","batch5","","961","tol_toboard","","","","tol_peg_3","961","961","0","[[1,0,0],[3,0],[2]]","1","[[2,3,0],[0,0],[1]]","11","0","","","","","","4","","","","","","","","",""
"","","","","","single-stim-button","168","272721","0.0-2.0-43.1-0.1","631d4876679fad1a9469e76c","E1","batch5","","1262","tol_tohand","","","","tol_peg_1","1262","1262","0","[[0,0,0],[3,0],[2]]","2","[[2,3,0],[0,0],[1]]","11","0","","","","","","4","","","","","","","","",""
"","","","","","single-stim-button","169","273223","0.0-2.0-43.1-1.1","631d4876679fad1a9469e76c","E1","batch5","","501","tol_toboard","","","","tol_peg_2","501","501","0","[[0,0,0],[3,1],[2]]","2","[[2,3,0],[0,0],[1]]","11","0","","","","","","4","","","","","","","","",""
"","","","","","single-stim-button","170","273716","0.0-2.0-43.2-0.2","631d4876679fad1a9469e76c","E1","batch5","","492","tol_tohand","","","","tol_peg_3","492","492","0","[[0,0,0],[3,1],[0]]","3","[[2,3,0],[0,0],[1]]","11","0","","","","","","4","","","","","","","","",""
"","","","","","single-stim-button","171","274387","0.0-2.0-43.2-1.2","631d4876679fad1a9469e76c","E1","batch5","","671","tol_toboard","","","","tol_peg_1","671","671","0","[[2,0,0],[3,1],[0]]","3","[[2,3,0],[0,0],[1]]","11","0","","","","","","4","","","","","","","","",""
"","","","","","single-stim-button","172","274939","0.0-2.0-43.3-0.3","631d4876679fad1a9469e76c","E1","batch5","","551","tol_tohand","","","","tol_peg_2","551","551","0","[[2,0,0],[3,0],[0]]","4","[[2,3,0],[0,0],[1]]","11","0","","","","","","4","","","","","","","","",""
"","","","","","single-stim-button","173","275621","0.0-2.0-43.3-1.3","631d4876679fad1a9469e76c","E1","batch5","","681","tol_toboard","","","","tol_peg_3","681","681","0","[[2,0,0],[3,0],[1]]","4","[[2,3,0],[0,0],[1]]","11","0","","","","","","4","","","","","","","","",""
"","","","","","single-stim-button","174","276084","0.0-2.0-43.4-0.4","631d4876679fad1a9469e76c","E1","batch5","","463","tol_tohand","","","","tol_peg_2","463","463","0","[[2,0,0],[0,0],[1]]","5","[[2,3,0],[0,0],[1]]","11","0","","","","","","4","","","","","","","","",""
"","","","","","single-stim-button","175","276615","0.0-2.0-43.4-1.4","631d4876679fad1a9469e76c","E1","batch5","","531","tol_toboard","","","","tol_peg_1","531","531","0","[[2,3,0],[0,0],[1]]","5","[[2,3,0],[0,0],[1]]","11","0","","","","","","4","","","","","","","","",""
"","","","","","poldrack-single-stim","176","277616","0.0-2.0-44.0","631d4876679fad1a9469e76c","E1","batch5","","-1","tol_feedback","","","true","","1000","1000","500","","","","","","-1","none","true","3582","6350","","","","","","","","","",""
"","","","","","html-button-response","177","278327","0.0-2.0-45.0","631d4876679fad1a9469e76c","E1","batch5","","710.1000000238419","tol_trial_num","<div class = centerbox><p class = center-block-text>problem <strong>13</strong> out of 25 problems</p></div>","0","","","","","","","","","","","","","","","","","","","","","","","","",""
"","","","","","single-stim-button","178","286199","0.0-2.0-46.0-0.0","631d4876679fad1a9469e76c","E1","batch5","","7871","tol_tohand","","","","tol_peg_1","7871","7871","0","[[1,0,0],[3,0],[0]]","1","[[0,0,0],[2,3],[1]]","12","0","","","","","","4","","","","","","","","",""
"","","","","","single-stim-button","179","286711","0.0-2.0-46.0-1.0","631d4876679fad1a9469e76c","E1","batch5","","511","tol_toboard","","","","tol_peg_2","511","511","0","[[1,0,0],[3,2],[0]]","1","[[0,0,0],[2,3],[1]]","12","0","","","","","","4","","","","","","","","",""
"","","","","","single-stim-button","180","287253","0.0-2.0-46.1-0.1","631d4876679fad1a9469e76c","E1","batch5","","541","tol_tohand","","","","tol_peg_1","541","541","0","[[0,0,0],[3,2],[0]]","2","[[0,0,0],[2,3],[1]]","12","0","","","","","","4","","","","","","","","",""
"","","","","","single-stim-button","181","287886","0.0-2.0-46.1-1.1","631d4876679fad1a9469e76c","E1","batch5","","632","tol_toboard","","","","tol_peg_3","632","632","0","[[0,0,0],[3,2],[1]]","2","[[0,0,0],[2,3],[1]]","12","0","","","","","","4","","","","","","","","",""
"","","","","","single-stim-button","182","294638","0.0-2.0-46.2-0.2","631d4876679fad1a9469e76c","E1","batch5","","6751","tol_tohand","","","","tol_peg_3","6751","6751","0","[[0,0,0],[3,2],[0]]","3","[[0,0,0],[2,3],[1]]","12","0","","","","","","4","","","","","","","","",""
"","","","","","single-stim-button","183","295329","0.0-2.0-46.2-1.2","631d4876679fad1a9469e76c","E1","batch5","","690","tol_toboard","","","","tol_peg_1","690","690","0","[[1,0,0],[3,2],[0]]","3","[[0,0,0],[2,3],[1]]","12","0","","","","","","4","","","","","","","","",""
"","","","","","single-stim-button","184","295781","0.0-2.0-46.3-0.3","631d4876679fad1a9469e76c","E1","batch5","","451","tol_tohand","","","","tol_peg_2","451","451","0","[[1,0,0],[3,0],[0]]","4","[[0,0,0],[2,3],[1]]","12","0","","","","","","4","","","","","","","","",""
"","","","","","single-stim-button","185","296404","0.0-2.0-46.3-1.3","631d4876679fad1a9469e76c","E1","batch5","","621","tol_toboard","","","","tol_peg_3","621","621","0","[[1,0,0],[3,0],[2]]","4","[[0,0,0],[2,3],[1]]","12","0","","","","","","4","","","","","","","","",""
"","","","","","single-stim-button","186","296926","0.0-2.0-46.4-0.4","631d4876679fad1a9469e76c","E1","batch5","","521","tol_tohand","","","","tol_peg_1","521","521","0","[[0,0,0],[3,0],[2]]","5","[[0,0,0],[2,3],[1]]","12","0","","","","","","4","","","","","","","","",""
"","","","","","single-stim-button","187","297517","0.0-2.0-46.4-1.4","631d4876679fad1a9469e76c","E1","batch5","","591","tol_toboard","","","","tol_peg_2","591","591","0","[[0,0,0],[3,1],[2]]","5","[[0,0,0],[2,3],[1]]","12","0","","","","","","4","","","","","","","","",""
"","","","","","single-stim-button","188","302489","0.0-2.0-46.5-0.5","631d4876679fad1a9469e76c","E1","batch5","","4971","tol_tohand","","","","tol_peg_3","4971","4971","0","[[0,0,0],[3,1],[0]]","6","[[0,0,0],[2,3],[1]]","12","0","","","","","","4","","","","","","","","",""
"","","","","","single-stim-button","189","303310","0.0-2.0-46.5-1.5","631d4876679fad1a9469e76c","E1","batch5","","821","tol_toboard","","","","tol_peg_1","821","821","0","[[2,0,0],[3,1],[0]]","6","[[0,0,0],[2,3],[1]]","12","0","","","","","","4","","","","","","","","",""
"","","","","","single-stim-button","190","304263","0.0-2.0-46.6-0.6","631d4876679fad1a9469e76c","E1","batch5","","952","tol_tohand","","","","tol_peg_2","952","952","0","[[2,0,0],[3,0],[0]]","7","[[0,0,0],[2,3],[1]]","12","0","","","","","","4","","","","","","","","",""
"","","","","","single-stim-button","191","304845","0.0-2.0-46.6-1.6","631d4876679fad1a9469e76c","E1","batch5","","582","tol_toboard","","","","tol_peg_1","582","582","0","[[2,1,0],[3,0],[0]]","7","[[0,0,0],[2,3],[1]]","12","0","","","","","","4","","","","","","","","",""
"","","","","","single-stim-button","192","306107","0.0-2.0-46.7-0.7","631d4876679fad1a9469e76c","E1","batch5","","1262","tol_tohand","","","","tol_peg_2","1262","1262","0","[[2,1,0],[0,0],[0]]","8","[[0,0,0],[2,3],[1]]","12","0","","","","","","4","","","","","","","","",""
"","","","","","single-stim-button","193","306759","0.0-2.0-46.7-1.7","631d4876679fad1a9469e76c","E1","batch5","","651","tol_toboard","","","","tol_peg_3","651","651","0","[[2,1,0],[0,0],[3]]","8","[[0,0,0],[2,3],[1]]","12","0","","","","","","4","","","","","","","","",""
"","","","","","single-stim-button","194","317771","0.0-2.0-46.8-0.8","631d4876679fad1a9469e76c","E1","batch5","","11012","tol_tohand","","","","tol_peg_3","11012","11012","0","[[2,1,0],[0,0],[0]]","9","[[0,0,0],[2,3],[1]]","12","0","","","","","","4","","","","","","","","",""
"","","","","","single-stim-button","195","318232","0.0-2.0-46.8-1.8","631d4876679fad1a9469e76c","E1","batch5","","460","tol_toboard","","","","tol_peg_2","460","460","0","[[2,1,0],[3,0],[0]]","9","[[0,0,0],[2,3],[1]]","12","0","","","","","","4","","","","","","","","",""
"","","","","","single-stim-button","196","318615","0.0-2.0-46.9-0.9","631d4876679fad1a9469e76c","E1","batch5","","382","tol_tohand","","","","tol_peg_1","382","382","0","[[2,0,0],[3,0],[0]]","10","[[0,0,0],[2,3],[1]]","12","0","","","","","","4","","","","","","","","",""
"","","","","","single-stim-button","197","319097","0.0-2.0-46.9-1.9","631d4876679fad1a9469e76c","E1","batch5","","482","tol_toboard","","","","tol_peg_2","482","482","0","[[2,0,0],[3,1],[0]]","10","[[0,0,0],[2,3],[1]]","12","0","","","","","","4","","","","","","","","",""
"","","","","","single-stim-button","198","319659","0.0-2.0-46.10-0.10","631d4876679fad1a9469e76c","E1","batch5","","562","tol_tohand","","","","tol_peg_1","562","562","0","[[0,0,0],[3,1],[0]]","11","[[0,0,0],[2,3],[1]]","12","0","","","","","","4","","","","","","","","",""
"","","","","","single-stim-button","199","320741","0.0-2.0-46.10-1.10","631d4876679fad1a9469e76c","E1","batch5","","1080","tol_toboard","","","","tol_peg_3","1080","1080","0","[[0,0,0],[3,1],[2]]","11","[[0,0,0],[2,3],[1]]","12","0","","","","","","4","","","","","","","","",""
"","","","","","single-stim-button","200","322403","0.0-2.0-46.11-0.11","631d4876679fad1a9469e76c","E1","batch5","","1662","tol_tohand","","","","tol_peg_2","1662","1662","0","[[0,0,0],[3,0],[2]]","12","[[0,0,0],[2,3],[1]]","12","0","","","","","","4","","","","","","","","",""
"","","","","","single-stim-button","201","323435","0.0-2.0-46.11-1.11","631d4876679fad1a9469e76c","E1","batch5","","1031","tol_toboard","","","","tol_peg_1","1031","1031","0","[[1,0,0],[3,0],[2]]","12","[[0,0,0],[2,3],[1]]","12","0","","","","","","4","","","","","","","","",""
"","","","","","single-stim-button","202","323927","0.0-2.0-46.12-0.12","631d4876679fad1a9469e76c","E1","batch5","","491","tol_tohand","","","","tol_peg_2","491","491","0","[[1,0,0],[0,0],[2]]","13","[[0,0,0],[2,3],[1]]","12","0","","","","","","4","","","","","","","","",""
"","","","","","single-stim-button","203","324419","0.0-2.0-46.12-1.12","631d4876679fad1a9469e76c","E1","batch5","","492","tol_toboard","","","","tol_peg_1","492","492","0","[[1,3,0],[0,0],[2]]","13","[[0,0,0],[2,3],[1]]","12","0","","","","","","4","","","","","","","","",""
"","","","","","single-stim-button","204","325010","0.0-2.0-46.13-0.13","631d4876679fad1a9469e76c","E1","batch5","","591","tol_tohand","","","","tol_peg_3","591","591","0","[[1,3,0],[0,0],[0]]","14","[[0,0,0],[2,3],[1]]","12","0","","","","","","4","","","","","","","","",""
"","","","","","single-stim-button","205","325593","0.0-2.0-46.13-1.13","631d4876679fad1a9469e76c","E1","batch5","","581","tol_toboard","","","","tol_peg_2","581","581","0","[[1,3,0],[2,0],[0]]","14","[[0,0,0],[2,3],[1]]","12","0","","","","","","4","","","","","","","","",""
"","","","","","single-stim-button","206","326165","0.0-2.0-46.14-0.14","631d4876679fad1a9469e76c","E1","batch5","","572","tol_tohand","","","","tol_peg_1","572","572","0","[[1,0,0],[2,0],[0]]","15","[[0,0,0],[2,3],[1]]","12","0","","","","","","4","","","","","","","","",""
"","","","","","single-stim-button","207","326767","0.0-2.0-46.14-1.14","631d4876679fad1a9469e76c","E1","batch5","","602","tol_toboard","","","","tol_peg_2","602","602","0","[[1,0,0],[2,3],[0]]","15","[[0,0,0],[2,3],[1]]","12","0","","","","","","4","","","","","","","","",""
"","","","","","single-stim-button","208","327409","0.0-2.0-46.15-0.15","631d4876679fad1a9469e76c","E1","batch5","","641","tol_tohand","","","","tol_peg_1","641","641","0","[[0,0,0],[2,3],[0]]","16","[[0,0,0],[2,3],[1]]","12","0","","","","","","4","","","","","","","","",""
"","","","","","single-stim-button","209","328151","0.0-2.0-46.15-1.15","631d4876679fad1a9469e76c","E1","batch5","","741","tol_toboard","","","","tol_peg_3","741","741","0","[[0,0,0],[2,3],[1]]","16","[[0,0,0],[2,3],[1]]","12","0","","","","","","4","","","","","","","","",""
"","","","","","poldrack-single-stim","210","329152","0.0-2.0-47.0","631d4876679fad1a9469e76c","E1","batch5","","-1","tol_feedback","","","true","","1000","1000","500","","","","","","-1","none","true","7871","39233","","","","","","","","","",""
"","","","","","html-button-response","211","331183","0.0-2.0-48.0","631d4876679fad1a9469e76c","E1","batch5","","2029.1000000238419","attention_check","<p class = block-text>How many balls are in your board<br></p>","1","true","","","","","","","","","","","","","","","","","","","","","","","",""
"","","","","","html-button-response","212","332055","0.0-2.0-49.0","631d4876679fad1a9469e76c","E1","batch5","","871.2000000476837","tol_trial_num","<div class = centerbox><p class = center-block-text>problem <strong>14</strong> out of 25 problems</p></div>","0","","","","","","","","","","","","","","","","","","","","","","","","",""
"","","","","","single-stim-button","213","336657","0.0-2.0-50.0-0.0","631d4876679fad1a9469e76c","E1","batch5","","4602","tol_tohand","","","","tol_peg_1","4602","4602","0","[[2,0,0],[3,0],[0]]","1","[[1,2,0],[3,0],[0]]","13","0","","","","","","4","","","","","","","","",""
"","","","","","single-stim-button","214","337269","0.0-2.0-50.0-1.0","631d4876679fad1a9469e76c","E1","batch5","","612","tol_toboard","","","","tol_peg_3","612","612","0","[[2,0,0],[3,0],[1]]","1","[[1,2,0],[3,0],[0]]","13","0","","","","","","4","","","","","","","","",""
"","","","","","single-stim-button","215","337811","0.0-2.0-50.1-0.1","631d4876679fad1a9469e76c","E1","batch5","","542","tol_tohand","","","","tol_peg_1","542","542","0","[[0,0,0],[3,0],[1]]","2","[[1,2,0],[3,0],[0]]","13","0","","","","","","4","","","","","","","","",""
"","","","","","single-stim-button","216","338322","0.0-2.0-50.1-1.1","631d4876679fad1a9469e76c","E1","batch5","","511","tol_toboard","","","","tol_peg_2","511","511","0","[[0,0,0],[3,2],[1]]","2","[[1,2,0],[3,0],[0]]","13","0","","","","","","4","","","","","","","","",""
"","","","","","single-stim-button","217","338945","0.0-2.0-50.2-0.2","631d4876679fad1a9469e76c","E1","batch5","","622","tol_tohand","","","","tol_peg_3","622","622","0","[[0,0,0],[3,2],[0]]","3","[[1,2,0],[3,0],[0]]","13","0","","","","","","4","","","","","","","","",""
"","","","","","single-stim-button","218","339527","0.0-2.0-50.2-1.2","631d4876679fad1a9469e76c","E1","batch5","","581","tol_toboard","","","","tol_peg_1","581","581","0","[[1,0,0],[3,2],[0]]","3","[[1,2,0],[3,0],[0]]","13","0","","","","","","4","","","","","","","","",""
"","","","","","single-stim-button","219","340048","0.0-2.0-50.3-0.3","631d4876679fad1a9469e76c","E1","batch5","","521","tol_tohand","","","","tol_peg_2","521","521","0","[[1,0,0],[3,0],[0]]","4","[[1,2,0],[3,0],[0]]","13","0","","","","","","4","","","","","","","","",""
"","","","","","single-stim-button","220","340551","0.0-2.0-50.3-1.3","631d4876679fad1a9469e76c","E1","batch5","","502","tol_toboard","","","","tol_peg_1","502","502","0","[[1,2,0],[3,0],[0]]","4","[[1,2,0],[3,0],[0]]","13","0","","","","","","4","","","","","","","","",""
"","","","","","poldrack-single-stim","221","341552","0.0-2.0-51.0","631d4876679fad1a9469e76c","E1","batch5","","-1","tol_feedback","","","true","","1000","1000","500","","","","","","-1","none","true","4602","6287","","","","","","","","","",""
"","","","","","html-button-response","222","342392","0.0-2.0-52.0","631d4876679fad1a9469e76c","E1","batch5","","839.2000000476837","tol_trial_num","<div class = centerbox><p class = center-block-text>problem <strong>15</strong> out of 25 problems</p></div>","0","","","","","","","","","","","","","","","","","","","","","","","","",""
"","","","","","single-stim-button","223","345095","0.0-2.0-53.0-0.0","631d4876679fad1a9469e76c","E1","batch5","","2702","tol_tohand","","","","tol_peg_1","2702","2702","0","[[1,0,0],[3,0],[0]]","1","[[2,0,0],[3,0],[1]]","14","0","","","","","","3","","","","","","","","",""
"","","","","","single-stim-button","224","345757","0.0-2.0-53.0-1.0","631d4876679fad1a9469e76c","E1","batch5","","662","tol_toboard","","","","tol_peg_2","662","662","0","[[1,0,0],[3,2],[0]]","1","[[2,0,0],[3,0],[1]]","14","0","","","","","","3","","","","","","","","",""
"","","","","","single-stim-button","225","346329","0.0-2.0-53.1-0.1","631d4876679fad1a9469e76c","E1","batch5","","572","tol_tohand","","","","tol_peg_1","572","572","0","[[0,0,0],[3,2],[0]]","2","[[2,0,0],[3,0],[1]]","14","0","","","","","","3","","","","","","","","",""
"","","","","","single-stim-button","226","347070","0.0-2.0-53.1-1.1","631d4876679fad1a9469e76c","E1","batch5","","741","tol_toboard","","","","tol_peg_3","741","741","0","[[0,0,0],[3,2],[1]]","2","[[2,0,0],[3,0],[1]]","14","0","","","","","","3","","","","","","","","",""
"","","","","","single-stim-button","227","347553","0.0-2.0-53.2-0.2","631d4876679fad1a9469e76c","E1","batch5","","481","tol_tohand","","","","tol_peg_2","481","481","0","[[0,0,0],[3,0],[1]]","3","[[2,0,0],[3,0],[1]]","14","0","","","","","","3","","","","","","","","",""
"","","","","","single-stim-button","228","348255","0.0-2.0-53.2-1.2","631d4876679fad1a9469e76c","E1","batch5","","701","tol_toboard","","","","tol_peg_1","701","701","0","[[2,0,0],[3,0],[1]]","3","[[2,0,0],[3,0],[1]]","14","0","","","","","","3","","","","","","","","",""
"","","","","","poldrack-single-stim","229","349255","0.0-2.0-54.0","631d4876679fad1a9469e76c","E1","batch5","","-1","tol_feedback","","","true","","1000","1000","500","","","","","","-1","none","true","2702","3755","","","","","","","","","",""
"","","","","","html-button-response","230","349887","0.0-2.0-55.0","631d4876679fad1a9469e76c","E1","batch5","","630.3999999761581","tol_trial_num","<div class = centerbox><p class = center-block-text>problem <strong>16</strong> out of 25 problems</p></div>","0","","","","","","","","","","","","","","","","","","","","","","","","",""
"","","","","","single-stim-button","231","356589","0.0-2.0-56.0-0.0","631d4876679fad1a9469e76c","E1","batch5","","6702","tol_tohand","","","","tol_peg_2","6702","6702","0","[[0,0,0],[2,0],[1]]","1","[[2,3,0],[1,0],[0]]","15","0","","","","","","7","","","","","","","","",""
"","","","","","single-stim-button","232","357751","0.0-2.0-56.0-1.0","631d4876679fad1a9469e76c","E1","batch5","","1162","tol_toboard","","","","tol_peg_1","1162","1162","0","[[3,0,0],[2,0],[1]]","1","[[2,3,0],[1,0],[0]]","15","0","","","","","","7","","","","","","","","",""
"","","","","","single-stim-button","233","358323","0.0-2.0-56.1-0.1","631d4876679fad1a9469e76c","E1","batch5","","571","tol_tohand","","","","tol_peg_2","571","571","0","[[3,0,0],[0,0],[1]]","2","[[2,3,0],[1,0],[0]]","15","0","","","","","","7","","","","","","","","",""
"","","","","","single-stim-button","234","358785","0.0-2.0-56.1-1.1","631d4876679fad1a9469e76c","E1","batch5","","462","tol_toboard","","","","tol_peg_1","462","462","0","[[3,2,0],[0,0],[1]]","2","[[2,3,0],[1,0],[0]]","15","0","","","","","","7","","","","","","","","",""
"","","","","","single-stim-button","235","359347","0.0-2.0-56.2-0.2","631d4876679fad1a9469e76c","E1","batch5","","562","tol_tohand","","","","tol_peg_3","562","562","0","[[3,2,0],[0,0],[0]]","3","[[2,3,0],[1,0],[0]]","15","0","","","","","","7","","","","","","","","",""
"","","","","","single-stim-button","236","359899","0.0-2.0-56.2-1.2","631d4876679fad1a9469e76c","E1","batch5","","551","tol_toboard","","","","tol_peg_2","551","551","0","[[3,2,0],[1,0],[0]]","3","[[2,3,0],[1,0],[0]]","15","0","","","","","","7","","","","","","","","",""
"","","","","","single-stim-button","237","360371","0.0-2.0-56.3-0.3","631d4876679fad1a9469e76c","E1","batch5","","471","tol_tohand","","","","tol_peg_1","471","471","0","[[3,0,0],[1,0],[0]]","4","[[2,3,0],[1,0],[0]]","15","0","","","","","","7","","","","","","","","",""
"","","","","","single-stim-button","238","361163","0.0-2.0-56.3-1.3","631d4876679fad1a9469e76c","E1","batch5","","792","tol_toboard","","","","tol_peg_3","792","792","0","[[3,0,0],[1,0],[2]]","4","[[2,3,0],[1,0],[0]]","15","0","","","","","","7","","","","","","","","",""
"","","","","","single-stim-button","239","361935","0.0-2.0-56.4-0.4","631d4876679fad1a9469e76c","E1","batch5","","772","tol_tohand","","","","tol_peg_1","772","772","0","[[0,0,0],[1,0],[2]]","5","[[2,3,0],[1,0],[0]]","15","0","","","","","","7","","","","","","","","",""
"","","","","","single-stim-button","240","362547","0.0-2.0-56.4-1.4","631d4876679fad1a9469e76c","E1","batch5","","612","tol_toboard","","","","tol_peg_2","612","612","0","[[0,0,0],[1,3],[2]]","5","[[2,3,0],[1,0],[0]]","15","0","","","","","","7","","","","","","","","",""
"","","","","","single-stim-button","241","363009","0.0-2.0-56.5-0.5","631d4876679fad1a9469e76c","E1","batch5","","462","tol_tohand","","","","tol_peg_3","462","462","0","[[0,0,0],[1,3],[0]]","6","[[2,3,0],[1,0],[0]]","15","0","","","","","","7","","","","","","","","",""
"","","","","","single-stim-button","242","363591","0.0-2.0-56.5-1.5","631d4876679fad1a9469e76c","E1","batch5","","580","tol_toboard","","","","tol_peg_1","580","580","0","[[2,0,0],[1,3],[0]]","6","[[2,3,0],[1,0],[0]]","15","0","","","","","","7","","","","","","","","",""
"","","","","","single-stim-button","243","364063","0.0-2.0-56.6-0.6","631d4876679fad1a9469e76c","E1","batch5","","472","tol_tohand","","","","tol_peg_2","472","472","0","[[2,0,0],[1,0],[0]]","7","[[2,3,0],[1,0],[0]]","15","0","","","","","","7","","","","","","","","",""
"","","","","","single-stim-button","244","364585","0.0-2.0-56.6-1.6","631d4876679fad1a9469e76c","E1","batch5","","522","tol_toboard","","","","tol_peg_1","522","522","0","[[2,3,0],[1,0],[0]]","7","[[2,3,0],[1,0],[0]]","15","0","","","","","","7","","","","","","","","",""
"","","","","","poldrack-single-stim","245","365587","0.0-2.0-57.0","631d4876679fad1a9469e76c","E1","batch5","","-1","tol_feedback","","","true","","1000","1000","500","","","","","","-1","none","true","6702","10012","","","","","","","","","",""
"","","","","","html-button-response","246","366177","0.0-2.0-58.0","631d4876679fad1a9469e76c","E1","batch5","","589","tol_trial_num","<div class = centerbox><p class = center-block-text>problem <strong>17</strong> out of 25 problems</p></div>","0","","","","","","","","","","","","","","","","","","","","","","","","",""
"","","","","","single-stim-button","247","369269","0.0-2.0-59.0-0.0","631d4876679fad1a9469e76c","E1","batch5","","3092","tol_tohand","","","","tol_peg_2","3092","3092","0","[[1,2,0],[0,0],[0]]","1","[[3,1,0],[2,0],[0]]","16","0","","","","","","5","","","","","","","","",""
"","","","","","single-stim-button","248","370382","0.0-2.0-59.0-1.0","631d4876679fad1a9469e76c","E1","batch5","","1112","tol_toboard","","","","tol_peg_3","1112","1112","0","[[1,2,0],[0,0],[3]]","1","[[3,1,0],[2,0],[0]]","16","0","","","","","","5","","","","","","","","",""
"","","","","","single-stim-button","249","370863","0.0-2.0-59.1-0.1","631d4876679fad1a9469e76c","E1","batch5","","481","tol_tohand","","","","tol_peg_1","481","481","0","[[1,0,0],[0,0],[3]]","2","[[3,1,0],[2,0],[0]]","16","0","","","","","","5","","","","","","","","",""
"","","","","","single-stim-button","250","371375","0.0-2.0-59.1-1.1","631d4876679fad1a9469e76c","E1","batch5","","512","tol_toboard","","","","tol_peg_2","512","512","0","[[1,0,0],[2,0],[3]]","2","[[3,1,0],[2,0],[0]]","16","0","","","","","","5","","","","","","","","",""
"","","","","","single-stim-button","251","371888","0.0-2.0-59.2-0.2","631d4876679fad1a9469e76c","E1","batch5","","512","tol_tohand","","","","tol_peg_1","512","512","0","[[0,0,0],[2,0],[3]]","3","[[3,1,0],[2,0],[0]]","16","0","","","","","","5","","","","","","","","",""
"","","","","","single-stim-button","252","372509","0.0-2.0-59.2-1.2","631d4876679fad1a9469e76c","E1","batch5","","621","tol_toboard","","","","tol_peg_2","621","621","0","[[0,0,0],[2,1],[3]]","3","[[3,1,0],[2,0],[0]]","16","0","","","","","","5","","","","","","","","",""
"","","","","","single-stim-button","253","373011","0.0-2.0-59.3-0.3","631d4876679fad1a9469e76c","E1","batch5","","502","tol_tohand","","","","tol_peg_3","502","502","0","[[0,0,0],[2,1],[0]]","4","[[3,1,0],[2,0],[0]]","16","0","","","","","","5","","","","","","","","",""
"","","","","","single-stim-button","254","373794","0.0-2.0-59.3-1.3","631d4876679fad1a9469e76c","E1","batch5","","783","tol_toboard","","","","tol_peg_1","783","783","0","[[3,0,0],[2,1],[0]]","4","[[3,1,0],[2,0],[0]]","16","0","","","","","","5","","","","","","","","",""
"","","","","","single-stim-button","255","374255","0.0-2.0-59.4-0.4","631d4876679fad1a9469e76c","E1","batch5","","461","tol_tohand","","","","tol_peg_2","461","461","0","[[3,0,0],[2,0],[0]]","5","[[3,1,0],[2,0],[0]]","16","0","","","","","","5","","","","","","","","",""
"","","","","","single-stim-button","256","374757","0.0-2.0-59.4-1.4","631d4876679fad1a9469e76c","E1","batch5","","502","tol_toboard","","","","tol_peg_1","502","502","0","[[3,1,0],[2,0],[0]]","5","[[3,1,0],[2,0],[0]]","16","0","","","","","","5","","","","","","","","",""
"","","","","","poldrack-single-stim","257","375758","0.0-2.0-60.0","631d4876679fad1a9469e76c","E1","batch5","","-1","tol_feedback","","","true","","1000","1000","500","","","","","","-1","none","true","3092","5048","","","","","","","","","",""
"","","","","","html-button-response","258","376429","0.0-2.0-61.0","631d4876679fad1a9469e76c","E1","batch5","","670.3000000715256","tol_trial_num","<div class = centerbox><p class = center-block-text>problem <strong>18</strong> out of 25 problems</p></div>","0","","","","","","","","","","","","","","","","","","","","","","","","",""
"","","","","","single-stim-button","259","380211","0.0-2.0-62.0-0.0","631d4876679fad1a9469e76c","E1","batch5","","3782","tol_tohand","","","","tol_peg_2","3782","3782","0","[[1,2,0],[0,0],[0]]","1","[[3,0,0],[2,0],[1]]","17","0","","","","","","5","","","","","","","","",""
"","","","","","single-stim-button","260","380933","0.0-2.0-62.0-1.0","631d4876679fad1a9469e76c","E1","batch5","","722","tol_toboard","","","","tol_peg_3","722","722","0","[[1,2,0],[0,0],[3]]","1","[[3,0,0],[2,0],[1]]","17","0","","","","","","5","","","","","","","","",""
"","","","","","single-stim-button","261","381505","0.0-2.0-62.1-0.1","631d4876679fad1a9469e76c","E1","batch5","","572","tol_tohand","","","","tol_peg_1","572","572","0","[[1,0,0],[0,0],[3]]","2","[[3,0,0],[2,0],[1]]","17","0","","","","","","5","","","","","","","","",""
"","","","","","single-stim-button","262","382127","0.0-2.0-62.1-1.1","631d4876679fad1a9469e76c","E1","batch5","","622","tol_toboard","","","","tol_peg_2","622","622","0","[[1,0,0],[2,0],[3]]","2","[[3,0,0],[2,0],[1]]","17","0","","","","","","5","","","","","","","","",""
"","","","","","single-stim-button","263","382689","0.0-2.0-62.2-0.2","631d4876679fad1a9469e76c","E1","batch5","","562","tol_tohand","","","","tol_peg_1","562","562","0","[[0,0,0],[2,0],[3]]","3","[[3,0,0],[2,0],[1]]","17","0","","","","","","5","","","","","","","","",""
"","","","","","single-stim-button","264","383341","0.0-2.0-62.2-1.2","631d4876679fad1a9469e76c","E1","batch5","","652","tol_toboard","","","","tol_peg_2","652","652","0","[[0,0,0],[2,1],[3]]","3","[[3,0,0],[2,0],[1]]","17","0","","","","","","5","","","","","","","","",""
"","","","","","single-stim-button","265","383803","0.0-2.0-62.3-0.3","631d4876679fad1a9469e76c","E1","batch5","","462","tol_tohand","","","","tol_peg_3","462","462","0","[[0,0,0],[2,1],[0]]","4","[[3,0,0],[2,0],[1]]","17","0","","","","","","5","","","","","","","","",""
"","","","","","single-stim-button","266","384695","0.0-2.0-62.3-1.3","631d4876679fad1a9469e76c","E1","batch5","","892","tol_toboard","","","","tol_peg_1","892","892","0","[[3,0,0],[2,1],[0]]","4","[[3,0,0],[2,0],[1]]","17","0","","","","","","5","","","","","","","","",""
"","","","","","single-stim-button","267","385157","0.0-2.0-62.4-0.4","631d4876679fad1a9469e76c","E1","batch5","","461","tol_tohand","","","","tol_peg_2","461","461","0","[[3,0,0],[2,0],[0]]","5","[[3,0,0],[2,0],[1]]","17","0","","","","","","5","","","","","","","","",""
"","","","","","single-stim-button","268","385739","0.0-2.0-62.4-1.4","631d4876679fad1a9469e76c","E1","batch5","","582","tol_toboard","","","","tol_peg_3","582","582","0","[[3,0,0],[2,0],[1]]","5","[[3,0,0],[2,0],[1]]","17","0","","","","","","5","","","","","","","","",""
"","","","","","poldrack-single-stim","269","386740","0.0-2.0-63.0","631d4876679fad1a9469e76c","E1","batch5","","-1","tol_feedback","","","true","","1000","1000","500","","","","","","-1","none","true","3782","5839","","","","","","","","","",""
"","","","","","html-button-response","270","387621","0.0-2.0-64.0","631d4876679fad1a9469e76c","E1","batch5","","879.5","tol_trial_num","<div class = centerbox><p class = center-block-text>problem <strong>19</strong> out of 25 problems</p></div>","0","","","","","","","","","","","","","","","","","","","","","","","","",""
"","","","","","single-stim-button","271","391943","0.0-2.0-65.0-0.0","631d4876679fad1a9469e76c","E1","batch5","","4322","tol_tohand","","","","tol_peg_1","4322","4322","0","[[1,0,0],[3,0],[0]]","1","[[0,0,0],[1,2],[3]]","18","0","","","","","","7","","","","","","","","",""
"","","","","","single-stim-button","272","392555","0.0-2.0-65.0-1.0","631d4876679fad1a9469e76c","E1","batch5","","612","tol_toboard","","","","tol_peg_2","612","612","0","[[1,0,0],[3,2],[0]]","1","[[0,0,0],[1,2],[3]]","18","0","","","","","","7","","","","","","","","",""
"","","","","","single-stim-button","273","393067","0.0-2.0-65.1-0.1","631d4876679fad1a9469e76c","E1","batch5","","512","tol_tohand","","","","tol_peg_1","512","512","0","[[0,0,0],[3,2],[0]]","2","[[0,0,0],[1,2],[3]]","18","0","","","","","","7","","","","","","","","",""
"","","","","","single-stim-button","274","393789","0.0-2.0-65.1-1.1","631d4876679fad1a9469e76c","E1","batch5","","721","tol_toboard","","","","tol_peg_3","721","721","0","[[0,0,0],[3,2],[1]]","2","[[0,0,0],[1,2],[3]]","18","0","","","","","","7","","","","","","","","",""
"","","","","","single-stim-button","275","395051","0.0-2.0-65.2-0.2","631d4876679fad1a9469e76c","E1","batch5","","1262","tol_tohand","","","","tol_peg_2","1262","1262","0","[[0,0,0],[3,0],[1]]","3","[[0,0,0],[1,2],[3]]","18","0","","","","","","7","","","","","","","","",""
"","","","","","single-stim-button","276","395753","0.0-2.0-65.2-1.2","631d4876679fad1a9469e76c","E1","batch5","","702","tol_toboard","","","","tol_peg_1","702","702","0","[[2,0,0],[3,0],[1]]","3","[[0,0,0],[1,2],[3]]","18","0","","","","","","7","","","","","","","","",""
"","","","","","single-stim-button","277","396325","0.0-2.0-65.3-0.3","631d4876679fad1a9469e76c","E1","batch5","","571","tol_tohand","","","","tol_peg_2","571","571","0","[[2,0,0],[0,0],[1]]","4","[[0,0,0],[1,2],[3]]","18","0","","","","","","7","","","","","","","","",""
"","","","","","single-stim-button","278","396927","0.0-2.0-65.3-1.3","631d4876679fad1a9469e76c","E1","batch5","","602","tol_toboard","","","","tol_peg_1","602","602","0","[[2,3,0],[0,0],[1]]","4","[[0,0,0],[1,2],[3]]","18","0","","","","","","7","","","","","","","","",""
"","","","","","single-stim-button","279","397529","0.0-2.0-65.4-0.4","631d4876679fad1a9469e76c","E1","batch5","","602","tol_tohand","","","","tol_peg_3","602","602","0","[[2,3,0],[0,0],[0]]","5","[[0,0,0],[1,2],[3]]","18","0","","","","","","7","","","","","","","","",""
"","","","","","single-stim-button","280","398131","0.0-2.0-65.4-1.4","631d4876679fad1a9469e76c","E1","batch5","","602","tol_toboard","","","","tol_peg_2","602","602","0","[[2,3,0],[1,0],[0]]","5","[[0,0,0],[1,2],[3]]","18","0","","","","","","7","","","","","","","","",""
"","","","","","single-stim-button","281","398703","0.0-2.0-65.5-0.5","631d4876679fad1a9469e76c","E1","batch5","","572","tol_tohand","","","","tol_peg_1","572","572","0","[[2,0,0],[1,0],[0]]","6","[[0,0,0],[1,2],[3]]","18","0","","","","","","7","","","","","","","","",""
"","","","","","single-stim-button","282","399405","0.0-2.0-65.5-1.5","631d4876679fad1a9469e76c","E1","batch5","","701","tol_toboard","","","","tol_peg_3","701","701","0","[[2,0,0],[1,0],[3]]","6","[[0,0,0],[1,2],[3]]","18","0","","","","","","7","","","","","","","","",""
"","","","","","single-stim-button","283","400137","0.0-2.0-65.6-0.6","631d4876679fad1a9469e76c","E1","batch5","","732","tol_tohand","","","","tol_peg_1","732","732","0","[[0,0,0],[1,0],[3]]","7","[[0,0,0],[1,2],[3]]","18","0","","","","","","7","","","","","","","","",""
"","","","","","single-stim-button","284","400789","0.0-2.0-65.6-1.6","631d4876679fad1a9469e76c","E1","batch5","","652","tol_toboard","","","","tol_peg_2","652","652","0","[[0,0,0],[1,2],[3]]","7","[[0,0,0],[1,2],[3]]","18","0","","","","","","7","","","","","","","","",""
"","","","","","poldrack-single-stim","285","401791","0.0-2.0-66.0","631d4876679fad1a9469e76c","E1","batch5","","-1","tol_feedback","","","true","","1000","1000","500","","","","","","-1","none","true","4322","8573","","","","","","","","","",""
"","","","","","html-button-response","286","402331","0.0-2.0-67.0","631d4876679fad1a9469e76c","E1","batch5","","539.1000000238419","tol_trial_num","<div class = centerbox><p class = center-block-text>problem <strong>20</strong> out of 25 problems</p></div>","0","","","","","","","","","","","","","","","","","","","","","","","","",""
"","","","","","single-stim-button","287","403943","0.0-2.0-68.0-0.0","631d4876679fad1a9469e76c","E1","batch5","","1612","tol_tohand","","","","tol_peg_2","1612","1612","0","[[1,2,0],[0,0],[0]]","1","[[2,1,0],[0,0],[3]]","19","0","","","","","","5","","","","","","","","",""
"","","","","","single-stim-button","288","405935","0.0-2.0-68.0-1.0","631d4876679fad1a9469e76c","E1","batch5","","1992","tol_toboard","","","","tol_peg_2","1992","1992","0","[[1,2,0],[3,0],[0]]","1","[[2,1,0],[0,0],[3]]","19","0","","","","","","5","","","","","","","","",""
"","","","","","single-stim-button","289","408647","0.0-2.0-68.1-0.1","631d4876679fad1a9469e76c","E1","batch5","","2712","tol_tohand","","","","tol_peg_1","2712","2712","0","[[1,0,0],[3,0],[0]]","2","[[2,1,0],[0,0],[3]]","19","0","","","","","","5","","","","","","","","",""
"","","","","","single-stim-button","290","409529","0.0-2.0-68.1-1.1","631d4876679fad1a9469e76c","E1","batch5","","882","tol_toboard","","","","tol_peg_3","882","882","0","[[1,0,0],[3,0],[2]]","2","[[2,1,0],[0,0],[3]]","19","0","","","","","","5","","","","","","","","",""
"","","","","","single-stim-button","291","410212","0.0-2.0-68.2-0.2","631d4876679fad1a9469e76c","E1","batch5","","682","tol_tohand","","","","tol_peg_1","682","682","0","[[0,0,0],[3,0],[2]]","3","[[2,1,0],[0,0],[3]]","19","0","","","","","","5","","","","","","","","",""
"","","","","","single-stim-button","292","410653","0.0-2.0-68.2-1.2","631d4876679fad1a9469e76c","E1","batch5","","440","tol_toboard","","","","tol_peg_2","440","440","0","[[0,0,0],[3,1],[2]]","3","[[2,1,0],[0,0],[3]]","19","0","","","","","","5","","","","","","","","",""
"","","","","","single-stim-button","293","411204","0.0-2.0-68.3-0.3","631d4876679fad1a9469e76c","E1","batch5","","551","tol_tohand","","","","tol_peg_3","551","551","0","[[0,0,0],[3,1],[0]]","4","[[2,1,0],[0,0],[3]]","19","0","","","","","","5","","","","","","","","",""
"","","","","","single-stim-button","294","411827","0.0-2.0-68.3-1.3","631d4876679fad1a9469e76c","E1","batch5","","623","tol_toboard","","","","tol_peg_1","623","623","0","[[2,0,0],[3,1],[0]]","4","[[2,1,0],[0,0],[3]]","19","0","","","","","","5","","","","","","","","",""
"","","","","","single-stim-button","295","412299","0.0-2.0-68.4-0.4","631d4876679fad1a9469e76c","E1","batch5","","472","tol_tohand","","","","tol_peg_2","472","472","0","[[2,0,0],[3,0],[0]]","5","[[2,1,0],[0,0],[3]]","19","0","","","","","","5","","","","","","","","",""
"","","","","","single-stim-button","296","412811","0.0-2.0-68.4-1.4","631d4876679fad1a9469e76c","E1","batch5","","512","tol_toboard","","","","tol_peg_1","512","512","0","[[2,1,0],[3,0],[0]]","5","[[2,1,0],[0,0],[3]]","19","0","","","","","","5","","","","","","","","",""
"","","","","","single-stim-button","297","413373","0.0-2.0-68.5-0.5","631d4876679fad1a9469e76c","E1","batch5","","562","tol_tohand","","","","tol_peg_2","562","562","0","[[2,1,0],[0,0],[0]]","6","[[2,1,0],[0,0],[3]]","19","0","","","","","","5","","","","","","","","",""
"","","","","","single-stim-button","298","414115","0.0-2.0-68.5-1.5","631d4876679fad1a9469e76c","E1","batch5","","741","tol_toboard","","","","tol_peg_3","741","741","0","[[2,1,0],[0,0],[3]]","6","[[2,1,0],[0,0],[3]]","19","0","","","","","","5","","","","","","","","",""
"","","","","","poldrack-single-stim","299","415116","0.0-2.0-69.0","631d4876679fad1a9469e76c","E1","batch5","","-1","tol_feedback","","","true","","1000","1000","500","","","","","","-1","none","true","1612","6591","","","","","","","","","",""
"","","","","","html-button-response","300","415837","0.0-2.0-70.0","631d4876679fad1a9469e76c","E1","batch5","","720.5","tol_trial_num","<div class = centerbox><p class = center-block-text>problem <strong>21</strong> out of 25 problems</p></div>","0","","","","","","","","","","","","","","","","","","","","","","","","",""
"","","","","","single-stim-button","301","419870","0.0-2.0-71.0-0.0","631d4876679fad1a9469e76c","E1","batch5","","4033","tol_tohand","","","","tol_peg_2","4033","4033","0","[[1,2,0],[0,0],[0]]","1","[[3,2,0],[0,0],[1]]","20","0","","","","","","6","","","","","","","","",""
"","","","","","single-stim-button","302","420521","0.0-2.0-71.0-1.0","631d4876679fad1a9469e76c","E1","batch5","","651","tol_toboard","","","","tol_peg_3","651","651","0","[[1,2,0],[0,0],[3]]","1","[[3,2,0],[0,0],[1]]","20","0","","","","","","6","","","","","","","","",""
"","","","","","single-stim-button","303","421043","0.0-2.0-71.1-0.1","631d4876679fad1a9469e76c","E1","batch5","","522","tol_tohand","","","","tol_peg_1","522","522","0","[[1,0,0],[0,0],[3]]","2","[[3,2,0],[0,0],[1]]","20","0","","","","","","6","","","","","","","","",""
"","","","","","single-stim-button","304","421635","0.0-2.0-71.1-1.1","631d4876679fad1a9469e76c","E1","batch5","","592","tol_toboard","","","","tol_peg_2","592","592","0","[[1,0,0],[2,0],[3]]","2","[[3,2,0],[0,0],[1]]","20","0","","","","","","6","","","","","","","","",""
"","","","","","single-stim-button","305","422077","0.0-2.0-71.2-0.2","631d4876679fad1a9469e76c","E1","batch5","","442","tol_tohand","","","","tol_peg_1","442","442","0","[[0,0,0],[2,0],[3]]","3","[[3,2,0],[0,0],[1]]","20","0","","","","","","6","","","","","","","","",""
"","","","","","single-stim-button","306","422609","0.0-2.0-71.2-1.2","631d4876679fad1a9469e76c","E1","batch5","","532","tol_toboard","","","","tol_peg_2","532","532","0","[[0,0,0],[2,1],[3]]","3","[[3,2,0],[0,0],[1]]","20","0","","","","","","6","","","","","","","","",""
"","","","","","single-stim-button","307","423161","0.0-2.0-71.3-0.3","631d4876679fad1a9469e76c","E1","batch5","","552","tol_tohand","","","","tol_peg_3","552","552","0","[[0,0,0],[2,1],[0]]","4","[[3,2,0],[0,0],[1]]","20","0","","","","","","6","","","","","","","","",""
"","","","","","single-stim-button","308","423863","0.0-2.0-71.3-1.3","631d4876679fad1a9469e76c","E1","batch5","","702","tol_toboard","","","","tol_peg_1","702","702","0","[[3,0,0],[2,1],[0]]","4","[[3,2,0],[0,0],[1]]","20","0","","","","","","6","","","","","","","","",""
"","","","","","single-stim-button","309","424525","0.0-2.0-71.4-0.4","631d4876679fad1a9469e76c","E1","batch5","","661","tol_tohand","","","","tol_peg_2","661","661","0","[[3,0,0],[2,0],[0]]","5","[[3,2,0],[0,0],[1]]","20","0","","","","","","6","","","","","","","","",""
"","","","","","single-stim-button","310","425147","0.0-2.0-71.4-1.4","631d4876679fad1a9469e76c","E1","batch5","","621","tol_toboard","","","","tol_peg_3","621","621","0","[[3,0,0],[2,0],[1]]","5","[[3,2,0],[0,0],[1]]","20","0","","","","","","6","","","","","","","","",""
"","","","","","single-stim-button","311","425549","0.0-2.0-71.5-0.5","631d4876679fad1a9469e76c","E1","batch5","","402","tol_tohand","","","","tol_peg_2","402","402","0","[[3,0,0],[0,0],[1]]","6","[[3,2,0],[0,0],[1]]","20","0","","","","","","6","","","","","","","","",""
"","","","","","single-stim-button","312","426071","0.0-2.0-71.5-1.5","631d4876679fad1a9469e76c","E1","batch5","","522","tol_toboard","","","","tol_peg_1","522","522","0","[[3,2,0],[0,0],[1]]","6","[[3,2,0],[0,0],[1]]","20","0","","","","","","6","","","","","","","","",""
"","","","","","poldrack-single-stim","313","427072","0.0-2.0-72.0","631d4876679fad1a9469e76c","E1","batch5","","-1","tol_feedback","","","true","","1000","1000","500","","","","","","-1","none","true","4033","6612","","","","","","","","","",""
"","","","","","html-button-response","314","427623","0.0-2.0-73.0","631d4876679fad1a9469e76c","E1","batch5","","549.2000000476837","tol_trial_num","<div class = centerbox><p class = center-block-text>problem <strong>22</strong> out of 25 problems</p></div>","0","","","","","","","","","","","","","","","","","","","","","","","","",""
"","","","","","single-stim-button","315","432095","0.0-2.0-74.0-0.0","631d4876679fad1a9469e76c","E1","batch5","","4472","tol_tohand","","","","tol_peg_1","4472","4472","0","[[0,0,0],[2,3],[0]]","1","[[0,0,0],[1,2],[3]]","21","0","","","","","","6","","","","","","","","",""
"","","","","","single-stim-button","316","432877","0.0-2.0-74.0-1.0","631d4876679fad1a9469e76c","E1","batch5","","782","tol_toboard","","","","tol_peg_3","782","782","0","[[0,0,0],[2,3],[1]]","1","[[0,0,0],[1,2],[3]]","21","0","","","","","","6","","","","","","","","",""
"","","","","","single-stim-button","317","434099","0.0-2.0-74.1-0.1","631d4876679fad1a9469e76c","E1","batch5","","1222","tol_tohand","","","","tol_peg_2","1222","1222","0","[[0,0,0],[2,0],[1]]","2","[[0,0,0],[1,2],[3]]","21","0","","","","","","6","","","","","","","","",""
"","","","","","single-stim-button","318","434641","0.0-2.0-74.1-1.1","631d4876679fad1a9469e76c","E1","batch5","","542","tol_toboard","","","","tol_peg_1","542","542","0","[[3,0,0],[2,0],[1]]","2","[[0,0,0],[1,2],[3]]","21","0","","","","","","6","","","","","","","","",""
"","","","","","single-stim-button","319","435183","0.0-2.0-74.2-0.2","631d4876679fad1a9469e76c","E1","batch5","","542","tol_tohand","","","","tol_peg_2","542","542","0","[[3,0,0],[0,0],[1]]","3","[[0,0,0],[1,2],[3]]","21","0","","","","","","6","","","","","","","","",""
"","","","","","single-stim-button","320","435685","0.0-2.0-74.2-1.2","631d4876679fad1a9469e76c","E1","batch5","","502","tol_toboard","","","","tol_peg_1","502","502","0","[[3,2,0],[0,0],[1]]","3","[[0,0,0],[1,2],[3]]","21","0","","","","","","6","","","","","","","","",""
"","","","","","single-stim-button","321","436337","0.0-2.0-74.3-0.3","631d4876679fad1a9469e76c","E1","batch5","","652","tol_tohand","","","","tol_peg_3","652","652","0","[[3,2,0],[0,0],[0]]","4","[[0,0,0],[1,2],[3]]","21","0","","","","","","6","","","","","","","","",""
"","","","","","single-stim-button","322","436849","0.0-2.0-74.3-1.3","631d4876679fad1a9469e76c","E1","batch5","","511","tol_toboard","","","","tol_peg_2","511","511","0","[[3,2,0],[1,0],[0]]","4","[[0,0,0],[1,2],[3]]","21","0","","","","","","6","","","","","","","","",""
"","","","","","single-stim-button","323","437321","0.0-2.0-74.4-0.4","631d4876679fad1a9469e76c","E1","batch5","","472","tol_tohand","","","","tol_peg_1","472","472","0","[[3,0,0],[1,0],[0]]","5","[[0,0,0],[1,2],[3]]","21","0","","","","","","6","","","","","","","","",""
"","","","","","single-stim-button","324","437953","0.0-2.0-74.4-1.4","631d4876679fad1a9469e76c","E1","batch5","","632","tol_toboard","","","","tol_peg_2","632","632","0","[[3,0,0],[1,2],[0]]","5","[[0,0,0],[1,2],[3]]","21","0","","","","","","6","","","","","","","","",""
"","","","","","single-stim-button","325","438455","0.0-2.0-74.5-0.5","631d4876679fad1a9469e76c","E1","batch5","","502","tol_tohand","","","","tol_peg_1","502","502","0","[[0,0,0],[1,2],[0]]","6","[[0,0,0],[1,2],[3]]","21","0","","","","","","6","","","","","","","","",""
"","","","","","single-stim-button","326","439177","0.0-2.0-74.5-1.5","631d4876679fad1a9469e76c","E1","batch5","","721","tol_toboard","","","","tol_peg_3","721","721","0","[[0,0,0],[1,2],[3]]","6","[[0,0,0],[1,2],[3]]","21","0","","","","","","6","","","","","","","","",""
"","","","","","poldrack-single-stim","327","440178","0.0-2.0-75.0","631d4876679fad1a9469e76c","E1","batch5","","-1","tol_feedback","","","true","","1000","1000","500","","","","","","-1","none","true","4472","7862","","","","","","","","","",""
"","","","","","html-button-response","328","440749","0.0-2.0-76.0","631d4876679fad1a9469e76c","E1","batch5","","569.8000000715256","tol_trial_num","<div class = centerbox><p class = center-block-text>problem <strong>23</strong> out of 25 problems</p></div>","0","","","","","","","","","","","","","","","","","","","","","","","","",""
"","","","","","single-stim-button","329","445521","0.0-2.0-77.0-0.0","631d4876679fad1a9469e76c","E1","batch5","","4772","tol_tohand","","","","tol_peg_1","4772","4772","0","[[1,0,0],[3,0],[0]]","1","[[1,3,2],[0,0],[0]]","22","0","","","","","","3","","","","","","","","",""
"","","","","","single-stim-button","330","446273","0.0-2.0-77.0-1.0","631d4876679fad1a9469e76c","E1","batch5","","752","tol_toboard","","","","tol_peg_3","752","752","0","[[1,0,0],[3,0],[2]]","1","[[1,3,2],[0,0],[0]]","22","0","","","","","","3","","","","","","","","",""
"","","","","","single-stim-button","331","446635","0.0-2.0-77.1-0.1","631d4876679fad1a9469e76c","E1","batch5","","362","tol_tohand","","","","tol_peg_2","362","362","0","[[1,0,0],[0,0],[2]]","2","[[1,3,2],[0,0],[0]]","22","0","","","","","","3","","","","","","","","",""
"","","","","","single-stim-button","332","447087","0.0-2.0-77.1-1.1","631d4876679fad1a9469e76c","E1","batch5","","452","tol_toboard","","","","tol_peg_1","452","452","0","[[1,3,0],[0,0],[2]]","2","[[1,3,2],[0,0],[0]]","22","0","","","","","","3","","","","","","","","",""
"","","","","","single-stim-button","333","447599","0.0-2.0-77.2-0.2","631d4876679fad1a9469e76c","E1","batch5","","511","tol_tohand","","","","tol_peg_3","511","511","0","[[1,3,0],[0,0],[0]]","3","[[1,3,2],[0,0],[0]]","22","0","","","","","","3","","","","","","","","",""
"","","","","","single-stim-button","334","448371","0.0-2.0-77.2-1.2","631d4876679fad1a9469e76c","E1","batch5","","772","tol_toboard","","","","tol_peg_1","772","772","0","[[1,3,2],[0,0],[0]]","3","[[1,3,2],[0,0],[0]]","22","0","","","","","","3","","","","","","","","",""
"","","","","","poldrack-single-stim","335","449373","0.0-2.0-78.0","631d4876679fad1a9469e76c","E1","batch5","","-1","tol_feedback","","","true","","1000","1000","500","","","","","","-1","none","true","4772","5645","","","","","","","","","",""
"","","","","","html-button-response","336","449923","0.0-2.0-79.0","631d4876679fad1a9469e76c","E1","batch5","","548.3999999761581","tol_trial_num","<div class = centerbox><p class = center-block-text>problem <strong>24</strong> out of 25 problems</p></div>","0","","","","","","","","","","","","","","","","","","","","","","","","",""
"","","","","","single-stim-button","337","460565","0.0-2.0-80.0-0.0","631d4876679fad1a9469e76c","E1","batch5","","10642","tol_tohand","","","","tol_peg_3","10642","10642","0","[[0,0,0],[2,3],[0]]","1","[[2,0,0],[3,0],[1]]","23","0","","","","","","7","","","","","","","","",""
"","","","","","single-stim-button","338","461527","0.0-2.0-80.0-1.0","631d4876679fad1a9469e76c","E1","batch5","","962","tol_toboard","","","","tol_peg_1","962","962","0","[[1,0,0],[2,3],[0]]","1","[[2,0,0],[3,0],[1]]","23","0","","","","","","7","","","","","","","","",""
"","","","","","single-stim-button","339","462009","0.0-2.0-80.1-0.1","631d4876679fad1a9469e76c","E1","batch5","","481","tol_tohand","","","","tol_peg_2","481","481","0","[[1,0,0],[2,0],[0]]","2","[[2,0,0],[3,0],[1]]","23","0","","","","","","7","","","","","","","","",""
"","","","","","single-stim-button","340","462431","0.0-2.0-80.1-1.1","631d4876679fad1a9469e76c","E1","batch5","","422","tol_toboard","","","","tol_peg_1","422","422","0","[[1,3,0],[2,0],[0]]","2","[[2,0,0],[3,0],[1]]","23","0","","","","","","7","","","","","","","","",""
"","","","","","single-stim-button","341","462924","0.0-2.0-80.2-0.2","631d4876679fad1a9469e76c","E1","batch5","","493","tol_tohand","","","","tol_peg_2","493","493","0","[[1,3,0],[0,0],[0]]","3","[[2,0,0],[3,0],[1]]","23","0","","","","","","7","","","","","","","","",""
"","","","","","single-stim-button","342","463715","0.0-2.0-80.2-1.2","631d4876679fad1a9469e76c","E1","batch5","","790","tol_toboard","","","","tol_peg_3","790","790","0","[[1,3,0],[0,0],[2]]","3","[[2,0,0],[3,0],[1]]","23","0","","","","","","7","","","","","","","","",""
"","","","","","single-stim-button","343","464257","0.0-2.0-80.3-0.3","631d4876679fad1a9469e76c","E1","batch5","","542","tol_tohand","","","","tol_peg_1","542","542","0","[[1,0,0],[0,0],[2]]","4","[[2,0,0],[3,0],[1]]","23","0","","","","","","7","","","","","","","","",""
"","","","","","single-stim-button","344","464849","0.0-2.0-80.3-1.3","631d4876679fad1a9469e76c","E1","batch5","","592","tol_toboard","","","","tol_peg_2","592","592","0","[[1,0,0],[3,0],[2]]","4","[[2,0,0],[3,0],[1]]","23","0","","","","","","7","","","","","","","","",""
"","","","","","single-stim-button","345","465891","0.0-2.0-80.4-0.4","631d4876679fad1a9469e76c","E1","batch5","","1042","tol_tohand","","","","tol_peg_1","1042","1042","0","[[0,0,0],[3,0],[2]]","5","[[2,0,0],[3,0],[1]]","23","0","","","","","","7","","","","","","","","",""
"","","","","","single-stim-button","346","466433","0.0-2.0-80.4-1.4","631d4876679fad1a9469e76c","E1","batch5","","542","tol_toboard","","","","tol_peg_2","542","542","0","[[0,0,0],[3,1],[2]]","5","[[2,0,0],[3,0],[1]]","23","0","","","","","","7","","","","","","","","",""
"","","","","","single-stim-button","347","466845","0.0-2.0-80.5-0.5","631d4876679fad1a9469e76c","E1","batch5","","411","tol_tohand","","","","tol_peg_3","411","411","0","[[0,0,0],[3,1],[0]]","6","[[2,0,0],[3,0],[1]]","23","0","","","","","","7","","","","","","","","",""
"","","","","","single-stim-button","348","467467","0.0-2.0-80.5-1.5","631d4876679fad1a9469e76c","E1","batch5","","621","tol_toboard","","","","tol_peg_1","621","621","0","[[2,0,0],[3,1],[0]]","6","[[2,0,0],[3,0],[1]]","23","0","","","","","","7","","","","","","","","",""
"","","","","","single-stim-button","349","467949","0.0-2.0-80.6-0.6","631d4876679fad1a9469e76c","E1","batch5","","482","tol_tohand","","","","tol_peg_2","482","482","0","[[2,0,0],[3,0],[0]]","7","[[2,0,0],[3,0],[1]]","23","0","","","","","","7","","","","","","","","",""
"","","","","","single-stim-button","350","468571","0.0-2.0-80.6-1.6","631d4876679fad1a9469e76c","E1","batch5","","621","tol_toboard","","","","tol_peg_3","621","621","0","[[2,0,0],[3,0],[1]]","7","[[2,0,0],[3,0],[1]]","23","0","","","","","","7","","","","","","","","",""
"","","","","","poldrack-single-stim","351","469573","0.0-2.0-81.0","631d4876679fad1a9469e76c","E1","batch5","","-1","tol_feedback","","","true","","1000","1000","500","","","","","","-1","none","true","10642","14093","","","","","","","","","",""
"","","","","","html-button-response","352","470083","0.0-2.0-82.0","631d4876679fad1a9469e76c","E1","batch5","","508.39999997615814","tol_trial_num","<div class = centerbox><p class = center-block-text>problem <strong>25</strong> out of 25 problems</p></div>","0","","","","","","","","","","","","","","","","","","","","","","","","",""
"","","","","","single-stim-button","353","474875","0.0-2.0-83.0-0.0","631d4876679fad1a9469e76c","E1","batch5","","4792","tol_tohand","","","","tol_peg_1","4792","4792","0","[[1,0,0],[3,0],[0]]","1","[[3,0,0],[1,0],[2]]","24","0","","","","","","7","","","","","","","","",""
"","","","","","single-stim-button","354","478107","0.0-2.0-83.0-1.0","631d4876679fad1a9469e76c","E1","batch5","","3232","tol_toboard","","","","tol_peg_1","3232","3232","0","[[1,2,0],[3,0],[0]]","1","[[3,0,0],[1,0],[2]]","24","0","","","","","","7","","","","","","","","",""
"","","","","","single-stim-button","355","486308","0.0-2.0-83.1-0.1","631d4876679fad1a9469e76c","E1","batch5","","8201","tol_tohand","","","","tol_peg_2","8201","8201","0","[[1,2,0],[0,0],[0]]","2","[[3,0,0],[1,0],[2]]","24","0","","","","","","7","","","","","","","","",""
"","","","","","single-stim-button","356","487760","0.0-2.0-83.1-1.1","631d4876679fad1a9469e76c","E1","batch5","","1451","tol_toboard","","","","tol_peg_3","1451","1451","0","[[1,2,0],[0,0],[3]]","2","[[3,0,0],[1,0],[2]]","24","0","","","","","","7","","","","","","","","",""
