"success","timeout","failed_images","failed_audio","failed_video","trial_type","trial_index","time_elapsed","internal_node_id","subject_id","study_id","session_id","view_history","rt","task","stimulus","response","correct","mouse_click","stim_duration","block_duration","timing_post_trial","current_position","tol_num_moves_made","tol_target","tol_problem_id","tol_rt","key_press","possible_responses","tol_correct","preplanning","tol_rt_per_trial","tol_min_moves","answer","item","fiar_detect_rt","fiar_detect_correct","total_correct_fiar_detect","post_trial_gap","choices","spm_correct","spm_rt"
"true","false","[]","[]","[]","preload","0","3605","0.0-0.0","6320fb375d2abadf259b7889","B2","batch2","","","","","","","","","","","","","","","","","","","","","","","","","","","","","",""
"true","","","","","fullscreen","1","15385","0.0-1.0-0.0","6320fb375d2abadf259b7889","B2","batch2","","","","","","","","","","","","","","","","","","","","","","","","","","","","","",""
"true","","","","","fullscreen","2","18547","0.0-2.0-0.0","6320fb375d2abadf259b7889","B2","batch2","","","","","","","","","","","","","","","","","","","","","","","","","","","","","",""
"","","","","","instructions","3","71907","0.0-2.0-1.0-0.0-0.0","6320fb375d2abadf259b7889","B2","batch2","[{""page_index"":0,""viewing_time"":13274.700000047684},{""page_index"":1,""viewing_time"":3988.2999999523163},{""page_index"":2,""viewing_time"":4955.799999952316},{""page_index"":3,""viewing_time"":9548.400000095367},{""page_index"":4,""viewing_time"":6229.5},{""page_index"":5,""viewing_time"":12193.899999856949},{""page_index"":6,""viewing_time"":3168.100000143051}]","53359","tol-instructions","","","","","","","","","","","","","","","","","","","","","","","","","","",""
"","","","","","html-button-response","4","73045","0.0-2.0-1.0-1.0-0.0","6320fb375d2abadf259b7889","B2","batch2","","1137.4000000953674","tol_enter_quiz","<p class=block-text> Let's answer a few questions <br>","0","","","","","","","","","","","","","","","","","","","","","","","","",""
"","","","","","html-button-response","5","76497","0.0-2.0-1.0-1.0-1.0","6320fb375d2abadf259b7889","B2","batch2","","3450","tol_quiz","<p class = block-text>True or False: You can only move the ball on top of a peg. <br></p>","0","true","","","","","","","","","","","","","","","","","","","","","","","",""
"","","","","","html-button-response","6","77468","0.0-2.0-1.0-1.0-2.0","6320fb375d2abadf259b7889","B2","batch2","","969.7999999523163","tol_quiz_feedback","<p class = block-text>Correct! You can only move the ball on top of a peg.</p>","0","","","","","","","","","","","","","","","","","","","","","","","","",""
"","","","","","html-button-response","7","80772","0.0-2.0-1.0-1.0-3.0","6320fb375d2abadf259b7889","B2","batch2","","3303.2999999523163","tol_quiz","<p class = block-text>True or False: You should try to match your board with the target board with fewest moves possible. <br></p>","0","true","","","","","","","","","","","","","","","","","","","","","","","",""
"","","","","","html-button-response","8","81321","0.0-2.0-1.0-1.0-4.0","6320fb375d2abadf259b7889","B2","batch2","","547.3000001907349","tol_quiz_feedback","<p class = block-text>Correct! </p>","0","","","","","","","","","","","","","","","","","","","","","","","","",""
"","","","","","html-button-response","9","84043","0.0-2.0-2.0","6320fb375d2abadf259b7889","B2","batch2","","2720.4000000953674","","<p class=block-text> Now that you've understood the game, let's practice a few easier examples before we start!<br> <br>","0","","","","","","","","","","","","","","","","","","","","","","","","",""
"","","","","","single-stim-button","10","85990","0.0-2.0-3.0-0.0","6320fb375d2abadf259b7889","B2","batch2","","1946","tol_practice","","","","tol_peg_2","1946","1946","0","[[1,2,0],[0,0],[0]]","1","[[1,2,0],[0,0],[3]]","practice","1946","","","","","","","","","","","","","","",""
"","","","","","single-stim-button","11","87103","0.0-2.0-3.0-1.0","6320fb375d2abadf259b7889","B2","batch2","","1112","tol_practice","","","","tol_peg_3","1112","1112","0","[[1,2,0],[0,0],[3]]","1","[[1,2,0],[0,0],[3]]","practice","1112","","","","","","","","","","","","","","",""
"","","","","","poldrack-single-stim","12","88117","0.0-2.0-4.0","6320fb375d2abadf259b7889","B2","batch2","","-1","tol_feedback","","","true","","1000","1000","500","","","","","","-1","none","true","","0","","","","","","","","","",""
"","","","","","single-stim-button","13","92547","0.0-2.0-5.0-0.0","6320fb375d2abadf259b7889","B2","batch2","","4429","tol_practice","","","","tol_peg_1","4429","4429","0","[[1,0,0],[3,0],[0]]","2","[[0,0,0],[3,1],[2]]","practice","4429","","","","","","","","","","","","","","",""
"","","","","","single-stim-button","14","93347","0.0-2.0-5.0-1.0","6320fb375d2abadf259b7889","B2","batch2","","798","tol_practice","","","","tol_peg_3","798","798","0","[[1,0,0],[3,0],[2]]","2","[[0,0,0],[3,1],[2]]","practice","798","","","","","","","","","","","","","","",""
"","","","","","single-stim-button","15","98079","0.0-2.0-5.1-0.1","6320fb375d2abadf259b7889","B2","batch2","","4731","tol_practice","","","","tol_peg_3","4731","4731","0","[[1,0,0],[3,0],[0]]","3","[[0,0,0],[3,1],[2]]","practice","4731","","","","","","","","","","","","","","",""
"","","","","","single-stim-button","16","99859","0.0-2.0-5.1-1.1","6320fb375d2abadf259b7889","B2","batch2","","1779","tol_practice","","","","tol_peg_1","1779","1779","0","[[1,2,0],[3,0],[0]]","3","[[0,0,0],[3,1],[2]]","practice","1779","","","","","","","","","","","","","","",""
"","","","","","single-stim-button","17","100258","0.0-2.0-5.2-0.2","6320fb375d2abadf259b7889","B2","batch2","","399","tol_practice","","","","tol_peg_2","399","399","0","[[1,2,0],[0,0],[0]]","4","[[0,0,0],[3,1],[2]]","practice","399","","","","","","","","","","","","","","",""
"","","","","","single-stim-button","18","100879","0.0-2.0-5.2-1.2","6320fb375d2abadf259b7889","B2","batch2","","620","tol_practice","","","","tol_peg_3","620","620","0","[[1,2,0],[0,0],[3]]","4","[[0,0,0],[3,1],[2]]","practice","620","","","","","","","","","","","","","","",""
"","","","","","single-stim-button","19","101923","0.0-2.0-5.3-0.3","6320fb375d2abadf259b7889","B2","batch2","","1043","tol_practice","","","","tol_peg_1","1043","1043","0","[[1,0,0],[0,0],[3]]","5","[[0,0,0],[3,1],[2]]","practice","1043","","","","","","","","","","","","","","",""
"","","","","","single-stim-button","20","102511","0.0-2.0-5.3-1.3","6320fb375d2abadf259b7889","B2","batch2","","588","tol_practice","","","","tol_peg_2","588","588","0","[[1,0,0],[2,0],[3]]","5","[[0,0,0],[3,1],[2]]","practice","588","","","","","","","","","","","","","","",""
"","","","","","single-stim-button","21","103193","0.0-2.0-5.4-0.4","6320fb375d2abadf259b7889","B2","batch2","","682","tol_practice","","","","tol_peg_1","682","682","0","[[0,0,0],[2,0],[3]]","6","[[0,0,0],[3,1],[2]]","practice","682","","","","","","","","","","","","","","",""
"","","","","","single-stim-button","22","110169","0.0-2.0-5.4-1.4","6320fb375d2abadf259b7889","B2","batch2","","6975","tol_practice","","","","tol_peg_1","6975","6975","0","[[1,0,0],[2,0],[3]]","6","[[0,0,0],[3,1],[2]]","practice","6975","","","","","","","","","","","","","","",""
"","","","","","single-stim-button","23","110803","0.0-2.0-5.5-0.5","6320fb375d2abadf259b7889","B2","batch2","","634","tol_practice","","","","tol_peg_2","634","634","0","[[1,0,0],[0,0],[3]]","7","[[0,0,0],[3,1],[2]]","practice","634","","","","","","","","","","","","","","",""
"","","","","","single-stim-button","24","111219","0.0-2.0-5.5-1.5","6320fb375d2abadf259b7889","B2","batch2","","416","tol_practice","","","","tol_peg_1","416","416","0","[[1,2,0],[0,0],[3]]","7","[[0,0,0],[3,1],[2]]","practice","416","","","","","","","","","","","","","","",""
"","","","","","single-stim-button","25","112027","0.0-2.0-5.6-0.6","6320fb375d2abadf259b7889","B2","batch2","","808","tol_practice","","","","tol_peg_3","808","808","0","[[1,2,0],[0,0],[0]]","8","[[0,0,0],[3,1],[2]]","practice","808","","","","","","","","","","","","","","",""
"","","","","","single-stim-button","26","112403","0.0-2.0-5.6-1.6","6320fb375d2abadf259b7889","B2","batch2","","376","tol_practice","","","","tol_peg_2","376","376","0","[[1,2,0],[3,0],[0]]","8","[[0,0,0],[3,1],[2]]","practice","376","","","","","","","","","","","","","","",""
"","","","","","single-stim-button","27","112937","0.0-2.0-5.7-0.7","6320fb375d2abadf259b7889","B2","batch2","","533","tol_practice","","","","tol_peg_1","533","533","0","[[1,0,0],[3,0],[0]]","9","[[0,0,0],[3,1],[2]]","practice","533","","","","","","","","","","","","","","",""
"","","","","","single-stim-button","28","113329","0.0-2.0-5.7-1.7","6320fb375d2abadf259b7889","B2","batch2","","390","tol_practice","","","","tol_peg_3","390","390","0","[[1,0,0],[3,0],[2]]","9","[[0,0,0],[3,1],[2]]","practice","390","","","","","","","","","","","","","","",""
"","","","","","single-stim-button","29","113737","0.0-2.0-5.8-0.8","6320fb375d2abadf259b7889","B2","batch2","","407","tol_practice","","","","tol_peg_1","407","407","0","[[0,0,0],[3,0],[2]]","10","[[0,0,0],[3,1],[2]]","practice","407","","","","","","","","","","","","","","",""
"","","","","","single-stim-button","30","114019","0.0-2.0-5.8-1.8","6320fb375d2abadf259b7889","B2","batch2","","281","tol_practice","","","","tol_peg_2","281","281","0","[[0,0,0],[3,1],[2]]","10","[[0,0,0],[3,1],[2]]","practice","281","","","","","","","","","","","","","","",""
"","","","","","poldrack-single-stim","31","115020","0.0-2.0-6.0","6320fb375d2abadf259b7889","B2","batch2","","-1","tol_feedback","","","true","","1000","1000","500","","","","","","-1","none","true","","0","","","","","","","","","",""
"","","","","","single-stim-button","32","117784","0.0-2.0-7.0-0.0","6320fb375d2abadf259b7889","B2","batch2","","2763","tol_practice","","","","tol_peg_2","2763","2763","0","[[1,2,0],[0,0],[0]]","11","[[1,0,0],[2,0],[3]]","practice","2763","","","","","","","","","","","","","","",""
"","","","","","single-stim-button","33","118099","0.0-2.0-7.0-1.0","6320fb375d2abadf259b7889","B2","batch2","","313","tol_practice","","","","tol_peg_3","313","313","0","[[1,2,0],[0,0],[3]]","11","[[1,0,0],[2,0],[3]]","practice","313","","","","","","","","","","","","","","",""
"","","","","","single-stim-button","34","118845","0.0-2.0-7.1-0.1","6320fb375d2abadf259b7889","B2","batch2","","745","tol_practice","","","","tol_peg_1","745","745","0","[[1,0,0],[0,0],[3]]","12","[[1,0,0],[2,0],[3]]","practice","745","","","","","","","","","","","","","","",""
"","","","","","single-stim-button","35","119377","0.0-2.0-7.1-1.1","6320fb375d2abadf259b7889","B2","batch2","","531","tol_practice","","","","tol_peg_2","531","531","0","[[1,0,0],[2,0],[3]]","12","[[1,0,0],[2,0],[3]]","practice","531","","","","","","","","","","","","","","",""
"","","","","","poldrack-single-stim","36","120379","0.0-2.0-8.0","6320fb375d2abadf259b7889","B2","batch2","","-1","tol_feedback","","","true","","1000","1000","500","","","","","","-1","none","true","","0","","","","","","","","","",""
"","","","","","html-button-response","37","122893","0.0-2.0-9.0","6320fb375d2abadf259b7889","B2","batch2","","2512.699999809265","tol_instruction","<div class = centerbox><p class = center-block-text>Great job! You are done with practice trials<br>You are about to start official trials.<br> <br> Problem <strong>1</strong> out of 25 problems</p></div>","0","","","","","","","","","","","","","","","","","","","","","","","","",""
"","","","","","single-stim-button","38","127057","0.0-2.0-10.0-0.0","6320fb375d2abadf259b7889","B2","batch2","","3146","tol_tohand","","","","tol_peg_2","3146","3146","0","[[1,2,0],[0,0],[0]]","1","[[1,3,0],[2,0],[0]]","0","0","","","","","","3","","","","","","","","",""
"","","","","","single-stim-button","39","128838","0.0-2.0-10.0-1.0","6320fb375d2abadf259b7889","B2","batch2","","1780","tol_toboard","","","","tol_peg_3","1780","1780","0","[[1,2,0],[0,0],[3]]","1","[[1,3,0],[2,0],[0]]","0","0","","","","","","3","","","","","","","","",""
"","","","","","single-stim-button","40","130055","0.0-2.0-10.1-0.1","6320fb375d2abadf259b7889","B2","batch2","","1216","tol_tohand","","","","tol_peg_1","1216","1216","0","[[1,0,0],[0,0],[3]]","2","[[1,3,0],[2,0],[0]]","0","0","","","","","","3","","","","","","","","",""
"","","","","","single-stim-button","41","130508","0.0-2.0-10.1-1.1","6320fb375d2abadf259b7889","B2","batch2","","453","tol_toboard","","","","tol_peg_2","453","453","0","[[1,0,0],[2,0],[3]]","2","[[1,3,0],[2,0],[0]]","0","0","","","","","","3","","","","","","","","",""
"","","","","","single-stim-button","42","130909","0.0-2.0-10.2-0.2","6320fb375d2abadf259b7889","B2","batch2","","399","tol_tohand","","","","tol_peg_3","399","399","0","[[1,0,0],[2,0],[0]]","3","[[1,3,0],[2,0],[0]]","0","0","","","","","","3","","","","","","","","",""
"","","","","","single-stim-button","43","131381","0.0-2.0-10.2-1.2","6320fb375d2abadf259b7889","B2","batch2","","472","tol_toboard","","","","tol_peg_1","472","472","0","[[1,3,0],[2,0],[0]]","3","[[1,3,0],[2,0],[0]]","0","0","","","","","","3","","","","","","","","",""
"","","","","","poldrack-single-stim","44","132383","0.0-2.0-11.0","6320fb375d2abadf259b7889","B2","batch2","","-1","tol_feedback","","","true","","1000","1000","500","","","","","","-1","none","true","3146","4761","","","","","","","","","",""
"","","","","","html-button-response","45","133585","0.0-2.0-12.0","6320fb375d2abadf259b7889","B2","batch2","","1201.2999999523163","tol_trial_num","<div class = centerbox><p class = center-block-text>problem <strong>2</strong> out of 25 problems</p></div>","0","","","","","","","","","","","","","","","","","","","","","","","","",""
"","","","","","single-stim-button","46","137869","0.0-2.0-13.0-0.0","6320fb375d2abadf259b7889","B2","batch2","","4283","tol_tohand","","","","tol_peg_1","4283","4283","0","[[1,0,0],[3,0],[0]]","1","[[2,1,3],[0,0],[0]]","1","0","","","","","","5","","","","","","","","",""
"","","","","","single-stim-button","47","139509","0.0-2.0-13.0-1.0","6320fb375d2abadf259b7889","B2","batch2","","1639","tol_toboard","","","","tol_peg_3","1639","1639","0","[[1,0,0],[3,0],[2]]","1","[[2,1,3],[0,0],[0]]","1","0","","","","","","5","","","","","","","","",""
"","","","","","single-stim-button","48","139988","0.0-2.0-13.1-0.1","6320fb375d2abadf259b7889","B2","batch2","","479","tol_tohand","","","","tol_peg_1","479","479","0","[[0,0,0],[3,0],[2]]","2","[[2,1,3],[0,0],[0]]","1","0","","","","","","5","","","","","","","","",""
"","","","","","single-stim-button","49","140252","0.0-2.0-13.1-1.1","6320fb375d2abadf259b7889","B2","batch2","","264","tol_toboard","","","","tol_peg_2","264","264","0","[[0,0,0],[3,1],[2]]","2","[[2,1,3],[0,0],[0]]","1","0","","","","","","5","","","","","","","","",""
"","","","","","single-stim-button","50","140592","0.0-2.0-13.2-0.2","6320fb375d2abadf259b7889","B2","batch2","","338","tol_tohand","","","","tol_peg_3","338","338","0","[[0,0,0],[3,1],[0]]","3","[[2,1,3],[0,0],[0]]","1","0","","","","","","5","","","","","","","","",""
"","","","","","single-stim-button","51","141163","0.0-2.0-13.2-1.2","6320fb375d2abadf259b7889","B2","batch2","","570","tol_toboard","","","","tol_peg_1","570","570","0","[[2,0,0],[3,1],[0]]","3","[[2,1,3],[0,0],[0]]","1","0","","","","","","5","","","","","","","","",""
"","","","","","single-stim-button","52","141657","0.0-2.0-13.3-0.3","6320fb375d2abadf259b7889","B2","batch2","","493","tol_tohand","","","","tol_peg_2","493","493","0","[[2,0,0],[3,0],[0]]","4","[[2,1,3],[0,0],[0]]","1","0","","","","","","5","","","","","","","","",""
"","","","","","single-stim-button","53","142056","0.0-2.0-13.3-1.3","6320fb375d2abadf259b7889","B2","batch2","","399","tol_toboard","","","","tol_peg_1","399","399","0","[[2,1,0],[3,0],[0]]","4","[[2,1,3],[0,0],[0]]","1","0","","","","","","5","","","","","","","","",""
"","","","","","single-stim-button","54","142472","0.0-2.0-13.4-0.4","6320fb375d2abadf259b7889","B2","batch2","","415","tol_tohand","","","","tol_peg_2","415","415","0","[[2,1,0],[0,0],[0]]","5","[[2,1,3],[0,0],[0]]","1","0","","","","","","5","","","","","","","","",""
"","","","","","single-stim-button","55","142842","0.0-2.0-13.4-1.4","6320fb375d2abadf259b7889","B2","batch2","","369","tol_toboard","","","","tol_peg_1","369","369","0","[[2,1,3],[0,0],[0]]","5","[[2,1,3],[0,0],[0]]","1","0","","","","","","5","","","","","","","","",""
"","","","","","poldrack-single-stim","56","143845","0.0-2.0-14.0","6320fb375d2abadf259b7889","B2","batch2","","-1","tol_feedback","","","true","","1000","1000","500","","","","","","-1","none","true","4283","6008","","","","","","","","","",""
"","","","","","html-button-response","57","144537","0.0-2.0-15.0","6320fb375d2abadf259b7889","B2","batch2","","690","tol_trial_num","<div class = centerbox><p class = center-block-text>problem <strong>3</strong> out of 25 problems</p></div>","0","","","","","","","","","","","","","","","","","","","","","","","","",""
"","","","","","single-stim-button","58","151542","0.0-2.0-16.0-0.0","6320fb375d2abadf259b7889","B2","batch2","","7005","tol_tohand","","","","tol_peg_1","7005","7005","0","[[2,0,0],[0,0],[1]]","1","[[1,2,0],[3,0],[0]]","2","0","","","","","","4","","","","","","","","",""
"","","","","","single-stim-button","59","152077","0.0-2.0-16.0-1.0","6320fb375d2abadf259b7889","B2","batch2","","533","tol_toboard","","","","tol_peg_2","533","533","0","[[2,0,0],[3,0],[1]]","1","[[1,2,0],[3,0],[0]]","2","0","","","","","","4","","","","","","","","",""
"","","","","","single-stim-button","60","152415","0.0-2.0-16.1-0.1","6320fb375d2abadf259b7889","B2","batch2","","337","tol_tohand","","","","tol_peg_1","337","337","0","[[0,0,0],[3,0],[1]]","2","[[1,2,0],[3,0],[0]]","2","0","","","","","","4","","","","","","","","",""
"","","","","","single-stim-button","61","152705","0.0-2.0-16.1-1.1","6320fb375d2abadf259b7889","B2","batch2","","290","tol_toboard","","","","tol_peg_2","290","290","0","[[0,0,0],[3,2],[1]]","2","[[1,2,0],[3,0],[0]]","2","0","","","","","","4","","","","","","","","",""
"","","","","","single-stim-button","62","153018","0.0-2.0-16.2-0.2","6320fb375d2abadf259b7889","B2","batch2","","313","tol_tohand","","","","tol_peg_3","313","313","0","[[0,0,0],[3,2],[0]]","3","[[1,2,0],[3,0],[0]]","2","0","","","","","","4","","","","","","","","",""
"","","","","","single-stim-button","63","153574","0.0-2.0-16.2-1.2","6320fb375d2abadf259b7889","B2","batch2","","555","tol_toboard","","","","tol_peg_1","555","555","0","[[1,0,0],[3,2],[0]]","3","[[1,2,0],[3,0],[0]]","2","0","","","","","","4","","","","","","","","",""
"","","","","","single-stim-button","64","154313","0.0-2.0-16.3-0.3","6320fb375d2abadf259b7889","B2","batch2","","737","tol_tohand","","","","tol_peg_2","737","737","0","[[1,0,0],[3,0],[0]]","4","[[1,2,0],[3,0],[0]]","2","0","","","","","","4","","","","","","","","",""
"","","","","","single-stim-button","65","154626","0.0-2.0-16.3-1.3","6320fb375d2abadf259b7889","B2","batch2","","313","tol_toboard","","","","tol_peg_1","313","313","0","[[1,2,0],[3,0],[0]]","4","[[1,2,0],[3,0],[0]]","2","0","","","","","","4","","","","","","","","",""
"","","","","","poldrack-single-stim","66","155627","0.0-2.0-17.0","6320fb375d2abadf259b7889","B2","batch2","","-1","tol_feedback","","","true","","1000","1000","500","","","","","","-1","none","true","7005","8392","","","","","","","","","",""
"","","","","","html-button-response","67","156431","0.0-2.0-18.0","6320fb375d2abadf259b7889","B2","batch2","","803.1000001430511","tol_trial_num","<div class = centerbox><p class = center-block-text>problem <strong>4</strong> out of 25 problems</p></div>","0","","","","","","","","","","","","","","","","","","","","","","","","",""
"","","","","","single-stim-button","68","161655","0.0-2.0-19.0-0.0","6320fb375d2abadf259b7889","B2","batch2","","5222","tol_tohand","","","","tol_peg_2","5222","5222","0","[[3,0,0],[2,0],[0]]","1","[[3,0,0],[1,0],[2]]","3","0","","","","","","3","","","","","","","","",""
"","","","","","single-stim-button","69","162722","0.0-2.0-19.0-1.0","6320fb375d2abadf259b7889","B2","batch2","","1067","tol_toboard","","","","tol_peg_1","1067","1067","0","[[3,1,0],[2,0],[0]]","1","[[3,0,0],[1,0],[2]]","3","0","","","","","","3","","","","","","","","",""
"","","","","","single-stim-button","70","163270","0.0-2.0-19.1-0.1","6320fb375d2abadf259b7889","B2","batch2","","547","tol_tohand","","","","tol_peg_2","547","547","0","[[3,1,0],[0,0],[0]]","2","[[3,0,0],[1,0],[2]]","3","0","","","","","","3","","","","","","","","",""
"","","","","","single-stim-button","71","163719","0.0-2.0-19.1-1.1","6320fb375d2abadf259b7889","B2","batch2","","447","tol_toboard","","","","tol_peg_3","447","447","0","[[3,1,0],[0,0],[2]]","2","[[3,0,0],[1,0],[2]]","3","0","","","","","","3","","","","","","","","",""
"","","","","","single-stim-button","72","164355","0.0-2.0-19.2-0.2","6320fb375d2abadf259b7889","B2","batch2","","635","tol_tohand","","","","tol_peg_1","635","635","0","[[3,0,0],[0,0],[2]]","3","[[3,0,0],[1,0],[2]]","3","0","","","","","","3","","","","","","","","",""
"","","","","","single-stim-button","73","165013","0.0-2.0-19.2-1.2","6320fb375d2abadf259b7889","B2","batch2","","657","tol_toboard","","","","tol_peg_2","657","657","0","[[3,0,0],[1,0],[2]]","3","[[3,0,0],[1,0],[2]]","3","0","","","","","","3","","","","","","","","",""
"","","","","","poldrack-single-stim","74","166014","0.0-2.0-20.0","6320fb375d2abadf259b7889","B2","batch2","","-1","tol_feedback","","","true","","1000","1000","500","","","","","","-1","none","true","5222","6404","","","","","","","","","",""
"","","","","","html-button-response","75","167131","0.0-2.0-21.0","6320fb375d2abadf259b7889","B2","batch2","","1115.1000001430511","tol_trial_num","<div class = centerbox><p class = center-block-text>problem <strong>5</strong> out of 25 problems</p></div>","0","","","","","","","","","","","","","","","","","","","","","","","","",""
"","","","","","single-stim-button","76","176374","0.0-2.0-22.0-0.0","6320fb375d2abadf259b7889","B2","batch2","","9242","tol_tohand","","","","tol_peg_3","9242","9242","0","[[1,0,0],[2,0],[0]]","1","[[0,0,0],[1,2],[3]]","4","0","","","","","","7","","","","","","","","",""
"","","","","","single-stim-button","77","176685","0.0-2.0-22.0-1.0","6320fb375d2abadf259b7889","B2","batch2","","311","tol_toboard","","","","tol_peg_2","311","311","0","[[1,0,0],[2,3],[0]]","1","[[0,0,0],[1,2],[3]]","4","0","","","","","","7","","","","","","","","",""
"","","","","","single-stim-button","78","177109","0.0-2.0-22.1-0.1","6320fb375d2abadf259b7889","B2","batch2","","424","tol_tohand","","","","tol_peg_1","424","424","0","[[0,0,0],[2,3],[0]]","2","[[0,0,0],[1,2],[3]]","4","0","","","","","","7","","","","","","","","",""
"","","","","","single-stim-button","79","178105","0.0-2.0-22.1-1.1","6320fb375d2abadf259b7889","B2","batch2","","995","tol_toboard","","","","tol_peg_3","995","995","0","[[0,0,0],[2,3],[1]]","2","[[0,0,0],[1,2],[3]]","4","0","","","","","","7","","","","","","","","",""
"","","","","","single-stim-button","80","182169","0.0-2.0-22.2-0.2","6320fb375d2abadf259b7889","B2","batch2","","4063","tol_tohand","","","","tol_peg_3","4063","4063","0","[[0,0,0],[2,3],[0]]","3","[[0,0,0],[1,2],[3]]","4","0","","","","","","7","","","","","","","","",""
"","","","","","single-stim-button","81","185111","0.0-2.0-22.2-1.2","6320fb375d2abadf259b7889","B2","batch2","","2942","tol_toboard","","","","tol_peg_1","2942","2942","0","[[1,0,0],[2,3],[0]]","3","[[0,0,0],[1,2],[3]]","4","0","","","","","","7","","","","","","","","",""
"","","","","","single-stim-button","82","186123","0.0-2.0-22.3-0.3","6320fb375d2abadf259b7889","B2","batch2","","1011","tol_tohand","","","","tol_peg_2","1011","1011","0","[[1,0,0],[2,0],[0]]","4","[[0,0,0],[1,2],[3]]","4","0","","","","","","7","","","","","","","","",""
"","","","","","single-stim-button","83","186593","0.0-2.0-22.3-1.3","6320fb375d2abadf259b7889","B2","batch2","","470","tol_toboard","","","","tol_peg_3","470","470","0","[[1,0,0],[2,0],[3]]","4","[[0,0,0],[1,2],[3]]","4","0","","","","","","7","","","","","","","","",""
"","","","","","single-stim-button","84","194233","0.0-2.0-22.4-0.4","6320fb375d2abadf259b7889","B2","batch2","","7639","tol_tohand","","","","tol_peg_3","7639","7639","0","[[1,0,0],[2,0],[0]]","5","[[0,0,0],[1,2],[3]]","4","0","","","","","","7","","","","","","","","",""
"","","","","","single-stim-button","85","194923","0.0-2.0-22.4-1.4","6320fb375d2abadf259b7889","B2","batch2","","689","tol_toboard","","","","tol_peg_2","689","689","0","[[1,0,0],[2,3],[0]]","5","[[0,0,0],[1,2],[3]]","4","0","","","","","","7","","","","","","","","",""
"","","","","","single-stim-button","86","195221","0.0-2.0-22.5-0.5","6320fb375d2abadf259b7889","B2","batch2","","297","tol_tohand","","","","tol_peg_1","297","297","0","[[0,0,0],[2,3],[0]]","6","[[0,0,0],[1,2],[3]]","4","0","","","","","","7","","","","","","","","",""
"","","","","","single-stim-button","87","195787","0.0-2.0-22.5-1.5","6320fb375d2abadf259b7889","B2","batch2","","566","tol_toboard","","","","tol_peg_3","566","566","0","[[0,0,0],[2,3],[1]]","6","[[0,0,0],[1,2],[3]]","4","0","","","","","","7","","","","","","","","",""
"","","","","","single-stim-button","88","197119","0.0-2.0-22.6-0.6","6320fb375d2abadf259b7889","B2","batch2","","1332","tol_tohand","","","","tol_peg_2","1332","1332","0","[[0,0,0],[2,0],[1]]","7","[[0,0,0],[1,2],[3]]","4","0","","","","","","7","","","","","","","","",""
"","","","","","single-stim-button","89","198085","0.0-2.0-22.6-1.6","6320fb375d2abadf259b7889","B2","batch2","","965","tol_toboard","","","","tol_peg_1","965","965","0","[[3,0,0],[2,0],[1]]","7","[[0,0,0],[1,2],[3]]","4","0","","","","","","7","","","","","","","","",""
"","","","","","single-stim-button","90","198486","0.0-2.0-22.7-0.7","6320fb375d2abadf259b7889","B2","batch2","","400","tol_tohand","","","","tol_peg_2","400","400","0","[[3,0,0],[0,0],[1]]","8","[[0,0,0],[1,2],[3]]","4","0","","","","","","7","","","","","","","","",""
"","","","","","single-stim-button","91","198736","0.0-2.0-22.7-1.7","6320fb375d2abadf259b7889","B2","batch2","","249","tol_toboard","","","","tol_peg_1","249","249","0","[[3,2,0],[0,0],[1]]","8","[[0,0,0],[1,2],[3]]","4","0","","","","","","7","","","","","","","","",""
"","","","","","single-stim-button","92","199143","0.0-2.0-22.8-0.8","6320fb375d2abadf259b7889","B2","batch2","","407","tol_tohand","","","","tol_peg_3","407","407","0","[[3,2,0],[0,0],[0]]","9","[[0,0,0],[1,2],[3]]","4","0","","","","","","7","","","","","","","","",""
"","","","","","single-stim-button","93","199661","0.0-2.0-22.8-1.8","6320fb375d2abadf259b7889","B2","batch2","","517","tol_toboard","","","","tol_peg_2","517","517","0","[[3,2,0],[1,0],[0]]","9","[[0,0,0],[1,2],[3]]","4","0","","","","","","7","","","","","","","","",""
"","","","","","single-stim-button","94","200477","0.0-2.0-22.9-0.9","6320fb375d2abadf259b7889","B2","batch2","","815","tol_tohand","","","","tol_peg_1","815","815","0","[[3,0,0],[1,0],[0]]","10","[[0,0,0],[1,2],[3]]","4","0","","","","","","7","","","","","","","","",""
"","","","","","single-stim-button","95","201113","0.0-2.0-22.9-1.9","6320fb375d2abadf259b7889","B2","batch2","","635","tol_toboard","","","","tol_peg_2","635","635","0","[[3,0,0],[1,2],[0]]","10","[[0,0,0],[1,2],[3]]","4","0","","","","","","7","","","","","","","","",""
"","","","","","single-stim-button","96","201457","0.0-2.0-22.10-0.10","6320fb375d2abadf259b7889","B2","batch2","","343","tol_tohand","","","","tol_peg_1","343","343","0","[[0,0,0],[1,2],[0]]","11","[[0,0,0],[1,2],[3]]","4","0","","","","","","7","","","","","","","","",""
"","","","","","single-stim-button","97","201959","0.0-2.0-22.10-1.10","6320fb375d2abadf259b7889","B2","batch2","","501","tol_toboard","","","","tol_peg_3","501","501","0","[[0,0,0],[1,2],[3]]","11","[[0,0,0],[1,2],[3]]","4","0","","","","","","7","","","","","","","","",""
"","","","","","poldrack-single-stim","98","202961","0.0-2.0-23.0","6320fb375d2abadf259b7889","B2","batch2","","-1","tol_feedback","","","true","","1000","1000","500","","","","","","-1","none","true","9242","25973","","","","","","","","","",""
"","","","","","html-button-response","99","203458","0.0-2.0-24.0","6320fb375d2abadf259b7889","B2","batch2","","495.7000000476837","tol_trial_num","<div class = centerbox><p class = center-block-text>problem <strong>6</strong> out of 25 problems</p></div>","0","","","","","","","","","","","","","","","","","","","","","","","","",""
"","","","","","single-stim-button","100","215711","0.0-2.0-25.0-0.0","6320fb375d2abadf259b7889","B2","batch2","","12252","tol_tohand","","","","tol_peg_3","12252","12252","0","[[0,0,0],[1,2],[0]]","1","[[1,0,0],[2,3],[0]]","5","0","","","","","","6","","","","","","","","",""
"","","","","","single-stim-button","101","216417","0.0-2.0-25.0-1.0","6320fb375d2abadf259b7889","B2","batch2","","706","tol_toboard","","","","tol_peg_1","706","706","0","[[3,0,0],[1,2],[0]]","1","[[1,0,0],[2,3],[0]]","5","0","","","","","","6","","","","","","","","",""
"","","","","","single-stim-button","102","220747","0.0-2.0-25.1-0.1","6320fb375d2abadf259b7889","B2","batch2","","4329","tol_tohand","","","","tol_peg_2","4329","4329","0","[[3,0,0],[1,0],[0]]","2","[[1,0,0],[2,3],[0]]","5","0","","","","","","6","","","","","","","","",""
"","","","","","single-stim-button","103","221531","0.0-2.0-25.1-1.1","6320fb375d2abadf259b7889","B2","batch2","","784","tol_toboard","","","","tol_peg_3","784","784","0","[[3,0,0],[1,0],[2]]","2","[[1,0,0],[2,3],[0]]","5","0","","","","","","6","","","","","","","","",""
"","","","","","single-stim-button","104","223658","0.0-2.0-25.2-0.2","6320fb375d2abadf259b7889","B2","batch2","","2126","tol_tohand","","","","tol_peg_2","2126","2126","0","[[3,0,0],[0,0],[2]]","3","[[1,0,0],[2,3],[0]]","5","0","","","","","","6","","","","","","","","",""
"","","","","","single-stim-button","105","224079","0.0-2.0-25.2-1.2","6320fb375d2abadf259b7889","B2","batch2","","421","tol_toboard","","","","tol_peg_1","421","421","0","[[3,1,0],[0,0],[2]]","3","[[1,0,0],[2,3],[0]]","5","0","","","","","","6","","","","","","","","",""
"","","","","","single-stim-button","106","224506","0.0-2.0-25.3-0.3","6320fb375d2abadf259b7889","B2","batch2","","425","tol_tohand","","","","tol_peg_3","425","425","0","[[3,1,0],[0,0],[0]]","4","[[1,0,0],[2,3],[0]]","5","0","","","","","","6","","","","","","","","",""
"","","","","","single-stim-button","107","224997","0.0-2.0-25.3-1.3","6320fb375d2abadf259b7889","B2","batch2","","491","tol_toboard","","","","tol_peg_2","491","491","0","[[3,1,0],[2,0],[0]]","4","[[1,0,0],[2,3],[0]]","5","0","","","","","","6","","","","","","","","",""
"","","","","","single-stim-button","108","226009","0.0-2.0-25.4-0.4","6320fb375d2abadf259b7889","B2","batch2","","1012","tol_tohand","","","","tol_peg_1","1012","1012","0","[[3,0,0],[2,0],[0]]","5","[[1,0,0],[2,3],[0]]","5","0","","","","","","6","","","","","","","","",""
"","","","","","single-stim-button","109","226833","0.0-2.0-25.4-1.4","6320fb375d2abadf259b7889","B2","batch2","","824","tol_toboard","","","","tol_peg_3","824","824","0","[[3,0,0],[2,0],[1]]","5","[[1,0,0],[2,3],[0]]","5","0","","","","","","6","","","","","","","","",""
"","","","","","single-stim-button","110","227233","0.0-2.0-25.5-0.5","6320fb375d2abadf259b7889","B2","batch2","","400","tol_tohand","","","","tol_peg_1","400","400","0","[[0,0,0],[2,0],[1]]","6","[[1,0,0],[2,3],[0]]","5","0","","","","","","6","","","","","","","","",""
"","","","","","single-stim-button","111","227585","0.0-2.0-25.5-1.5","6320fb375d2abadf259b7889","B2","batch2","","351","tol_toboard","","","","tol_peg_2","351","351","0","[[0,0,0],[2,3],[1]]","6","[[1,0,0],[2,3],[0]]","5","0","","","","","","6","","","","","","","","",""
"","","","","","single-stim-button","112","227955","0.0-2.0-25.6-0.6","6320fb375d2abadf259b7889","B2","batch2","","368","tol_tohand","","","","tol_peg_3","368","368","0","[[0,0,0],[2,3],[0]]","7","[[1,0,0],[2,3],[0]]","5","0","","","","","","6","","","","","","","","",""
"","","","","","single-stim-button","113","228543","0.0-2.0-25.6-1.6","6320fb375d2abadf259b7889","B2","batch2","","588","tol_toboard","","","","tol_peg_1","588","588","0","[[1,0,0],[2,3],[0]]","7","[[1,0,0],[2,3],[0]]","5","0","","","","","","6","","","","","","","","",""
"","","","","","poldrack-single-stim","114","229544","0.0-2.0-26.0","6320fb375d2abadf259b7889","B2","batch2","","-1","tol_feedback","","","true","","1000","1000","500","","","","","","-1","none","true","12252","20912","","","","","","","","","",""
"","","","","","html-button-response","115","230151","0.0-2.0-27.0","6320fb375d2abadf259b7889","B2","batch2","","606.0999999046326","tol_trial_num","<div class = centerbox><p class = center-block-text>problem <strong>7</strong> out of 25 problems</p></div>","0","","","","","","","","","","","","","","","","","","","","","","","","",""
"","","","","","single-stim-button","116","238873","0.0-2.0-28.0-0.0","6320fb375d2abadf259b7889","B2","batch2","","8721","tol_tohand","","","","tol_peg_3","8721","8721","0","[[2,1,0],[0,0],[0]]","1","[[1,2,0],[3,0],[0]]","6","0","","","","","","5","","","","","","","","",""
"","","","","","single-stim-button","117","239681","0.0-2.0-28.0-1.0","6320fb375d2abadf259b7889","B2","batch2","","807","tol_toboard","","","","tol_peg_2","807","807","0","[[2,1,0],[3,0],[0]]","1","[[1,2,0],[3,0],[0]]","6","0","","","","","","5","","","","","","","","",""
"","","","","","single-stim-button","118","240315","0.0-2.0-28.1-0.1","6320fb375d2abadf259b7889","B2","batch2","","633","tol_tohand","","","","tol_peg_1","633","633","0","[[2,0,0],[3,0],[0]]","2","[[1,2,0],[3,0],[0]]","6","0","","","","","","5","","","","","","","","",""
"","","","","","single-stim-button","119","245250","0.0-2.0-28.1-1.1","6320fb375d2abadf259b7889","B2","batch2","","4934","tol_toboard","","","","tol_peg_3","4934","4934","0","[[2,0,0],[3,0],[1]]","2","[[1,2,0],[3,0],[0]]","6","0","","","","","","5","","","","","","","","",""
"","","","","","single-stim-button","120","245703","0.0-2.0-28.2-0.2","6320fb375d2abadf259b7889","B2","batch2","","452","tol_tohand","","","","tol_peg_1","452","452","0","[[0,0,0],[3,0],[1]]","3","[[1,2,0],[3,0],[0]]","6","0","","","","","","5","","","","","","","","",""
"","","","","","single-stim-button","121","245985","0.0-2.0-28.2-1.2","6320fb375d2abadf259b7889","B2","batch2","","282","tol_toboard","","","","tol_peg_2","282","282","0","[[0,0,0],[3,2],[1]]","3","[[1,2,0],[3,0],[0]]","6","0","","","","","","5","","","","","","","","",""
"","","","","","single-stim-button","122","246356","0.0-2.0-28.3-0.3","6320fb375d2abadf259b7889","B2","batch2","","371","tol_tohand","","","","tol_peg_3","371","371","0","[[0,0,0],[3,2],[0]]","4","[[1,2,0],[3,0],[0]]","6","0","","","","","","5","","","","","","","","",""
"","","","","","single-stim-button","123","246872","0.0-2.0-28.3-1.3","6320fb375d2abadf259b7889","B2","batch2","","515","tol_toboard","","","","tol_peg_1","515","515","0","[[1,0,0],[3,2],[0]]","4","[[1,2,0],[3,0],[0]]","6","0","","","","","","5","","","","","","","","",""
"","","","","","single-stim-button","124","247257","0.0-2.0-28.4-0.4","6320fb375d2abadf259b7889","B2","batch2","","385","tol_tohand","","","","tol_peg_2","385","385","0","[[1,0,0],[3,0],[0]]","5","[[1,2,0],[3,0],[0]]","6","0","","","","","","5","","","","","","","","",""
"","","","","","single-stim-button","125","247547","0.0-2.0-28.4-1.4","6320fb375d2abadf259b7889","B2","batch2","","290","tol_toboard","","","","tol_peg_1","290","290","0","[[1,2,0],[3,0],[0]]","5","[[1,2,0],[3,0],[0]]","6","0","","","","","","5","","","","","","","","",""
"","","","","","poldrack-single-stim","126","248549","0.0-2.0-29.0","6320fb375d2abadf259b7889","B2","batch2","","-1","tol_feedback","","","true","","1000","1000","500","","","","","","-1","none","true","8721","10562","","","","","","","","","",""
"","","","","","html-button-response","127","249177","0.0-2.0-30.0","6320fb375d2abadf259b7889","B2","batch2","","627.2999999523163","tol_trial_num","<div class = centerbox><p class = center-block-text>problem <strong>8</strong> out of 25 problems</p></div>","0","","","","","","","","","","","","","","","","","","","","","","","","",""
"","","","","","single-stim-button","128","262395","0.0-2.0-31.0-0.0","6320fb375d2abadf259b7889","B2","batch2","","13217","tol_tohand","","","","tol_peg_2","13217","13217","0","[[0,0,0],[2,0],[1]]","1","[[1,2,0],[3,0],[0]]","7","0","","","","","","4","","","","","","","","",""
"","","","","","single-stim-button","129","262795","0.0-2.0-31.0-1.0","6320fb375d2abadf259b7889","B2","batch2","","399","tol_toboard","","","","tol_peg_1","399","399","0","[[3,0,0],[2,0],[1]]","1","[[1,2,0],[3,0],[0]]","7","0","","","","","","4","","","","","","","","",""
"","","","","","single-stim-button","130","263249","0.0-2.0-31.1-0.1","6320fb375d2abadf259b7889","B2","batch2","","453","tol_tohand","","","","tol_peg_2","453","453","0","[[3,0,0],[0,0],[1]]","2","[[1,2,0],[3,0],[0]]","7","0","","","","","","4","","","","","","","","",""
"","","","","","single-stim-button","131","268763","0.0-2.0-31.1-1.1","6320fb375d2abadf259b7889","B2","batch2","","5513","tol_toboard","","","","tol_peg_2","5513","5513","0","[[3,0,0],[2,0],[1]]","2","[[1,2,0],[3,0],[0]]","7","0","","","","","","4","","","","","","","","",""
"","","","","","single-stim-button","132","269109","0.0-2.0-31.2-0.2","6320fb375d2abadf259b7889","B2","batch2","","345","tol_tohand","","","","tol_peg_1","345","345","0","[[0,0,0],[2,0],[1]]","3","[[1,2,0],[3,0],[0]]","7","0","","","","","","4","","","","","","","","",""
"","","","","","single-stim-button","133","269360","0.0-2.0-31.2-1.2","6320fb375d2abadf259b7889","B2","batch2","","251","tol_toboard","","","","tol_peg_2","251","251","0","[[0,0,0],[2,3],[1]]","3","[[1,2,0],[3,0],[0]]","7","0","","","","","","4","","","","","","","","",""
"","","","","","single-stim-button","134","269666","0.0-2.0-31.3-0.3","6320fb375d2abadf259b7889","B2","batch2","","306","tol_tohand","","","","tol_peg_3","306","306","0","[[0,0,0],[2,3],[0]]","4","[[1,2,0],[3,0],[0]]","7","0","","","","","","4","","","","","","","","",""
"","","","","","single-stim-button","135","270065","0.0-2.0-31.3-1.3","6320fb375d2abadf259b7889","B2","batch2","","398","tol_toboard","","","","tol_peg_1","398","398","0","[[1,0,0],[2,3],[0]]","4","[[1,2,0],[3,0],[0]]","7","0","","","","","","4","","","","","","","","",""
"","","","","","single-stim-button","136","273118","0.0-2.0-31.4-0.4","6320fb375d2abadf259b7889","B2","batch2","","3051","tol_tohand","","","","tol_peg_2","3051","3051","0","[[1,0,0],[2,0],[0]]","5","[[1,2,0],[3,0],[0]]","7","0","","","","","","4","","","","","","","","",""
"","","","","","single-stim-button","137","273501","0.0-2.0-31.4-1.4","6320fb375d2abadf259b7889","B2","batch2","","383","tol_toboard","","","","tol_peg_3","383","383","0","[[1,0,0],[2,0],[3]]","5","[[1,2,0],[3,0],[0]]","7","0","","","","","","4","","","","","","","","",""
"","","","","","single-stim-button","138","274082","0.0-2.0-31.5-0.5","6320fb375d2abadf259b7889","B2","batch2","","579","tol_tohand","","","","tol_peg_3","579","579","0","[[1,0,0],[2,0],[0]]","6","[[1,2,0],[3,0],[0]]","7","0","","","","","","4","","","","","","","","",""
"","","","","","single-stim-button","139","275157","0.0-2.0-31.5-1.5","6320fb375d2abadf259b7889","B2","batch2","","1075","tol_toboard","","","","tol_peg_3","1075","1075","0","[[1,0,0],[2,0],[3]]","6","[[1,2,0],[3,0],[0]]","7","0","","","","","","4","","","","","","","","",""
"","","","","","single-stim-button","140","275558","0.0-2.0-31.6-0.6","6320fb375d2abadf259b7889","B2","batch2","","400","tol_tohand","","","","tol_peg_2","400","400","0","[[1,0,0],[0,0],[3]]","7","[[1,2,0],[3,0],[0]]","7","0","","","","","","4","","","","","","","","",""
"","","","","","single-stim-button","141","275957","0.0-2.0-31.6-1.6","6320fb375d2abadf259b7889","B2","batch2","","399","tol_toboard","","","","tol_peg_1","399","399","0","[[1,2,0],[0,0],[3]]","7","[[1,2,0],[3,0],[0]]","7","0","","","","","","4","","","","","","","","",""
"","","","","","single-stim-button","142","277313","0.0-2.0-31.7-0.7","6320fb375d2abadf259b7889","B2","batch2","","1355","tol_tohand","","","","tol_peg_3","1355","1355","0","[[1,2,0],[0,0],[0]]","8","[[1,2,0],[3,0],[0]]","7","0","","","","","","4","","","","","","","","",""
"","","","","","single-stim-button","143","277729","0.0-2.0-31.7-1.7","6320fb375d2abadf259b7889","B2","batch2","","416","tol_toboard","","","","tol_peg_2","416","416","0","[[1,2,0],[3,0],[0]]","8","[[1,2,0],[3,0],[0]]","7","0","","","","","","4","","","","","","","","",""
"","","","","","poldrack-single-stim","144","278731","0.0-2.0-32.0","6320fb375d2abadf259b7889","B2","batch2","","-1","tol_feedback","","","true","","1000","1000","500","","","","","","-1","none","true","13217","19706","","","","","","","","","",""
"","","","","","html-button-response","145","279659","0.0-2.0-33.0","6320fb375d2abadf259b7889","B2","batch2","","927","tol_trial_num","<div class = centerbox><p class = center-block-text>problem <strong>9</strong> out of 25 problems</p></div>","0","","","","","","","","","","","","","","","","","","","","","","","","",""
"","","","","","single-stim-button","146","293465","0.0-2.0-34.0-0.0","6320fb375d2abadf259b7889","B2","batch2","","13805","tol_tohand","","","","tol_peg_1","13805","13805","0","[[3,0,0],[0,0],[1]]","1","[[2,1,0],[3,0],[0]]","8","0","","","","","","6","","","","","","","","",""
"","","","","","single-stim-button","147","293975","0.0-2.0-34.0-1.0","6320fb375d2abadf259b7889","B2","batch2","","510","tol_toboard","","","","tol_peg_2","510","510","0","[[3,0,0],[2,0],[1]]","1","[[2,1,0],[3,0],[0]]","8","0","","","","","","6","","","","","","","","",""
"","","","","","single-stim-button","148","294343","0.0-2.0-34.1-0.1","6320fb375d2abadf259b7889","B2","batch2","","366","tol_tohand","","","","tol_peg_3","366","366","0","[[3,0,0],[2,0],[0]]","2","[[2,1,0],[3,0],[0]]","8","0","","","","","","6","","","","","","","","",""
"","","","","","single-stim-button","149","294893","0.0-2.0-34.1-1.1","6320fb375d2abadf259b7889","B2","batch2","","550","tol_toboard","","","","tol_peg_2","550","550","0","[[3,0,0],[2,1],[0]]","2","[[2,1,0],[3,0],[0]]","8","0","","","","","","6","","","","","","","","",""
"","","","","","single-stim-button","150","295278","0.0-2.0-34.2-0.2","6320fb375d2abadf259b7889","B2","batch2","","384","tol_tohand","","","","tol_peg_1","384","384","0","[[0,0,0],[2,1],[0]]","3","[[2,1,0],[3,0],[0]]","8","0","","","","","","6","","","","","","","","",""
"","","","","","single-stim-button","151","296657","0.0-2.0-34.2-1.2","6320fb375d2abadf259b7889","B2","batch2","","1379","tol_toboard","","","","tol_peg_3","1379","1379","0","[[0,0,0],[2,1],[3]]","3","[[2,1,0],[3,0],[0]]","8","0","","","","","","6","","","","","","","","",""
"","","","","","single-stim-button","152","298493","0.0-2.0-34.3-0.3","6320fb375d2abadf259b7889","B2","batch2","","1836","tol_tohand","","","","tol_peg_2","1836","1836","0","[[0,0,0],[2,0],[3]]","4","[[2,1,0],[3,0],[0]]","8","0","","","","","","6","","","","","","","","",""
"","","","","","single-stim-button","153","299317","0.0-2.0-34.3-1.3","6320fb375d2abadf259b7889","B2","batch2","","824","tol_toboard","","","","tol_peg_1","824","824","0","[[1,0,0],[2,0],[3]]","4","[[2,1,0],[3,0],[0]]","8","0","","","","","","6","","","","","","","","",""
"","","","","","single-stim-button","154","299967","0.0-2.0-34.4-0.4","6320fb375d2abadf259b7889","B2","batch2","","650","tol_tohand","","","","tol_peg_2","650","650","0","[[1,0,0],[0,0],[3]]","5","[[2,1,0],[3,0],[0]]","8","0","","","","","","6","","","","","","","","",""
"","","","","","single-stim-button","155","303011","0.0-2.0-34.4-1.4","6320fb375d2abadf259b7889","B2","batch2","","3044","tol_toboard","","","","tol_peg_1","3044","3044","0","[[1,2,0],[0,0],[3]]","5","[[2,1,0],[3,0],[0]]","8","0","","","","","","6","","","","","","","","",""
"","","","","","single-stim-button","156","304039","0.0-2.0-34.5-0.5","6320fb375d2abadf259b7889","B2","batch2","","1028","tol_tohand","","","","tol_peg_3","1028","1028","0","[[1,2,0],[0,0],[0]]","6","[[2,1,0],[3,0],[0]]","8","0","","","","","","6","","","","","","","","",""
"","","","","","single-stim-button","157","304383","0.0-2.0-34.5-1.5","6320fb375d2abadf259b7889","B2","batch2","","344","tol_toboard","","","","tol_peg_2","344","344","0","[[1,2,0],[3,0],[0]]","6","[[2,1,0],[3,0],[0]]","8","0","","","","","","6","","","","","","","","",""
"","","","","","single-stim-button","158","305081","0.0-2.0-34.6-0.6","6320fb375d2abadf259b7889","B2","batch2","","698","tol_tohand","","","","tol_peg_1","698","698","0","[[1,0,0],[3,0],[0]]","7","[[2,1,0],[3,0],[0]]","8","0","","","","","","6","","","","","","","","",""
"","","","","","single-stim-button","159","305443","0.0-2.0-34.6-1.6","6320fb375d2abadf259b7889","B2","batch2","","362","tol_toboard","","","","tol_peg_2","362","362","0","[[1,0,0],[3,2],[0]]","7","[[2,1,0],[3,0],[0]]","8","0","","","","","","6","","","","","","","","",""
"","","","","","single-stim-button","160","307199","0.0-2.0-34.7-0.7","6320fb375d2abadf259b7889","B2","batch2","","1756","tol_tohand","","","","tol_peg_1","1756","1756","0","[[0,0,0],[3,2],[0]]","8","[[2,1,0],[3,0],[0]]","8","0","","","","","","6","","","","","","","","",""
"","","","","","single-stim-button","161","307623","0.0-2.0-34.7-1.7","6320fb375d2abadf259b7889","B2","batch2","","424","tol_toboard","","","","tol_peg_3","424","424","0","[[0,0,0],[3,2],[1]]","8","[[2,1,0],[3,0],[0]]","8","0","","","","","","6","","","","","","","","",""
"","","","","","single-stim-button","162","308040","0.0-2.0-34.8-0.8","6320fb375d2abadf259b7889","B2","batch2","","415","tol_tohand","","","","tol_peg_2","415","415","0","[[0,0,0],[3,0],[1]]","9","[[2,1,0],[3,0],[0]]","8","0","","","","","","6","","","","","","","","",""
"","","","","","single-stim-button","163","308698","0.0-2.0-34.8-1.8","6320fb375d2abadf259b7889","B2","batch2","","657","tol_toboard","","","","tol_peg_1","657","657","0","[[2,0,0],[3,0],[1]]","9","[[2,1,0],[3,0],[0]]","8","0","","","","","","6","","","","","","","","",""
"","","","","","single-stim-button","164","309215","0.0-2.0-34.9-0.9","6320fb375d2abadf259b7889","B2","batch2","","517","tol_tohand","","","","tol_peg_3","517","517","0","[[2,0,0],[3,0],[0]]","10","[[2,1,0],[3,0],[0]]","8","0","","","","","","6","","","","","","","","",""
"","","","","","single-stim-button","165","309663","0.0-2.0-34.9-1.9","6320fb375d2abadf259b7889","B2","batch2","","447","tol_toboard","","","","tol_peg_1","447","447","0","[[2,1,0],[3,0],[0]]","10","[[2,1,0],[3,0],[0]]","8","0","","","","","","6","","","","","","","","",""
"","","","","","poldrack-single-stim","166","310665","0.0-2.0-35.0","6320fb375d2abadf259b7889","B2","batch2","","-1","tol_feedback","","","true","","1000","1000","500","","","","","","-1","none","true","13805","21455","","","","","","","","","",""
"","","","","","html-button-response","167","311529","0.0-2.0-36.0","6320fb375d2abadf259b7889","B2","batch2","","862.7999999523163","tol_trial_num","<div class = centerbox><p class = center-block-text>problem <strong>10</strong> out of 25 problems</p></div>","0","","","","","","","","","","","","","","","","","","","","","","","","",""
"","","","","","single-stim-button","168","315891","0.0-2.0-37.0-0.0","6320fb375d2abadf259b7889","B2","batch2","","4362","tol_tohand","","","","tol_peg_2","4362","4362","0","[[3,0,0],[0,0],[2]]","1","[[3,0,0],[2,1],[0]]","9","0","","","","","","3","","","","","","","","",""
"","","","","","single-stim-button","169","316337","0.0-2.0-37.0-1.0","6320fb375d2abadf259b7889","B2","batch2","","446","tol_toboard","","","","tol_peg_1","446","446","0","[[3,1,0],[0,0],[2]]","1","[[3,0,0],[2,1],[0]]","9","0","","","","","","3","","","","","","","","",""
"","","","","","single-stim-button","170","317099","0.0-2.0-37.1-0.1","6320fb375d2abadf259b7889","B2","batch2","","762","tol_tohand","","","","tol_peg_3","762","762","0","[[3,1,0],[0,0],[0]]","2","[[3,0,0],[2,1],[0]]","9","0","","","","","","3","","","","","","","","",""
"","","","","","single-stim-button","171","317805","0.0-2.0-37.1-1.1","6320fb375d2abadf259b7889","B2","batch2","","706","tol_toboard","","","","tol_peg_2","706","706","0","[[3,1,0],[2,0],[0]]","2","[[3,0,0],[2,1],[0]]","9","0","","","","","","3","","","","","","","","",""
"","","","","","single-stim-button","172","318243","0.0-2.0-37.2-0.2","6320fb375d2abadf259b7889","B2","batch2","","437","tol_tohand","","","","tol_peg_1","437","437","0","[[3,0,0],[2,0],[0]]","3","[[3,0,0],[2,1],[0]]","9","0","","","","","","3","","","","","","","","",""
"","","","","","single-stim-button","173","318629","0.0-2.0-37.2-1.2","6320fb375d2abadf259b7889","B2","batch2","","386","tol_toboard","","","","tol_peg_2","386","386","0","[[3,0,0],[2,1],[0]]","3","[[3,0,0],[2,1],[0]]","9","0","","","","","","3","","","","","","","","",""
"","","","","","poldrack-single-stim","174","319631","0.0-2.0-38.0","6320fb375d2abadf259b7889","B2","batch2","","-1","tol_feedback","","","true","","1000","1000","500","","","","","","-1","none","true","4362","5561","","","","","","","","","",""
"","","","","","html-button-response","175","320393","0.0-2.0-39.0","6320fb375d2abadf259b7889","B2","batch2","","761","tol_trial_num","<div class = centerbox><p class = center-block-text>problem <strong>11</strong> out of 25 problems</p></div>","0","","","","","","","","","","","","","","","","","","","","","","","","",""
"","","","","","single-stim-button","176","333343","0.0-2.0-40.0-0.0","6320fb375d2abadf259b7889","B2","batch2","","12949","tol_tohand","","","","tol_peg_1","12949","12949","0","[[1,0,0],[3,0],[0]]","1","[[2,0,0],[1,3],[0]]","10","0","","","","","","6","","","","","","","","",""
"","","","","","single-stim-button","177","333805","0.0-2.0-40.0-1.0","6320fb375d2abadf259b7889","B2","batch2","","462","tol_toboard","","","","tol_peg_2","462","462","0","[[1,0,0],[3,2],[0]]","1","[[2,0,0],[1,3],[0]]","10","0","","","","","","6","","","","","","","","",""
"","","","","","single-stim-button","178","334197","0.0-2.0-40.1-0.1","6320fb375d2abadf259b7889","B2","batch2","","390","tol_tohand","","","","tol_peg_1","390","390","0","[[0,0,0],[3,2],[0]]","2","[[2,0,0],[1,3],[0]]","10","0","","","","","","6","","","","","","","","",""
"","","","","","single-stim-button","179","334889","0.0-2.0-40.1-1.1","6320fb375d2abadf259b7889","B2","batch2","","692","tol_toboard","","","","tol_peg_3","692","692","0","[[0,0,0],[3,2],[1]]","2","[[2,0,0],[1,3],[0]]","10","0","","","","","","6","","","","","","","","",""
"","","","","","single-stim-button","180","336989","0.0-2.0-40.2-0.2","6320fb375d2abadf259b7889","B2","batch2","","2099","tol_tohand","","","","tol_peg_2","2099","2099","0","[[0,0,0],[3,0],[1]]","3","[[2,0,0],[1,3],[0]]","10","0","","","","","","6","","","","","","","","",""
"","","","","","single-stim-button","181","337477","0.0-2.0-40.2-1.2","6320fb375d2abadf259b7889","B2","batch2","","488","tol_toboard","","","","tol_peg_1","488","488","0","[[2,0,0],[3,0],[1]]","3","[[2,0,0],[1,3],[0]]","10","0","","","","","","6","","","","","","","","",""
"","","","","","single-stim-button","182","339483","0.0-2.0-40.3-0.3","6320fb375d2abadf259b7889","B2","batch2","","2005","tol_tohand","","","","tol_peg_2","2005","2005","0","[[2,0,0],[0,0],[1]]","4","[[2,0,0],[1,3],[0]]","10","0","","","","","","6","","","","","","","","",""
"","","","","","single-stim-button","183","339727","0.0-2.0-40.3-1.3","6320fb375d2abadf259b7889","B2","batch2","","243","tol_toboard","","","","tol_peg_1","243","243","0","[[2,3,0],[0,0],[1]]","4","[[2,0,0],[1,3],[0]]","10","0","","","","","","6","","","","","","","","",""
"","","","","","single-stim-button","184","340135","0.0-2.0-40.4-0.4","6320fb375d2abadf259b7889","B2","batch2","","408","tol_tohand","","","","tol_peg_3","408","408","0","[[2,3,0],[0,0],[0]]","5","[[2,0,0],[1,3],[0]]","10","0","","","","","","6","","","","","","","","",""
"","","","","","single-stim-button","185","340495","0.0-2.0-40.4-1.4","6320fb375d2abadf259b7889","B2","batch2","","360","tol_toboard","","","","tol_peg_2","360","360","0","[[2,3,0],[1,0],[0]]","5","[[2,0,0],[1,3],[0]]","10","0","","","","","","6","","","","","","","","",""
"","","","","","single-stim-button","186","340989","0.0-2.0-40.5-0.5","6320fb375d2abadf259b7889","B2","batch2","","494","tol_tohand","","","","tol_peg_1","494","494","0","[[2,0,0],[1,0],[0]]","6","[[2,0,0],[1,3],[0]]","10","0","","","","","","6","","","","","","","","",""
"","","","","","single-stim-button","187","341311","0.0-2.0-40.5-1.5","6320fb375d2abadf259b7889","B2","batch2","","322","tol_toboard","","","","tol_peg_2","322","322","0","[[2,0,0],[1,3],[0]]","6","[[2,0,0],[1,3],[0]]","10","0","","","","","","6","","","","","","","","",""
"","","","","","poldrack-single-stim","188","342312","0.0-2.0-41.0","6320fb375d2abadf259b7889","B2","batch2","","-1","tol_feedback","","","true","","1000","1000","500","","","","","","-1","none","true","12949","18345","","","","","","","","","",""
"","","","","","html-button-response","189","343013","0.0-2.0-42.0","6320fb375d2abadf259b7889","B2","batch2","","700","tol_trial_num","<div class = centerbox><p class = center-block-text>problem <strong>12</strong> out of 25 problems</p></div>","0","","","","","","","","","","","","","","","","","","","","","","","","",""
"","","","","","single-stim-button","190","346347","0.0-2.0-43.0-0.0","6320fb375d2abadf259b7889","B2","batch2","","3333","tol_tohand","","","","tol_peg_1","3333","3333","0","[[1,0,0],[3,0],[0]]","1","[[2,3,0],[0,0],[1]]","11","0","","","","","","4","","","","","","","","",""
"","","","","","single-stim-button","191","346683","0.0-2.0-43.0-1.0","6320fb375d2abadf259b7889","B2","batch2","","335","tol_toboard","","","","tol_peg_2","335","335","0","[[1,0,0],[3,2],[0]]","1","[[2,3,0],[0,0],[1]]","11","0","","","","","","4","","","","","","","","",""
"","","","","","single-stim-button","192","347123","0.0-2.0-43.1-0.1","6320fb375d2abadf259b7889","B2","batch2","","440","tol_tohand","","","","tol_peg_1","440","440","0","[[0,0,0],[3,2],[0]]","2","[[2,3,0],[0,0],[1]]","11","0","","","","","","4","","","","","","","","",""
"","","","","","single-stim-button","193","347775","0.0-2.0-43.1-1.1","6320fb375d2abadf259b7889","B2","batch2","","652","tol_toboard","","","","tol_peg_3","652","652","0","[[0,0,0],[3,2],[1]]","2","[[2,3,0],[0,0],[1]]","11","0","","","","","","4","","","","","","","","",""
"","","","","","single-stim-button","194","348237","0.0-2.0-43.2-0.2","6320fb375d2abadf259b7889","B2","batch2","","461","tol_tohand","","","","tol_peg_2","461","461","0","[[0,0,0],[3,0],[1]]","3","[[2,3,0],[0,0],[1]]","11","0","","","","","","4","","","","","","","","",""
"","","","","","single-stim-button","195","348723","0.0-2.0-43.2-1.2","6320fb375d2abadf259b7889","B2","batch2","","485","tol_toboard","","","","tol_peg_1","485","485","0","[[2,0,0],[3,0],[1]]","3","[[2,3,0],[0,0],[1]]","11","0","","","","","","4","","","","","","","","",""
"","","","","","single-stim-button","196","349161","0.0-2.0-43.3-0.3","6320fb375d2abadf259b7889","B2","batch2","","437","tol_tohand","","","","tol_peg_2","437","437","0","[[2,0,0],[0,0],[1]]","4","[[2,3,0],[0,0],[1]]","11","0","","","","","","4","","","","","","","","",""
"","","","","","single-stim-button","197","349883","0.0-2.0-43.3-1.3","6320fb375d2abadf259b7889","B2","batch2","","722","tol_toboard","","","","tol_peg_1","722","722","0","[[2,3,0],[0,0],[1]]","4","[[2,3,0],[0,0],[1]]","11","0","","","","","","4","","","","","","","","",""
"","","","","","poldrack-single-stim","198","350885","0.0-2.0-44.0","6320fb375d2abadf259b7889","B2","batch2","","-1","tol_feedback","","","true","","1000","1000","500","","","","","","-1","none","true","3333","4671","","","","","","","","","",""
"","","","","","html-button-response","199","351397","0.0-2.0-45.0","6320fb375d2abadf259b7889","B2","batch2","","511.2999999523163","tol_trial_num","<div class = centerbox><p class = center-block-text>problem <strong>13</strong> out of 25 problems</p></div>","0","","","","","","","","","","","","","","","","","","","","","","","","",""
"","","","","","single-stim-button","200","355351","0.0-2.0-46.0-0.0","6320fb375d2abadf259b7889","B2","batch2","","3954","tol_tohand","","","","tol_peg_1","3954","3954","0","[[1,0,0],[3,0],[0]]","1","[[0,0,0],[2,3],[1]]","12","0","","","","","","4","","","","","","","","",""
"","","","","","single-stim-button","201","355646","0.0-2.0-46.0-1.0","6320fb375d2abadf259b7889","B2","batch2","","295","tol_toboard","","","","tol_peg_2","295","295","0","[[1,0,0],[3,2],[0]]","1","[[0,0,0],[2,3],[1]]","12","0","","","","","","4","","","","","","","","",""
"","","","","","single-stim-button","202","356086","0.0-2.0-46.1-0.1","6320fb375d2abadf259b7889","B2","batch2","","439","tol_tohand","","","","tol_peg_1","439","439","0","[[0,0,0],[3,2],[0]]","2","[[0,0,0],[2,3],[1]]","12","0","","","","","","4","","","","","","","","",""
"","","","","","single-stim-button","203","356650","0.0-2.0-46.1-1.1","6320fb375d2abadf259b7889","B2","batch2","","563","tol_toboard","","","","tol_peg_3","563","563","0","[[0,0,0],[3,2],[1]]","2","[[0,0,0],[2,3],[1]]","12","0","","","","","","4","","","","","","","","",""
"","","","","","single-stim-button","204","357498","0.0-2.0-46.2-0.2","6320fb375d2abadf259b7889","B2","batch2","","847","tol_tohand","","","","tol_peg_2","847","847","0","[[0,0,0],[3,0],[1]]","3","[[0,0,0],[2,3],[1]]","12","0","","","","","","4","","","","","","","","",""
"","","","","","single-stim-button","205","359090","0.0-2.0-46.2-1.2","6320fb375d2abadf259b7889","B2","batch2","","1592","tol_toboard","","","","tol_peg_1","1592","1592","0","[[2,0,0],[3,0],[1]]","3","[[0,0,0],[2,3],[1]]","12","0","","","","","","4","","","","","","","","",""
"","","","","","single-stim-button","206","359466","0.0-2.0-46.3-0.3","6320fb375d2abadf259b7889","B2","batch2","","375","tol_tohand","","","","tol_peg_2","375","375","0","[[2,0,0],[0,0],[1]]","4","[[0,0,0],[2,3],[1]]","12","0","","","","","","4","","","","","","","","",""
"","","","","","single-stim-button","207","360777","0.0-2.0-46.3-1.3","6320fb375d2abadf259b7889","B2","batch2","","1309","tol_toboard","","","","tol_peg_1","1309","1309","0","[[2,3,0],[0,0],[1]]","4","[[0,0,0],[2,3],[1]]","12","0","","","","","","4","","","","","","","","",""
"","","","","","single-stim-button","208","361756","0.0-2.0-46.4-0.4","6320fb375d2abadf259b7889","B2","batch2","","979","tol_tohand","","","","tol_peg_3","979","979","0","[[2,3,0],[0,0],[0]]","5","[[0,0,0],[2,3],[1]]","12","0","","","","","","4","","","","","","","","",""
"","","","","","single-stim-button","209","362948","0.0-2.0-46.4-1.4","6320fb375d2abadf259b7889","B2","batch2","","1191","tol_toboard","","","","tol_peg_2","1191","1191","0","[[2,3,0],[1,0],[0]]","5","[[0,0,0],[2,3],[1]]","12","0","","","","","","4","","","","","","","","",""
"","","","","","single-stim-button","210","363396","0.0-2.0-46.5-0.5","6320fb375d2abadf259b7889","B2","batch2","","447","tol_tohand","","","","tol_peg_1","447","447","0","[[2,0,0],[1,0],[0]]","6","[[0,0,0],[2,3],[1]]","12","0","","","","","","4","","","","","","","","",""
"","","","","","single-stim-button","211","366377","0.0-2.0-46.5-1.5","6320fb375d2abadf259b7889","B2","batch2","","2979","tol_toboard","","","","tol_peg_3","2979","2979","0","[[2,0,0],[1,0],[3]]","6","[[0,0,0],[2,3],[1]]","12","0","","","","","","4","","","","","","","","",""
"","","","","","single-stim-button","212","369434","0.0-2.0-46.6-0.6","6320fb375d2abadf259b7889","B2","batch2","","3057","tol_tohand","","","","tol_peg_2","3057","3057","0","[[2,0,0],[0,0],[3]]","7","[[0,0,0],[2,3],[1]]","12","0","","","","","","4","","","","","","","","",""
"","","","","","single-stim-button","213","371396","0.0-2.0-46.6-1.6","6320fb375d2abadf259b7889","B2","batch2","","1961","tol_toboard","","","","tol_peg_1","1961","1961","0","[[2,1,0],[0,0],[3]]","7","[[0,0,0],[2,3],[1]]","12","0","","","","","","4","","","","","","","","",""
"","","","","","single-stim-button","214","375026","0.0-2.0-46.7-0.7","6320fb375d2abadf259b7889","B2","batch2","","3629","tol_tohand","","","","tol_peg_1","3629","3629","0","[[2,0,0],[0,0],[3]]","8","[[0,0,0],[2,3],[1]]","12","0","","","","","","4","","","","","","","","",""
"","","","","","single-stim-button","215","376981","0.0-2.0-46.7-1.7","6320fb375d2abadf259b7889","B2","batch2","","1953","tol_toboard","","","","tol_peg_2","1953","1953","0","[[2,0,0],[1,0],[3]]","8","[[0,0,0],[2,3],[1]]","12","0","","","","","","4","","","","","","","","",""
"","","","","","single-stim-button","216","377364","0.0-2.0-46.8-0.8","6320fb375d2abadf259b7889","B2","batch2","","383","tol_tohand","","","","tol_peg_1","383","383","0","[[0,0,0],[1,0],[3]]","9","[[0,0,0],[2,3],[1]]","12","0","","","","","","4","","","","","","","","",""
"","","","","","single-stim-button","217","377622","0.0-2.0-46.8-1.8","6320fb375d2abadf259b7889","B2","batch2","","257","tol_toboard","","","","tol_peg_2","257","257","0","[[0,0,0],[1,2],[3]]","9","[[0,0,0],[2,3],[1]]","12","0","","","","","","4","","","","","","","","",""
"","","","","","single-stim-button","218","377960","0.0-2.0-46.9-0.9","6320fb375d2abadf259b7889","B2","batch2","","338","tol_tohand","","","","tol_peg_3","338","338","0","[[0,0,0],[1,2],[0]]","10","[[0,0,0],[2,3],[1]]","12","0","","","","","","4","","","","","","","","",""
"","","","","","single-stim-button","219","378587","0.0-2.0-46.9-1.9","6320fb375d2abadf259b7889","B2","batch2","","625","tol_toboard","","","","tol_peg_1","625","625","0","[[3,0,0],[1,2],[0]]","10","[[0,0,0],[2,3],[1]]","12","0","","","","","","4","","","","","","","","",""
"","","","","","single-stim-button","220","380611","0.0-2.0-46.10-0.10","6320fb375d2abadf259b7889","B2","batch2","","2022","tol_tohand","","","","tol_peg_2","2022","2022","0","[[3,0,0],[1,0],[0]]","11","[[0,0,0],[2,3],[1]]","12","0","","","","","","4","","","","","","","","",""
"","","","","","single-stim-button","221","382173","0.0-2.0-46.10-1.10","6320fb375d2abadf259b7889","B2","batch2","","1561","tol_toboard","","","","tol_peg_1","1561","1561","0","[[3,2,0],[1,0],[0]]","11","[[0,0,0],[2,3],[1]]","12","0","","","","","","4","","","","","","","","",""
"","","","","","single-stim-button","222","382540","0.0-2.0-46.11-0.11","6320fb375d2abadf259b7889","B2","batch2","","367","tol_tohand","","","","tol_peg_2","367","367","0","[[3,2,0],[0,0],[0]]","12","[[0,0,0],[2,3],[1]]","12","0","","","","","","4","","","","","","","","",""
"","","","","","single-stim-button","223","382908","0.0-2.0-46.11-1.11","6320fb375d2abadf259b7889","B2","batch2","","367","tol_toboard","","","","tol_peg_3","367","367","0","[[3,2,0],[0,0],[1]]","12","[[0,0,0],[2,3],[1]]","12","0","","","","","","4","","","","","","","","",""
"","","","","","single-stim-button","224","383504","0.0-2.0-46.12-0.12","6320fb375d2abadf259b7889","B2","batch2","","595","tol_tohand","","","","tol_peg_1","595","595","0","[[3,0,0],[0,0],[1]]","13","[[0,0,0],[2,3],[1]]","12","0","","","","","","4","","","","","","","","",""
"","","","","","single-stim-button","225","383851","0.0-2.0-46.12-1.12","6320fb375d2abadf259b7889","B2","batch2","","345","tol_toboard","","","","tol_peg_2","345","345","0","[[3,0,0],[2,0],[1]]","13","[[0,0,0],[2,3],[1]]","12","0","","","","","","4","","","","","","","","",""
"","","","","","single-stim-button","226","384251","0.0-2.0-46.13-0.13","6320fb375d2abadf259b7889","B2","batch2","","399","tol_tohand","","","","tol_peg_1","399","399","0","[[0,0,0],[2,0],[1]]","14","[[0,0,0],[2,3],[1]]","12","0","","","","","","4","","","","","","","","",""
"","","","","","single-stim-button","227","384611","0.0-2.0-46.13-1.13","6320fb375d2abadf259b7889","B2","batch2","","360","tol_toboard","","","","tol_peg_2","360","360","0","[[0,0,0],[2,3],[1]]","14","[[0,0,0],[2,3],[1]]","12","0","","","","","","4","","","","","","","","",""
"","","","","","poldrack-single-stim","228","385627","0.0-2.0-47.0","6320fb375d2abadf259b7889","B2","batch2","","-1","tol_feedback","","","true","","1000","1000","500","","","","","","-1","none","true","3954","17831","","","","","","","","","",""
"","","","","","html-button-response","229","391888","0.0-2.0-48.0","6320fb375d2abadf259b7889","B2","batch2","","6259.5","attention_check","<p class = block-text>How many balls are in your board<br></p>","1","true","","","","","","","","","","","","","","","","","","","","","","","",""
"","","","","","html-button-response","230","392587","0.0-2.0-49.0","6320fb375d2abadf259b7889","B2","batch2","","697.7000000476837","tol_trial_num","<div class = centerbox><p class = center-block-text>problem <strong>14</strong> out of 25 problems</p></div>","0","","","","","","","","","","","","","","","","","","","","","","","","",""
"","","","","","single-stim-button","231","396782","0.0-2.0-50.0-0.0","6320fb375d2abadf259b7889","B2","batch2","","4195","tol_tohand","","","","tol_peg_1","4195","4195","0","[[2,0,0],[3,0],[0]]","1","[[1,2,0],[3,0],[0]]","13","0","","","","","","4","","","","","","","","",""
"","","","","","single-stim-button","232","397472","0.0-2.0-50.0-1.0","6320fb375d2abadf259b7889","B2","batch2","","689","tol_toboard","","","","tol_peg_3","689","689","0","[[2,0,0],[3,0],[1]]","1","[[1,2,0],[3,0],[0]]","13","0","","","","","","4","","","","","","","","",""
"","","","","","single-stim-button","233","398508","0.0-2.0-50.1-0.1","6320fb375d2abadf259b7889","B2","batch2","","1035","tol_tohand","","","","tol_peg_1","1035","1035","0","[[0,0,0],[3,0],[1]]","2","[[1,2,0],[3,0],[0]]","13","0","","","","","","4","","","","","","","","",""
"","","","","","single-stim-button","234","398837","0.0-2.0-50.1-1.1","6320fb375d2abadf259b7889","B2","batch2","","327","tol_toboard","","","","tol_peg_2","327","327","0","[[0,0,0],[3,2],[1]]","2","[[1,2,0],[3,0],[0]]","13","0","","","","","","4","","","","","","","","",""
"","","","","","single-stim-button","235","399143","0.0-2.0-50.2-0.2","6320fb375d2abadf259b7889","B2","batch2","","305","tol_tohand","","","","tol_peg_3","305","305","0","[[0,0,0],[3,2],[0]]","3","[[1,2,0],[3,0],[0]]","13","0","","","","","","4","","","","","","","","",""
"","","","","","single-stim-button","236","399754","0.0-2.0-50.2-1.2","6320fb375d2abadf259b7889","B2","batch2","","611","tol_toboard","","","","tol_peg_1","611","611","0","[[1,0,0],[3,2],[0]]","3","[[1,2,0],[3,0],[0]]","13","0","","","","","","4","","","","","","","","",""
"","","","","","single-stim-button","237","400154","0.0-2.0-50.3-0.3","6320fb375d2abadf259b7889","B2","batch2","","399","tol_tohand","","","","tol_peg_2","399","399","0","[[1,0,0],[3,0],[0]]","4","[[1,2,0],[3,0],[0]]","13","0","","","","","","4","","","","","","","","",""
"","","","","","single-stim-button","238","400367","0.0-2.0-50.3-1.3","6320fb375d2abadf259b7889","B2","batch2","","212","tol_toboard","","","","tol_peg_1","212","212","0","[[1,2,0],[3,0],[0]]","4","[[1,2,0],[3,0],[0]]","13","0","","","","","","4","","","","","","","","",""
"","","","","","poldrack-single-stim","239","401368","0.0-2.0-51.0","6320fb375d2abadf259b7889","B2","batch2","","-1","tol_feedback","","","true","","1000","1000","500","","","","","","-1","none","true","4195","5934","","","","","","","","","",""
"","","","","","html-button-response","240","401998","0.0-2.0-52.0","6320fb375d2abadf259b7889","B2","batch2","","629.1000001430511","tol_trial_num","<div class = centerbox><p class = center-block-text>problem <strong>15</strong> out of 25 problems</p></div>","0","","","","","","","","","","","","","","","","","","","","","","","","",""
"","","","","","single-stim-button","241","405134","0.0-2.0-53.0-0.0","6320fb375d2abadf259b7889","B2","batch2","","3135","tol_tohand","","","","tol_peg_1","3135","3135","0","[[1,0,0],[3,0],[0]]","1","[[2,0,0],[3,0],[1]]","14","0","","","","","","3","","","","","","","","",""
"","","","","","single-stim-button","242","406837","0.0-2.0-53.0-1.0","6320fb375d2abadf259b7889","B2","batch2","","1702","tol_toboard","","","","tol_peg_2","1702","1702","0","[[1,0,0],[3,2],[0]]","1","[[2,0,0],[3,0],[1]]","14","0","","","","","","3","","","","","","","","",""
"","","","","","single-stim-button","243","407158","0.0-2.0-53.1-0.1","6320fb375d2abadf259b7889","B2","batch2","","321","tol_tohand","","","","tol_peg_1","321","321","0","[[0,0,0],[3,2],[0]]","2","[[2,0,0],[3,0],[1]]","14","0","","","","","","3","","","","","","","","",""
"","","","","","single-stim-button","244","407746","0.0-2.0-53.1-1.1","6320fb375d2abadf259b7889","B2","batch2","","588","tol_toboard","","","","tol_peg_3","588","588","0","[[0,0,0],[3,2],[1]]","2","[[2,0,0],[3,0],[1]]","14","0","","","","","","3","","","","","","","","",""
"","","","","","single-stim-button","245","408122","0.0-2.0-53.2-0.2","6320fb375d2abadf259b7889","B2","batch2","","376","tol_tohand","","","","tol_peg_2","376","376","0","[[0,0,0],[3,0],[1]]","3","[[2,0,0],[3,0],[1]]","14","0","","","","","","3","","","","","","","","",""
"","","","","","single-stim-button","246","408476","0.0-2.0-53.2-1.2","6320fb375d2abadf259b7889","B2","batch2","","354","tol_toboard","","","","tol_peg_1","354","354","0","[[2,0,0],[3,0],[1]]","3","[[2,0,0],[3,0],[1]]","14","0","","","","","","3","","","","","","","","",""
"","","","","","poldrack-single-stim","247","409478","0.0-2.0-54.0","6320fb375d2abadf259b7889","B2","batch2","","-1","tol_feedback","","","true","","1000","1000","500","","","","","","-1","none","true","3135","3832","","","","","","","","","",""
"","","","","","html-button-response","248","409958","0.0-2.0-55.0","6320fb375d2abadf259b7889","B2","batch2","","479.60000014305115","tol_trial_num","<div class = centerbox><p class = center-block-text>problem <strong>16</strong> out of 25 problems</p></div>","0","","","","","","","","","","","","","","","","","","","","","","","","",""
"","","","","","single-stim-button","249","419315","0.0-2.0-56.0-0.0","6320fb375d2abadf259b7889","B2","batch2","","9357","tol_tohand","","","","tol_peg_3","9357","9357","0","[[0,0,0],[2,3],[0]]","1","[[2,3,0],[1,0],[0]]","15","0","","","","","","7","","","","","","","","",""
"","","","","","single-stim-button","250","419729","0.0-2.0-56.0-1.0","6320fb375d2abadf259b7889","B2","batch2","","413","tol_toboard","","","","tol_peg_1","413","413","0","[[1,0,0],[2,3],[0]]","1","[[2,3,0],[1,0],[0]]","15","0","","","","","","7","","","","","","","","",""
"","","","","","single-stim-button","251","426027","0.0-2.0-56.1-0.1","6320fb375d2abadf259b7889","B2","batch2","","6297","tol_tohand","","","","tol_peg_1","6297","6297","0","[[0,0,0],[2,3],[0]]","2","[[2,3,0],[1,0],[0]]","15","0","","","","","","7","","","","","","","","",""
"","","","","","single-stim-button","252","428309","0.0-2.0-56.1-1.1","6320fb375d2abadf259b7889","B2","batch2","","2281","tol_toboard","","","","tol_peg_3","2281","2281","0","[[0,0,0],[2,3],[1]]","2","[[2,3,0],[1,0],[0]]","15","0","","","","","","7","","","","","","","","",""
"","","","","","single-stim-button","253","429957","0.0-2.0-56.2-0.2","6320fb375d2abadf259b7889","B2","batch2","","1647","tol_tohand","","","","tol_peg_2","1647","1647","0","[[0,0,0],[2,0],[1]]","3","[[2,3,0],[1,0],[0]]","15","0","","","","","","7","","","","","","","","",""
"","","","","","single-stim-button","254","430286","0.0-2.0-56.2-1.2","6320fb375d2abadf259b7889","B2","batch2","","329","tol_toboard","","","","tol_peg_1","329","329","0","[[3,0,0],[2,0],[1]]","3","[[2,3,0],[1,0],[0]]","15","0","","","","","","7","","","","","","","","",""
"","","","","","single-stim-button","255","433361","0.0-2.0-56.3-0.3","6320fb375d2abadf259b7889","B2","batch2","","3073","tol_tohand","","","","tol_peg_2","3073","3073","0","[[3,0,0],[0,0],[1]]","4","[[2,3,0],[1,0],[0]]","15","0","","","","","","7","","","","","","","","",""
"","","","","","single-stim-button","256","433799","0.0-2.0-56.3-1.3","6320fb375d2abadf259b7889","B2","batch2","","437","tol_toboard","","","","tol_peg_1","437","437","0","[[3,2,0],[0,0],[1]]","4","[[2,3,0],[1,0],[0]]","15","0","","","","","","7","","","","","","","","",""
"","","","","","single-stim-button","257","434254","0.0-2.0-56.4-0.4","6320fb375d2abadf259b7889","B2","batch2","","455","tol_tohand","","","","tol_peg_3","455","455","0","[[3,2,0],[0,0],[0]]","5","[[2,3,0],[1,0],[0]]","15","0","","","","","","7","","","","","","","","",""
"","","","","","single-stim-button","258","434670","0.0-2.0-56.4-1.4","6320fb375d2abadf259b7889","B2","batch2","","415","tol_toboard","","","","tol_peg_2","415","415","0","[[3,2,0],[1,0],[0]]","5","[[2,3,0],[1,0],[0]]","15","0","","","","","","7","","","","","","","","",""
"","","","","","single-stim-button","259","435423","0.0-2.0-56.5-0.5","6320fb375d2abadf259b7889","B2","batch2","","751","tol_tohand","","","","tol_peg_1","751","751","0","[[3,0,0],[1,0],[0]]","6","[[2,3,0],[1,0],[0]]","15","0","","","","","","7","","","","","","","","",""
"","","","","","single-stim-button","260","436136","0.0-2.0-56.5-1.5","6320fb375d2abadf259b7889","B2","batch2","","713","tol_toboard","","","","tol_peg_3","713","713","0","[[3,0,0],[1,0],[2]]","6","[[2,3,0],[1,0],[0]]","15","0","","","","","","7","","","","","","","","",""
"","","","","","single-stim-button","261","436521","0.0-2.0-56.6-0.6","6320fb375d2abadf259b7889","B2","batch2","","384","tol_tohand","","","","tol_peg_1","384","384","0","[[0,0,0],[1,0],[2]]","7","[[2,3,0],[1,0],[0]]","15","0","","","","","","7","","","","","","","","",""
"","","","","","single-stim-button","262","436851","0.0-2.0-56.6-1.6","6320fb375d2abadf259b7889","B2","batch2","","330","tol_toboard","","","","tol_peg_2","330","330","0","[[0,0,0],[1,3],[2]]","7","[[2,3,0],[1,0],[0]]","15","0","","","","","","7","","","","","","","","",""
"","","","","","single-stim-button","263","437243","0.0-2.0-56.7-0.7","6320fb375d2abadf259b7889","B2","batch2","","391","tol_tohand","","","","tol_peg_3","391","391","0","[[0,0,0],[1,3],[0]]","8","[[2,3,0],[1,0],[0]]","15","0","","","","","","7","","","","","","","","",""
"","","","","","single-stim-button","264","437754","0.0-2.0-56.7-1.7","6320fb375d2abadf259b7889","B2","batch2","","510","tol_toboard","","","","tol_peg_1","510","510","0","[[2,0,0],[1,3],[0]]","8","[[2,3,0],[1,0],[0]]","15","0","","","","","","7","","","","","","","","",""
"","","","","","single-stim-button","265","438097","0.0-2.0-56.8-0.8","6320fb375d2abadf259b7889","B2","batch2","","343","tol_tohand","","","","tol_peg_2","343","343","0","[[2,0,0],[1,0],[0]]","9","[[2,3,0],[1,0],[0]]","15","0","","","","","","7","","","","","","","","",""
"","","","","","single-stim-button","266","438748","0.0-2.0-56.8-1.8","6320fb375d2abadf259b7889","B2","batch2","","651","tol_toboard","","","","tol_peg_1","651","651","0","[[2,3,0],[1,0],[0]]","9","[[2,3,0],[1,0],[0]]","15","0","","","","","","7","","","","","","","","",""
"","","","","","poldrack-single-stim","267","439750","0.0-2.0-57.0","6320fb375d2abadf259b7889","B2","batch2","","-1","tol_feedback","","","true","","1000","1000","500","","","","","","-1","none","true","9357","22698","","","","","","","","","",""
"","","","","","html-button-response","268","440418","0.0-2.0-58.0","6320fb375d2abadf259b7889","B2","batch2","","667.4000000953674","tol_trial_num","<div class = centerbox><p class = center-block-text>problem <strong>17</strong> out of 25 problems</p></div>","0","","","","","","","","","","","","","","","","","","","","","","","","",""
"","","","","","single-stim-button","269","443219","0.0-2.0-59.0-0.0","6320fb375d2abadf259b7889","B2","batch2","","2799","tol_tohand","","","","tol_peg_2","2799","2799","0","[[1,2,0],[0,0],[0]]","1","[[3,1,0],[2,0],[0]]","16","0","","","","","","5","","","","","","","","",""
"","","","","","single-stim-button","270","443643","0.0-2.0-59.0-1.0","6320fb375d2abadf259b7889","B2","batch2","","423","tol_toboard","","","","tol_peg_3","423","423","0","[[1,2,0],[0,0],[3]]","1","[[3,1,0],[2,0],[0]]","16","0","","","","","","5","","","","","","","","",""
"","","","","","single-stim-button","271","444473","0.0-2.0-59.1-0.1","6320fb375d2abadf259b7889","B2","batch2","","829","tol_tohand","","","","tol_peg_1","829","829","0","[[1,0,0],[0,0],[3]]","2","[[3,1,0],[2,0],[0]]","16","0","","","","","","5","","","","","","","","",""
"","","","","","single-stim-button","272","445415","0.0-2.0-59.1-1.1","6320fb375d2abadf259b7889","B2","batch2","","942","tol_toboard","","","","tol_peg_2","942","942","0","[[1,0,0],[2,0],[3]]","2","[[3,1,0],[2,0],[0]]","16","0","","","","","","5","","","","","","","","",""
"","","","","","single-stim-button","273","445767","0.0-2.0-59.2-0.2","6320fb375d2abadf259b7889","B2","batch2","","351","tol_tohand","","","","tol_peg_1","351","351","0","[[0,0,0],[2,0],[3]]","3","[[3,1,0],[2,0],[0]]","16","0","","","","","","5","","","","","","","","",""
"","","","","","single-stim-button","274","446081","0.0-2.0-59.2-1.2","6320fb375d2abadf259b7889","B2","batch2","","314","tol_toboard","","","","tol_peg_2","314","314","0","[[0,0,0],[2,1],[3]]","3","[[3,1,0],[2,0],[0]]","16","0","","","","","","5","","","","","","","","",""
"","","","","","single-stim-button","275","446451","0.0-2.0-59.3-0.3","6320fb375d2abadf259b7889","B2","batch2","","368","tol_tohand","","","","tol_peg_3","368","368","0","[[0,0,0],[2,1],[0]]","4","[[3,1,0],[2,0],[0]]","16","0","","","","","","5","","","","","","","","",""
"","","","","","single-stim-button","276","446991","0.0-2.0-59.3-1.3","6320fb375d2abadf259b7889","B2","batch2","","540","tol_toboard","","","","tol_peg_1","540","540","0","[[3,0,0],[2,1],[0]]","4","[[3,1,0],[2,0],[0]]","16","0","","","","","","5","","","","","","","","",""
"","","","","","single-stim-button","277","447438","0.0-2.0-59.4-0.4","6320fb375d2abadf259b7889","B2","batch2","","447","tol_tohand","","","","tol_peg_2","447","447","0","[[3,0,0],[2,0],[0]]","5","[[3,1,0],[2,0],[0]]","16","0","","","","","","5","","","","","","","","",""
"","","","","","single-stim-button","278","447721","0.0-2.0-59.4-1.4","6320fb375d2abadf259b7889","B2","batch2","","281","tol_toboard","","","","tol_peg_1","281","281","0","[[3,1,0],[2,0],[0]]","5","[[3,1,0],[2,0],[0]]","16","0","","","","","","5","","","","","","","","",""
"","","","","","poldrack-single-stim","279","448722","0.0-2.0-60.0","6320fb375d2abadf259b7889","B2","batch2","","-1","tol_feedback","","","true","","1000","1000","500","","","","","","-1","none","true","2799","4794","","","","","","","","","",""
"","","","","","html-button-response","280","449203","0.0-2.0-61.0","6320fb375d2abadf259b7889","B2","batch2","","479.09999990463257","tol_trial_num","<div class = centerbox><p class = center-block-text>problem <strong>18</strong> out of 25 problems</p></div>","0","","","","","","","","","","","","","","","","","","","","","","","","",""
"","","","","","single-stim-button","281","452543","0.0-2.0-62.0-0.0","6320fb375d2abadf259b7889","B2","batch2","","3339","tol_tohand","","","","tol_peg_1","3339","3339","0","[[1,0,0],[3,0],[0]]","1","[[3,0,0],[2,0],[1]]","17","0","","","","","","5","","","","","","","","",""
"","","","","","single-stim-button","282","453155","0.0-2.0-62.0-1.0","6320fb375d2abadf259b7889","B2","batch2","","611","tol_toboard","","","","tol_peg_2","611","611","0","[[1,0,0],[3,2],[0]]","1","[[3,0,0],[2,0],[1]]","17","0","","","","","","5","","","","","","","","",""
"","","","","","single-stim-button","283","453915","0.0-2.0-62.1-0.1","6320fb375d2abadf259b7889","B2","batch2","","760","tol_tohand","","","","tol_peg_1","760","760","0","[[0,0,0],[3,2],[0]]","2","[[3,0,0],[2,0],[1]]","17","0","","","","","","5","","","","","","","","",""
"","","","","","single-stim-button","284","454543","0.0-2.0-62.1-1.1","6320fb375d2abadf259b7889","B2","batch2","","626","tol_toboard","","","","tol_peg_3","626","626","0","[[0,0,0],[3,2],[1]]","2","[[3,0,0],[2,0],[1]]","17","0","","","","","","5","","","","","","","","",""
"","","","","","single-stim-button","285","460221","0.0-2.0-62.2-0.2","6320fb375d2abadf259b7889","B2","batch2","","5678","tol_tohand","","","","tol_peg_3","5678","5678","0","[[0,0,0],[3,2],[0]]","3","[[3,0,0],[2,0],[1]]","17","0","","","","","","5","","","","","","","","",""
"","","","","","single-stim-button","286","461052","0.0-2.0-62.2-1.2","6320fb375d2abadf259b7889","B2","batch2","","830","tol_toboard","","","","tol_peg_1","830","830","0","[[1,0,0],[3,2],[0]]","3","[[3,0,0],[2,0],[1]]","17","0","","","","","","5","","","","","","","","",""
"","","","","","single-stim-button","287","461429","0.0-2.0-62.3-0.3","6320fb375d2abadf259b7889","B2","batch2","","376","tol_tohand","","","","tol_peg_2","376","376","0","[[1,0,0],[3,0],[0]]","4","[[3,0,0],[2,0],[1]]","17","0","","","","","","5","","","","","","","","",""
"","","","","","single-stim-button","288","461665","0.0-2.0-62.3-1.3","6320fb375d2abadf259b7889","B2","batch2","","235","tol_toboard","","","","tol_peg_1","235","235","0","[[1,2,0],[3,0],[0]]","4","[[3,0,0],[2,0],[1]]","17","0","","","","","","5","","","","","","","","",""
"","","","","","single-stim-button","289","463688","0.0-2.0-62.4-0.4","6320fb375d2abadf259b7889","B2","batch2","","2023","tol_tohand","","","","tol_peg_2","2023","2023","0","[[1,2,0],[0,0],[0]]","5","[[3,0,0],[2,0],[1]]","17","0","","","","","","5","","","","","","","","",""
"","","","","","single-stim-button","290","465619","0.0-2.0-62.4-1.4","6320fb375d2abadf259b7889","B2","batch2","","1929","tol_toboard","","","","tol_peg_3","1929","1929","0","[[1,2,0],[0,0],[3]]","5","[[3,0,0],[2,0],[1]]","17","0","","","","","","5","","","","","","","","",""
"","","","","","single-stim-button","291","466308","0.0-2.0-62.5-0.5","6320fb375d2abadf259b7889","B2","batch2","","689","tol_tohand","","","","tol_peg_1","689","689","0","[[1,0,0],[0,0],[3]]","6","[[3,0,0],[2,0],[1]]","17","0","","","","","","5","","","","","","","","",""
"","","","","","single-stim-button","292","466919","0.0-2.0-62.5-1.5","6320fb375d2abadf259b7889","B2","batch2","","609","tol_toboard","","","","tol_peg_2","609","609","0","[[1,0,0],[2,0],[3]]","6","[[3,0,0],[2,0],[1]]","17","0","","","","","","5","","","","","","","","",""
"","","","","","single-stim-button","293","467697","0.0-2.0-62.6-0.6","6320fb375d2abadf259b7889","B2","batch2","","778","tol_tohand","","","","tol_peg_1","778","778","0","[[0,0,0],[2,0],[3]]","7","[[3,0,0],[2,0],[1]]","17","0","","","","","","5","","","","","","","","",""
"","","","","","single-stim-button","294","468441","0.0-2.0-62.6-1.6","6320fb375d2abadf259b7889","B2","batch2","","742","tol_toboard","","","","tol_peg_2","742","742","0","[[0,0,0],[2,1],[3]]","7","[[3,0,0],[2,0],[1]]","17","0","","","","","","5","","","","","","","","",""
"","","","","","single-stim-button","295","468755","0.0-2.0-62.7-0.7","6320fb375d2abadf259b7889","B2","batch2","","313","tol_tohand","","","","tol_peg_3","313","313","0","[[0,0,0],[2,1],[0]]","8","[[3,0,0],[2,0],[1]]","17","0","","","","","","5","","","","","","","","",""
"","","","","","single-stim-button","296","469196","0.0-2.0-62.7-1.7","6320fb375d2abadf259b7889","B2","batch2","","440","tol_toboard","","","","tol_peg_1","440","440","0","[[3,0,0],[2,1],[0]]","8","[[3,0,0],[2,0],[1]]","17","0","","","","","","5","","","","","","","","",""
"","","","","","single-stim-button","297","469500","0.0-2.0-62.8-0.8","6320fb375d2abadf259b7889","B2","batch2","","304","tol_tohand","","","","tol_peg_2","304","304","0","[[3,0,0],[2,0],[0]]","9","[[3,0,0],[2,0],[1]]","17","0","","","","","","5","","","","","","","","",""
"","","","","","single-stim-button","298","469860","0.0-2.0-62.8-1.8","6320fb375d2abadf259b7889","B2","batch2","","359","tol_toboard","","","","tol_peg_3","359","359","0","[[3,0,0],[2,0],[1]]","9","[[3,0,0],[2,0],[1]]","17","0","","","","","","5","","","","","","","","",""
"","","","","","poldrack-single-stim","299","470861","0.0-2.0-63.0","6320fb375d2abadf259b7889","B2","batch2","","-1","tol_feedback","","","true","","1000","1000","500","","","","","","-1","none","true","3339","14260","","","","","","","","","",""
"","","","","","html-button-response","300","471428","0.0-2.0-64.0","6320fb375d2abadf259b7889","B2","batch2","","566.0999999046326","tol_trial_num","<div class = centerbox><p class = center-block-text>problem <strong>19</strong> out of 25 problems</p></div>","0","","","","","","","","","","","","","","","","","","","","","","","","",""
"","","","","","single-stim-button","301","479657","0.0-2.0-65.0-0.0","6320fb375d2abadf259b7889","B2","batch2","","8227","tol_tohand","","","","tol_peg_2","8227","8227","0","[[1,2,0],[0,0],[0]]","1","[[0,0,0],[1,2],[3]]","18","0","","","","","","7","","","","","","","","",""
"","","","","","single-stim-button","302","489098","0.0-2.0-65.0-1.0","6320fb375d2abadf259b7889","B2","batch2","","9440","tol_toboard","","","","tol_peg_2","9440","9440","0","[[1,2,0],[3,0],[0]]","1","[[0,0,0],[1,2],[3]]","18","0","","","","","","7","","","","","","","","",""
"","","","","","single-stim-button","303","490400","0.0-2.0-65.1-0.1","6320fb375d2abadf259b7889","B2","batch2","","1301","tol_tohand","","","","tol_peg_1","1301","1301","0","[[1,0,0],[3,0],[0]]","2","[[0,0,0],[1,2],[3]]","18","0","","","","","","7","","","","","","","","",""
"","","","","","single-stim-button","304","492322","0.0-2.0-65.1-1.1","6320fb375d2abadf259b7889","B2","batch2","","1922","tol_toboard","","","","tol_peg_3","1922","1922","0","[[1,0,0],[3,0],[2]]","2","[[0,0,0],[1,2],[3]]","18","0","","","","","","7","","","","","","","","",""
"","","","","","single-stim-button","305","493058","0.0-2.0-65.2-0.2","6320fb375d2abadf259b7889","B2","batch2","","736","tol_tohand","","","","tol_peg_1","736","736","0","[[0,0,0],[3,0],[2]]","3","[[0,0,0],[1,2],[3]]","18","0","","","","","","7","","","","","","","","",""
"","","","","","single-stim-button","306","497904","0.0-2.0-65.2-1.2","6320fb375d2abadf259b7889","B2","batch2","","4846","tol_toboard","","","","tol_peg_2","4846","4846","0","[[0,0,0],[3,1],[2]]","3","[[0,0,0],[1,2],[3]]","18","0","","","","","","7","","","","","","","","",""
"","","","","","single-stim-button","307","498618","0.0-2.0-65.3-0.3","6320fb375d2abadf259b7889","B2","batch2","","713","tol_tohand","","","","tol_peg_3","713","713","0","[[0,0,0],[3,1],[0]]","4","[[0,0,0],[1,2],[3]]","18","0","","","","","","7","","","","","","","","",""
"","","","","","single-stim-button","308","499136","0.0-2.0-65.3-1.3","6320fb375d2abadf259b7889","B2","batch2","","518","tol_toboard","","","","tol_peg_1","518","518","0","[[2,0,0],[3,1],[0]]","4","[[0,0,0],[1,2],[3]]","18","0","","","","","","7","","","","","","","","",""
"","","","","","single-stim-button","309","500022","0.0-2.0-65.4-0.4","6320fb375d2abadf259b7889","B2","batch2","","886","tol_tohand","","","","tol_peg_2","886","886","0","[[2,0,0],[3,0],[0]]","5","[[0,0,0],[1,2],[3]]","18","0","","","","","","7","","","","","","","","",""
"","","","","","single-stim-button","310","501582","0.0-2.0-65.4-1.4","6320fb375d2abadf259b7889","B2","batch2","","1560","tol_toboard","","","","tol_peg_1","1560","1560","0","[[2,1,0],[3,0],[0]]","5","[[0,0,0],[1,2],[3]]","18","0","","","","","","7","","","","","","","","",""
"","","","","","single-stim-button","311","501912","0.0-2.0-65.5-0.5","6320fb375d2abadf259b7889","B2","batch2","","330","tol_tohand","","","","tol_peg_2","330","330","0","[[2,1,0],[0,0],[0]]","6","[[0,0,0],[1,2],[3]]","18","0","","","","","","7","","","","","","","","",""
"","","","","","single-stim-button","312","502720","0.0-2.0-65.5-1.5","6320fb375d2abadf259b7889","B2","batch2","","807","tol_toboard","","","","tol_peg_3","807","807","0","[[2,1,0],[0,0],[3]]","6","[[0,0,0],[1,2],[3]]","18","0","","","","","","7","","","","","","","","",""
"","","","","","single-stim-button","313","503136","0.0-2.0-65.6-0.6","6320fb375d2abadf259b7889","B2","batch2","","415","tol_tohand","","","","tol_peg_1","415","415","0","[[2,0,0],[0,0],[3]]","7","[[0,0,0],[1,2],[3]]","18","0","","","","","","7","","","","","","","","",""
"","","","","","single-stim-button","314","503412","0.0-2.0-65.6-1.6","6320fb375d2abadf259b7889","B2","batch2","","276","tol_toboard","","","","tol_peg_2","276","276","0","[[2,0,0],[1,0],[3]]","7","[[0,0,0],[1,2],[3]]","18","0","","","","","","7","","","","","","","","",""
"","","","","","single-stim-button","315","503746","0.0-2.0-65.7-0.7","6320fb375d2abadf259b7889","B2","batch2","","333","tol_tohand","","","","tol_peg_1","333","333","0","[[0,0,0],[1,0],[3]]","8","[[0,0,0],[1,2],[3]]","18","0","","","","","","7","","","","","","","","",""
"","","","","","single-stim-button","316","503998","0.0-2.0-65.7-1.7","6320fb375d2abadf259b7889","B2","batch2","","252","tol_toboard","","","","tol_peg_2","252","252","0","[[0,0,0],[1,2],[3]]","8","[[0,0,0],[1,2],[3]]","18","0","","","","","","7","","","","","","","","",""
"","","","","","poldrack-single-stim","317","505000","0.0-2.0-66.0","6320fb375d2abadf259b7889","B2","batch2","","-1","tol_feedback","","","true","","1000","1000","500","","","","","","-1","none","true","8227","12941","","","","","","","","","",""
"","","","","","html-button-response","318","505550","0.0-2.0-67.0","6320fb375d2abadf259b7889","B2","batch2","","549.5","tol_trial_num","<div class = centerbox><p class = center-block-text>problem <strong>20</strong> out of 25 problems</p></div>","0","","","","","","","","","","","","","","","","","","","","","","","","",""
"","","","","","single-stim-button","319","512554","0.0-2.0-68.0-0.0","6320fb375d2abadf259b7889","B2","batch2","","7004","tol_tohand","","","","tol_peg_1","7004","7004","0","[[1,0,0],[3,0],[0]]","1","[[2,1,0],[0,0],[3]]","19","0","","","","","","5","","","","","","","","",""
"","","","","","single-stim-button","320","513403","0.0-2.0-68.0-1.0","6320fb375d2abadf259b7889","B2","batch2","","847","tol_toboard","","","","tol_peg_2","847","847","0","[[1,0,0],[3,2],[0]]","1","[[2,1,0],[0,0],[3]]","19","0","","","","","","5","","","","","","","","",""
"","","","","","single-stim-button","321","515701","0.0-2.0-68.1-0.1","6320fb375d2abadf259b7889","B2","batch2","","2297","tol_tohand","","","","tol_peg_1","2297","2297","0","[[0,0,0],[3,2],[0]]","2","[[2,1,0],[0,0],[3]]","19","0","","","","","","5","","","","","","","","",""
"","","","","","single-stim-button","322","517064","0.0-2.0-68.1-1.1","6320fb375d2abadf259b7889","B2","batch2","","1363","tol_toboard","","","","tol_peg_3","1363","1363","0","[[0,0,0],[3,2],[1]]","2","[[2,1,0],[0,0],[3]]","19","0","","","","","","5","","","","","","","","",""
"","","","","","single-stim-button","323","517472","0.0-2.0-68.2-0.2","6320fb375d2abadf259b7889","B2","batch2","","408","tol_tohand","","","","tol_peg_2","408","408","0","[[0,0,0],[3,0],[1]]","3","[[2,1,0],[0,0],[3]]","19","0","","","","","","5","","","","","","","","",""
"","","","","","single-stim-button","324","517824","0.0-2.0-68.2-1.2","6320fb375d2abadf259b7889","B2","batch2","","352","tol_toboard","","","","tol_peg_1","352","352","0","[[2,0,0],[3,0],[1]]","3","[[2,1,0],[0,0],[3]]","19","0","","","","","","5","","","","","","","","",""
"","","","","","single-stim-button","325","518696","0.0-2.0-68.3-0.3","6320fb375d2abadf259b7889","B2","batch2","","871","tol_tohand","","","","tol_peg_3","871","871","0","[[2,0,0],[3,0],[0]]","4","[[2,1,0],[0,0],[3]]","19","0","","","","","","5","","","","","","","","",""
"","","","","","single-stim-button","326","519190","0.0-2.0-68.3-1.3","6320fb375d2abadf259b7889","B2","batch2","","494","tol_toboard","","","","tol_peg_1","494","494","0","[[2,1,0],[3,0],[0]]","4","[[2,1,0],[0,0],[3]]","19","0","","","","","","5","","","","","","","","",""
"","","","","","single-stim-button","327","519677","0.0-2.0-68.4-0.4","6320fb375d2abadf259b7889","B2","batch2","","486","tol_tohand","","","","tol_peg_2","486","486","0","[[2,1,0],[0,0],[0]]","5","[[2,1,0],[0,0],[3]]","19","0","","","","","","5","","","","","","","","",""
"","","","","","single-stim-button","328","520085","0.0-2.0-68.4-1.4","6320fb375d2abadf259b7889","B2","batch2","","407","tol_toboard","","","","tol_peg_3","407","407","0","[[2,1,0],[0,0],[3]]","5","[[2,1,0],[0,0],[3]]","19","0","","","","","","5","","","","","","","","",""
"","","","","","poldrack-single-stim","329","521087","0.0-2.0-69.0","6320fb375d2abadf259b7889","B2","batch2","","-1","tol_feedback","","","true","","1000","1000","500","","","","","","-1","none","true","7004","11066","","","","","","","","","",""
"","","","","","html-button-response","330","521714","0.0-2.0-70.0","6320fb375d2abadf259b7889","B2","batch2","","626.1999998092651","tol_trial_num","<div class = centerbox><p class = center-block-text>problem <strong>21</strong> out of 25 problems</p></div>","0","","","","","","","","","","","","","","","","","","","","","","","","",""
"","","","","","single-stim-button","331","551877","0.0-2.0-71.0-0.0","6320fb375d2abadf259b7889","B2","batch2","","30162","tol_tohand","","","","tol_peg_2","30162","30162","0","[[1,2,0],[0,0],[0]]","1","[[3,2,0],[0,0],[1]]","20","0","","","","","","6","","","","","","","","",""
"","","","","","single-stim-button","332","552873","0.0-2.0-71.0-1.0","6320fb375d2abadf259b7889","B2","batch2","","994","tol_toboard","","","","tol_peg_3","994","994","0","[[1,2,0],[0,0],[3]]","1","[[3,2,0],[0,0],[1]]","20","0","","","","","","6","","","","","","","","",""
"","","","","","single-stim-button","333","554919","0.0-2.0-71.1-0.1","6320fb375d2abadf259b7889","B2","batch2","","2046","tol_tohand","","","","tol_peg_1","2046","2046","0","[[1,0,0],[0,0],[3]]","2","[[3,2,0],[0,0],[1]]","20","0","","","","","","6","","","","","","","","",""
"","","","","","single-stim-button","334","558182","0.0-2.0-71.1-1.1","6320fb375d2abadf259b7889","B2","batch2","","3262","tol_toboard","","","","tol_peg_2","3262","3262","0","[[1,0,0],[2,0],[3]]","2","[[3,2,0],[0,0],[1]]","20","0","","","","","","6","","","","","","","","",""
"","","","","","single-stim-button","335","558863","0.0-2.0-71.2-0.2","6320fb375d2abadf259b7889","B2","batch2","","681","tol_tohand","","","","tol_peg_3","681","681","0","[[1,0,0],[2,0],[0]]","3","[[3,2,0],[0,0],[1]]","20","0","","","","","","6","","","","","","","","",""
"","","","","","single-stim-button","336","559179","0.0-2.0-71.2-1.2","6320fb375d2abadf259b7889","B2","batch2","","315","tol_toboard","","","","tol_peg_2","315","315","0","[[1,0,0],[2,3],[0]]","3","[[3,2,0],[0,0],[1]]","20","0","","","","","","6","","","","","","","","",""
"","","","","","single-stim-button","337","559711","0.0-2.0-71.3-0.3","6320fb375d2abadf259b7889","B2","batch2","","531","tol_tohand","","","","tol_peg_1","531","531","0","[[0,0,0],[2,3],[0]]","4","[[3,2,0],[0,0],[1]]","20","0","","","","","","6","","","","","","","","",""
"","","","","","single-stim-button","338","560181","0.0-2.0-71.3-1.3","6320fb375d2abadf259b7889","B2","batch2","","469","tol_toboard","","","","tol_peg_3","469","469","0","[[0,0,0],[2,3],[1]]","4","[[3,2,0],[0,0],[1]]","20","0","","","","","","6","","","","","","","","",""
"","","","","","single-stim-button","339","560847","0.0-2.0-71.4-0.4","6320fb375d2abadf259b7889","B2","batch2","","664","tol_tohand","","","","tol_peg_2","664","664","0","[[0,0,0],[2,0],[1]]","5","[[3,2,0],[0,0],[1]]","20","0","","","","","","6","","","","","","","","",""
"","","","","","single-stim-button","340","561459","0.0-2.0-71.4-1.4","6320fb375d2abadf259b7889","B2","batch2","","612","tol_toboard","","","","tol_peg_1","612","612","0","[[3,0,0],[2,0],[1]]","5","[[3,2,0],[0,0],[1]]","20","0","","","","","","6","","","","","","","","",""
"","","","","","single-stim-button","341","561797","0.0-2.0-71.5-0.5","6320fb375d2abadf259b7889","B2","batch2","","338","tol_tohand","","","","tol_peg_2","338","338","0","[[3,0,0],[0,0],[1]]","6","[[3,2,0],[0,0],[1]]","20","0","","","","","","6","","","","","","","","",""
"","","","","","single-stim-button","342","562031","0.0-2.0-71.5-1.5","6320fb375d2abadf259b7889","B2","batch2","","234","tol_toboard","","","","tol_peg_1","234","234","0","[[3,2,0],[0,0],[1]]","6","[[3,2,0],[0,0],[1]]","20","0","","","","","","6","","","","","","","","",""
"","","","","","poldrack-single-stim","343","563032","0.0-2.0-72.0","6320fb375d2abadf259b7889","B2","batch2","","-1","tol_feedback","","","true","","1000","1000","500","","","","","","-1","none","true","30162","34422","","","","","","","","","",""
"","","","","","html-button-response","344","563585","0.0-2.0-73.0","6320fb375d2abadf259b7889","B2","batch2","","552.2999999523163","tol_trial_num","<div class = centerbox><p class = center-block-text>problem <strong>22</strong> out of 25 problems</p></div>","0","","","","","","","","","","","","","","","","","","","","","","","","",""
"","","","","","single-stim-button","345","568501","0.0-2.0-74.0-0.0","6320fb375d2abadf259b7889","B2","batch2","","4915","tol_tohand","","","","tol_peg_1","4915","4915","0","[[0,0,0],[2,3],[0]]","1","[[0,0,0],[1,2],[3]]","21","0","","","","","","6","","","","","","","","",""
"","","","","","single-stim-button","346","571293","0.0-2.0-74.0-1.0","6320fb375d2abadf259b7889","B2","batch2","","2792","tol_toboard","","","","tol_peg_3","2792","2792","0","[[0,0,0],[2,3],[1]]","1","[[0,0,0],[1,2],[3]]","21","0","","","","","","6","","","","","","","","",""
"","","","","","single-stim-button","347","573221","0.0-2.0-74.1-0.1","6320fb375d2abadf259b7889","B2","batch2","","1928","tol_tohand","","","","tol_peg_2","1928","1928","0","[[0,0,0],[2,0],[1]]","2","[[0,0,0],[1,2],[3]]","21","0","","","","","","6","","","","","","","","",""
"","","","","","single-stim-button","348","573645","0.0-2.0-74.1-1.1","6320fb375d2abadf259b7889","B2","batch2","","424","tol_toboard","","","","tol_peg_1","424","424","0","[[3,0,0],[2,0],[1]]","2","[[0,0,0],[1,2],[3]]","21","0","","","","","","6","","","","","","","","",""
"","","","","","single-stim-button","349","582679","0.0-2.0-74.2-0.2","6320fb375d2abadf259b7889","B2","batch2","","9034","tol_tohand","","","","tol_peg_2","9034","9034","0","[[3,0,0],[0,0],[1]]","3","[[0,0,0],[1,2],[3]]","21","0","","","","","","6","","","","","","","","",""
"","","","","","single-stim-button","350","583127","0.0-2.0-74.2-1.2","6320fb375d2abadf259b7889","B2","batch2","","448","tol_toboard","","","","tol_peg_1","448","448","0","[[3,2,0],[0,0],[1]]","3","[[0,0,0],[1,2],[3]]","21","0","","","","","","6","","","","","","","","",""
"","","","","","single-stim-button","351","583653","0.0-2.0-74.3-0.3","6320fb375d2abadf259b7889","B2","batch2","","525","tol_tohand","","","","tol_peg_3","525","525","0","[[3,2,0],[0,0],[0]]","4","[[0,0,0],[1,2],[3]]","21","0","","","","","","6","","","","","","","","",""
"","","","","","single-stim-button","352","584091","0.0-2.0-74.3-1.3","6320fb375d2abadf259b7889","B2","batch2","","438","tol_toboard","","","","tol_peg_2","438","438","0","[[3,2,0],[1,0],[0]]","4","[[0,0,0],[1,2],[3]]","21","0","","","","","","6","","","","","","","","",""
"","","","","","single-stim-button","353","584507","0.0-2.0-74.4-0.4","6320fb375d2abadf259b7889","B2","batch2","","416","tol_tohand","","","","tol_peg_1","416","416","0","[[3,0,0],[1,0],[0]]","5","[[0,0,0],[1,2],[3]]","21","0","","","","","","6","","","","","","","","",""
"","","","","","single-stim-button","354","584805","0.0-2.0-74.4-1.4","6320fb375d2abadf259b7889","B2","batch2","","297","tol_toboard","","","","tol_peg_2","297","297","0","[[3,0,0],[1,2],[0]]","5","[[0,0,0],[1,2],[3]]","21","0","","","","","","6","","","","","","","","",""
"","","","","","single-stim-button","355","585141","0.0-2.0-74.5-0.5","6320fb375d2abadf259b7889","B2","batch2","","335","tol_tohand","","","","tol_peg_1","335","335","0","[[0,0,0],[1,2],[0]]","6","[[0,0,0],[1,2],[3]]","21","0","","","","","","6","","","","","","","","",""
"","","","","","single-stim-button","356","585597","0.0-2.0-74.5-1.5","6320fb375d2abadf259b7889","B2","batch2","","455","tol_toboard","","","","tol_peg_3","455","455","0","[[0,0,0],[1,2],[3]]","6","[[0,0,0],[1,2],[3]]","21","0","","","","","","6","","","","","","","","",""
