"success","timeout","failed_images","failed_audio","failed_video","trial_type","trial_index","time_elapsed","internal_node_id","subject_id","study_id","session_id","view_history","rt","task","stimulus","response","correct","mouse_click","stim_duration","block_duration","timing_post_trial","current_position","tol_num_moves_made","tol_target","tol_problem_id","tol_rt","key_press","possible_responses","tol_correct","preplanning","tol_rt_per_trial","tol_min_moves","item","answer","spm_correct","spm_rt","fiar_detect_rt","fiar_detect_correct","total_correct_fiar_detect","post_trial_gap","choices"
"true","false","[]","[]","[]","preload","0","1183","0.0-0.0","632f09dfbcfe2edefdae1447","A3","batch1","","","","","","","","","","","","","","","","","","","","","","","","","","","","","",""
"true","","","","","fullscreen","1","7249","0.0-1.0-0.0","632f09dfbcfe2edefdae1447","A3","batch1","","","","","","","","","","","","","","","","","","","","","","","","","","","","","",""
"true","","","","","fullscreen","2","10039","0.0-2.0-0.0","632f09dfbcfe2edefdae1447","A3","batch1","","","","","","","","","","","","","","","","","","","","","","","","","","","","","",""
"","","","","","instructions","3","52298","0.0-2.0-1.0-0.0-0.0","632f09dfbcfe2edefdae1447","A3","batch1","[{""page_index"":0,""viewing_time"":6841.20000000298},{""page_index"":1,""viewing_time"":5853.29999999702},{""page_index"":2,""viewing_time"":3341},{""page_index"":3,""viewing_time"":10146.79999999702},{""page_index"":4,""viewing_time"":6014.20000000298},{""page_index"":5,""viewing_time"":7845.29999999702},{""page_index"":6,""viewing_time"":2217.300000011921}]","42259.29999999702","tol-instructions","","","","","","","","","","","","","","","","","","","","","","","","","","",""
"","","","","","html-button-response","4","53226","0.0-2.0-1.0-1.0-0.0","632f09dfbcfe2edefdae1447","A3","batch1","","926.6000000089407","tol_enter_quiz","<p class=block-text> Let's answer a few questions <br>","0","","","","","","","","","","","","","","","","","","","","","","","","",""
"","","","","","html-button-response","5","60917","0.0-2.0-1.0-1.0-1.0","632f09dfbcfe2edefdae1447","A3","batch1","","7690.29999999702","tol_quiz","<p class = block-text>True or False: You can only move the ball on top of a peg. <br></p>","0","true","","","","","","","","","","","","","","","","","","","","","","","",""
"","","","","","html-button-response","6","61975","0.0-2.0-1.0-1.0-2.0","632f09dfbcfe2edefdae1447","A3","batch1","","1056.7999999970198","tol_quiz_feedback","<p class = block-text>Correct! You can only move the ball on top of a peg.</p>","0","","","","","","","","","","","","","","","","","","","","","","","","",""
"","","","","","html-button-response","7","64399","0.0-2.0-1.0-1.0-3.0","632f09dfbcfe2edefdae1447","A3","batch1","","2422.7999999970198","tol_quiz","<p class = block-text>True or False: You should try to match your board with the target board with fewest moves possible. <br></p>","0","true","","","","","","","","","","","","","","","","","","","","","","","",""
"","","","","","html-button-response","8","65189","0.0-2.0-1.0-1.0-4.0","632f09dfbcfe2edefdae1447","A3","batch1","","790.0999999940395","tol_quiz_feedback","<p class = block-text>Correct! </p>","0","","","","","","","","","","","","","","","","","","","","","","","","",""
"","","","","","html-button-response","9","67551","0.0-2.0-2.0","632f09dfbcfe2edefdae1447","A3","batch1","","2361","","<p class=block-text> Now that you've understood the game, let's practice a few easier examples before we start!<br> <br>","0","","","","","","","","","","","","","","","","","","","","","","","","",""
"","","","","","single-stim-button","10","69800","0.0-2.0-3.0-0.0","632f09dfbcfe2edefdae1447","A3","batch1","","2247","tol_practice","","","","tol_peg_2","2247","2247","0","[[1,2,0],[0,0],[0]]","1","[[1,2,0],[0,0],[3]]","practice","2247","","","","","","","","","","","","","","",""
"","","","","","single-stim-button","11","70980","0.0-2.0-3.0-1.0","632f09dfbcfe2edefdae1447","A3","batch1","","1180","tol_practice","","","","tol_peg_3","1180","1180","0","[[1,2,0],[0,0],[3]]","1","[[1,2,0],[0,0],[3]]","practice","1180","","","","","","","","","","","","","","",""
"","","","","","poldrack-single-stim","12","71991","0.0-2.0-4.0","632f09dfbcfe2edefdae1447","A3","batch1","","-1","tol_feedback","","","true","","1000","1000","500","","","","","","-1","none","true","","0","","","","","","","","","",""
"","","","","","single-stim-button","13","76476","0.0-2.0-5.0-0.0","632f09dfbcfe2edefdae1447","A3","batch1","","4483","tol_practice","","","","tol_peg_1","4483","4483","0","[[1,0,0],[3,0],[0]]","2","[[0,0,0],[3,1],[2]]","practice","4483","","","","","","","","","","","","","","",""
"","","","","","single-stim-button","14","77465","0.0-2.0-5.0-1.0","632f09dfbcfe2edefdae1447","A3","batch1","","989","tol_practice","","","","tol_peg_3","989","989","0","[[1,0,0],[3,0],[2]]","2","[[0,0,0],[3,1],[2]]","practice","989","","","","","","","","","","","","","","",""
"","","","","","single-stim-button","15","78355","0.0-2.0-5.1-0.1","632f09dfbcfe2edefdae1447","A3","batch1","","889","tol_practice","","","","tol_peg_1","889","889","0","[[0,0,0],[3,0],[2]]","3","[[0,0,0],[3,1],[2]]","practice","889","","","","","","","","","","","","","","",""
"","","","","","single-stim-button","16","79509","0.0-2.0-5.1-1.1","632f09dfbcfe2edefdae1447","A3","batch1","","1153","tol_practice","","","","tol_peg_2","1153","1153","0","[[0,0,0],[3,1],[2]]","3","[[0,0,0],[3,1],[2]]","practice","1153","","","","","","","","","","","","","","",""
"","","","","","poldrack-single-stim","17","80518","0.0-2.0-6.0","632f09dfbcfe2edefdae1447","A3","batch1","","-1","tol_feedback","","","true","","1000","1000","500","","","","","","-1","none","true","","0","","","","","","","","","",""
"","","","","","single-stim-button","18","83516","0.0-2.0-7.0-0.0","632f09dfbcfe2edefdae1447","A3","batch1","","2998","tol_practice","","","","tol_peg_2","2998","2998","0","[[1,2,0],[0,0],[0]]","4","[[1,0,0],[2,0],[3]]","practice","2998","","","","","","","","","","","","","","",""
"","","","","","single-stim-button","19","84346","0.0-2.0-7.0-1.0","632f09dfbcfe2edefdae1447","A3","batch1","","830","tol_practice","","","","tol_peg_3","830","830","0","[[1,2,0],[0,0],[3]]","4","[[1,0,0],[2,0],[3]]","practice","830","","","","","","","","","","","","","","",""
"","","","","","single-stim-button","20","85178","0.0-2.0-7.1-0.1","632f09dfbcfe2edefdae1447","A3","batch1","","830","tol_practice","","","","tol_peg_1","830","830","0","[[1,0,0],[0,0],[3]]","5","[[1,0,0],[2,0],[3]]","practice","830","","","","","","","","","","","","","","",""
"","","","","","single-stim-button","21","85991","0.0-2.0-7.1-1.1","632f09dfbcfe2edefdae1447","A3","batch1","","813","tol_practice","","","","tol_peg_2","813","813","0","[[1,0,0],[2,0],[3]]","5","[[1,0,0],[2,0],[3]]","practice","813","","","","","","","","","","","","","","",""
"","","","","","poldrack-single-stim","22","87000","0.0-2.0-8.0","632f09dfbcfe2edefdae1447","A3","batch1","","-1","tol_feedback","","","true","","1000","1000","500","","","","","","-1","none","true","","0","","","","","","","","","",""
"","","","","","html-button-response","23","89822","0.0-2.0-9.0","632f09dfbcfe2edefdae1447","A3","batch1","","2821","tol_instruction","<div class = centerbox><p class = center-block-text>Great job! You are done with practice trials<br>You are about to start official trials.<br> <br> Problem <strong>1</strong> out of 25 problems</p></div>","0","","","","","","","","","","","","","","","","","","","","","","","","",""
"","","","","","single-stim-button","24","96356","0.0-2.0-10.0-0.0","632f09dfbcfe2edefdae1447","A3","batch1","","5520","tol_tohand","","","","tol_peg_1","5520","5520","0","[[1,0,0],[3,0],[0]]","1","[[1,3,0],[2,0],[0]]","0","0","","","","","","3","","","","","","","","",""
"","","","","","single-stim-button","25","97582","0.0-2.0-10.0-1.0","632f09dfbcfe2edefdae1447","A3","batch1","","1224","tol_toboard","","","","tol_peg_3","1224","1224","0","[[1,0,0],[3,0],[2]]","1","[[1,3,0],[2,0],[0]]","0","0","","","","","","3","","","","","","","","",""
"","","","","","single-stim-button","26","98254","0.0-2.0-10.1-0.1","632f09dfbcfe2edefdae1447","A3","batch1","","672","tol_tohand","","","","tol_peg_2","672","672","0","[[1,0,0],[0,0],[2]]","2","[[1,3,0],[2,0],[0]]","0","0","","","","","","3","","","","","","","","",""
"","","","","","single-stim-button","27","98894","0.0-2.0-10.1-1.1","632f09dfbcfe2edefdae1447","A3","batch1","","640","tol_toboard","","","","tol_peg_1","640","640","0","[[1,3,0],[0,0],[2]]","2","[[1,3,0],[2,0],[0]]","0","0","","","","","","3","","","","","","","","",""
"","","","","","single-stim-button","28","99760","0.0-2.0-10.2-0.2","632f09dfbcfe2edefdae1447","A3","batch1","","866","tol_tohand","","","","tol_peg_3","866","866","0","[[1,3,0],[0,0],[0]]","3","[[1,3,0],[2,0],[0]]","0","0","","","","","","3","","","","","","","","",""
"","","","","","single-stim-button","29","100566","0.0-2.0-10.2-1.2","632f09dfbcfe2edefdae1447","A3","batch1","","805","tol_toboard","","","","tol_peg_2","805","805","0","[[1,3,0],[2,0],[0]]","3","[[1,3,0],[2,0],[0]]","0","0","","","","","","3","","","","","","","","",""
"","","","","","poldrack-single-stim","30","101577","0.0-2.0-11.0","632f09dfbcfe2edefdae1447","A3","batch1","","-1","tol_feedback","","","true","","1000","1000","500","","","","","","-1","none","true","5520","7058","","","","","","","","","",""
"","","","","","html-button-response","31","102537","0.0-2.0-12.0","632f09dfbcfe2edefdae1447","A3","batch1","","959.2000000029802","tol_trial_num","<div class = centerbox><p class = center-block-text>problem <strong>2</strong> out of 25 problems</p></div>","0","","","","","","","","","","","","","","","","","","","","","","","","",""
"","","","","","single-stim-button","32","108738","0.0-2.0-13.0-0.0","632f09dfbcfe2edefdae1447","A3","batch1","","6200","tol_tohand","","","","tol_peg_1","6200","6200","0","[[1,0,0],[3,0],[0]]","1","[[2,1,3],[0,0],[0]]","1","0","","","","","","5","","","","","","","","",""
"","","","","","single-stim-button","33","109876","0.0-2.0-13.0-1.0","632f09dfbcfe2edefdae1447","A3","batch1","","1137","tol_toboard","","","","tol_peg_3","1137","1137","0","[[1,0,0],[3,0],[2]]","1","[[2,1,3],[0,0],[0]]","1","0","","","","","","5","","","","","","","","",""
"","","","","","single-stim-button","34","113522","0.0-2.0-13.1-0.1","632f09dfbcfe2edefdae1447","A3","batch1","","3645","tol_tohand","","","","tol_peg_1","3645","3645","0","[[0,0,0],[3,0],[2]]","2","[[2,1,3],[0,0],[0]]","1","0","","","","","","5","","","","","","","","",""
"","","","","","single-stim-button","35","114297","0.0-2.0-13.1-1.1","632f09dfbcfe2edefdae1447","A3","batch1","","775","tol_toboard","","","","tol_peg_2","775","775","0","[[0,0,0],[3,1],[2]]","2","[[2,1,3],[0,0],[0]]","1","0","","","","","","5","","","","","","","","",""
"","","","","","single-stim-button","36","115012","0.0-2.0-13.2-0.2","632f09dfbcfe2edefdae1447","A3","batch1","","715","tol_tohand","","","","tol_peg_3","715","715","0","[[0,0,0],[3,1],[0]]","3","[[2,1,3],[0,0],[0]]","1","0","","","","","","5","","","","","","","","",""
"","","","","","single-stim-button","37","115792","0.0-2.0-13.2-1.2","632f09dfbcfe2edefdae1447","A3","batch1","","780","tol_toboard","","","","tol_peg_1","780","780","0","[[2,0,0],[3,1],[0]]","3","[[2,1,3],[0,0],[0]]","1","0","","","","","","5","","","","","","","","",""
"","","","","","single-stim-button","38","116493","0.0-2.0-13.3-0.3","632f09dfbcfe2edefdae1447","A3","batch1","","701","tol_tohand","","","","tol_peg_2","701","701","0","[[2,0,0],[3,0],[0]]","4","[[2,1,3],[0,0],[0]]","1","0","","","","","","5","","","","","","","","",""
"","","","","","single-stim-button","39","117127","0.0-2.0-13.3-1.3","632f09dfbcfe2edefdae1447","A3","batch1","","634","tol_toboard","","","","tol_peg_1","634","634","0","[[2,1,0],[3,0],[0]]","4","[[2,1,3],[0,0],[0]]","1","0","","","","","","5","","","","","","","","",""
"","","","","","single-stim-button","40","117887","0.0-2.0-13.4-0.4","632f09dfbcfe2edefdae1447","A3","batch1","","759","tol_tohand","","","","tol_peg_2","759","759","0","[[2,1,0],[0,0],[0]]","5","[[2,1,3],[0,0],[0]]","1","0","","","","","","5","","","","","","","","",""
"","","","","","single-stim-button","41","118675","0.0-2.0-13.4-1.4","632f09dfbcfe2edefdae1447","A3","batch1","","787","tol_toboard","","","","tol_peg_1","787","787","0","[[2,1,3],[0,0],[0]]","5","[[2,1,3],[0,0],[0]]","1","0","","","","","","5","","","","","","","","",""
"","","","","","poldrack-single-stim","42","119680","0.0-2.0-14.0","632f09dfbcfe2edefdae1447","A3","batch1","","-1","tol_feedback","","","true","","1000","1000","500","","","","","","-1","none","true","6200","12020","","","","","","","","","",""
"","","","","","html-button-response","43","120558","0.0-2.0-15.0","632f09dfbcfe2edefdae1447","A3","batch1","","877.7000000029802","tol_trial_num","<div class = centerbox><p class = center-block-text>problem <strong>3</strong> out of 25 problems</p></div>","0","","","","","","","","","","","","","","","","","","","","","","","","",""
"","","","","","single-stim-button","44","124373","0.0-2.0-16.0-0.0","632f09dfbcfe2edefdae1447","A3","batch1","","3815","tol_tohand","","","","tol_peg_1","3815","3815","0","[[2,0,0],[0,0],[1]]","1","[[1,2,0],[3,0],[0]]","2","0","","","","","","4","","","","","","","","",""
"","","","","","single-stim-button","45","125051","0.0-2.0-16.0-1.0","632f09dfbcfe2edefdae1447","A3","batch1","","678","tol_toboard","","","","tol_peg_2","678","678","0","[[2,0,0],[3,0],[1]]","1","[[1,2,0],[3,0],[0]]","2","0","","","","","","4","","","","","","","","",""
"","","","","","single-stim-button","46","126392","0.0-2.0-16.1-0.1","632f09dfbcfe2edefdae1447","A3","batch1","","1340","tol_tohand","","","","tol_peg_1","1340","1340","0","[[0,0,0],[3,0],[1]]","2","[[1,2,0],[3,0],[0]]","2","0","","","","","","4","","","","","","","","",""
"","","","","","single-stim-button","47","127021","0.0-2.0-16.1-1.1","632f09dfbcfe2edefdae1447","A3","batch1","","628","tol_toboard","","","","tol_peg_2","628","628","0","[[0,0,0],[3,2],[1]]","2","[[1,2,0],[3,0],[0]]","2","0","","","","","","4","","","","","","","","",""
"","","","","","single-stim-button","48","127787","0.0-2.0-16.2-0.2","632f09dfbcfe2edefdae1447","A3","batch1","","766","tol_tohand","","","","tol_peg_3","766","766","0","[[0,0,0],[3,2],[0]]","3","[[1,2,0],[3,0],[0]]","2","0","","","","","","4","","","","","","","","",""
"","","","","","single-stim-button","49","128970","0.0-2.0-16.2-1.2","632f09dfbcfe2edefdae1447","A3","batch1","","1182","tol_toboard","","","","tol_peg_1","1182","1182","0","[[1,0,0],[3,2],[0]]","3","[[1,2,0],[3,0],[0]]","2","0","","","","","","4","","","","","","","","",""
"","","","","","single-stim-button","50","129583","0.0-2.0-16.3-0.3","632f09dfbcfe2edefdae1447","A3","batch1","","613","tol_tohand","","","","tol_peg_2","613","613","0","[[1,0,0],[3,0],[0]]","4","[[1,2,0],[3,0],[0]]","2","0","","","","","","4","","","","","","","","",""
"","","","","","single-stim-button","51","130236","0.0-2.0-16.3-1.3","632f09dfbcfe2edefdae1447","A3","batch1","","652","tol_toboard","","","","tol_peg_1","652","652","0","[[1,2,0],[3,0],[0]]","4","[[1,2,0],[3,0],[0]]","2","0","","","","","","4","","","","","","","","",""
"","","","","","poldrack-single-stim","52","131239","0.0-2.0-17.0","632f09dfbcfe2edefdae1447","A3","batch1","","-1","tol_feedback","","","true","","1000","1000","500","","","","","","-1","none","true","3815","6534","","","","","","","","","",""
"","","","","","html-button-response","53","132045","0.0-2.0-18.0","632f09dfbcfe2edefdae1447","A3","batch1","","804.2999999970198","tol_trial_num","<div class = centerbox><p class = center-block-text>problem <strong>4</strong> out of 25 problems</p></div>","0","","","","","","","","","","","","","","","","","","","","","","","","",""
"","","","","","single-stim-button","54","135783","0.0-2.0-19.0-0.0","632f09dfbcfe2edefdae1447","A3","batch1","","3738","tol_tohand","","","","tol_peg_2","3738","3738","0","[[3,0,0],[2,0],[0]]","1","[[3,0,0],[1,0],[2]]","3","0","","","","","","3","","","","","","","","",""
"","","","","","single-stim-button","55","136576","0.0-2.0-19.0-1.0","632f09dfbcfe2edefdae1447","A3","batch1","","793","tol_toboard","","","","tol_peg_1","793","793","0","[[3,1,0],[2,0],[0]]","1","[[3,0,0],[1,0],[2]]","3","0","","","","","","3","","","","","","","","",""
"","","","","","single-stim-button","56","137414","0.0-2.0-19.1-0.1","632f09dfbcfe2edefdae1447","A3","batch1","","838","tol_tohand","","","","tol_peg_2","838","838","0","[[3,1,0],[0,0],[0]]","2","[[3,0,0],[1,0],[2]]","3","0","","","","","","3","","","","","","","","",""
"","","","","","single-stim-button","57","138146","0.0-2.0-19.1-1.1","632f09dfbcfe2edefdae1447","A3","batch1","","732","tol_toboard","","","","tol_peg_3","732","732","0","[[3,1,0],[0,0],[2]]","2","[[3,0,0],[1,0],[2]]","3","0","","","","","","3","","","","","","","","",""
"","","","","","single-stim-button","58","138950","0.0-2.0-19.2-0.2","632f09dfbcfe2edefdae1447","A3","batch1","","803","tol_tohand","","","","tol_peg_1","803","803","0","[[3,0,0],[0,0],[2]]","3","[[3,0,0],[1,0],[2]]","3","0","","","","","","3","","","","","","","","",""
"","","","","","single-stim-button","59","139825","0.0-2.0-19.2-1.2","632f09dfbcfe2edefdae1447","A3","batch1","","875","tol_toboard","","","","tol_peg_2","875","875","0","[[3,0,0],[1,0],[2]]","3","[[3,0,0],[1,0],[2]]","3","0","","","","","","3","","","","","","","","",""
"","","","","","poldrack-single-stim","60","140839","0.0-2.0-20.0","632f09dfbcfe2edefdae1447","A3","batch1","","-1","tol_feedback","","","true","","1000","1000","500","","","","","","-1","none","true","3738","5379","","","","","","","","","",""
"","","","","","html-button-response","61","141813","0.0-2.0-21.0","632f09dfbcfe2edefdae1447","A3","batch1","","972.5999999940395","tol_trial_num","<div class = centerbox><p class = center-block-text>problem <strong>5</strong> out of 25 problems</p></div>","0","","","","","","","","","","","","","","","","","","","","","","","","",""
"","","","","","single-stim-button","62","152511","0.0-2.0-22.0-0.0","632f09dfbcfe2edefdae1447","A3","batch1","","10697","tol_tohand","","","","tol_peg_3","10697","10697","0","[[1,0,0],[2,0],[0]]","1","[[0,0,0],[1,2],[3]]","4","0","","","","","","7","","","","","","","","",""
"","","","","","single-stim-button","63","153401","0.0-2.0-22.0-1.0","632f09dfbcfe2edefdae1447","A3","batch1","","889","tol_toboard","","","","tol_peg_1","889","889","0","[[1,3,0],[2,0],[0]]","1","[[0,0,0],[1,2],[3]]","4","0","","","","","","7","","","","","","","","",""
"","","","","","single-stim-button","64","154423","0.0-2.0-22.1-0.1","632f09dfbcfe2edefdae1447","A3","batch1","","1021","tol_tohand","","","","tol_peg_2","1021","1021","0","[[1,3,0],[0,0],[0]]","2","[[0,0,0],[1,2],[3]]","4","0","","","","","","7","","","","","","","","",""
"","","","","","single-stim-button","65","155369","0.0-2.0-22.1-1.1","632f09dfbcfe2edefdae1447","A3","batch1","","946","tol_toboard","","","","tol_peg_3","946","946","0","[[1,3,0],[0,0],[2]]","2","[[0,0,0],[1,2],[3]]","4","0","","","","","","7","","","","","","","","",""
"","","","","","single-stim-button","66","157551","0.0-2.0-22.2-0.2","632f09dfbcfe2edefdae1447","A3","batch1","","2182","tol_tohand","","","","tol_peg_1","2182","2182","0","[[1,0,0],[0,0],[2]]","3","[[0,0,0],[1,2],[3]]","4","0","","","","","","7","","","","","","","","",""
"","","","","","single-stim-button","67","159960","0.0-2.0-22.2-1.2","632f09dfbcfe2edefdae1447","A3","batch1","","2409","tol_toboard","","","","tol_peg_1","2409","2409","0","[[1,3,0],[0,0],[2]]","3","[[0,0,0],[1,2],[3]]","4","0","","","","","","7","","","","","","","","",""
"","","","","","single-stim-button","68","160959","0.0-2.0-22.3-0.3","632f09dfbcfe2edefdae1447","A3","batch1","","999","tol_tohand","","","","tol_peg_3","999","999","0","[[1,3,0],[0,0],[0]]","4","[[0,0,0],[1,2],[3]]","4","0","","","","","","7","","","","","","","","",""
"","","","","","single-stim-button","69","162262","0.0-2.0-22.3-1.3","632f09dfbcfe2edefdae1447","A3","batch1","","1303","tol_toboard","","","","tol_peg_3","1303","1303","0","[[1,3,0],[0,0],[2]]","4","[[0,0,0],[1,2],[3]]","4","0","","","","","","7","","","","","","","","",""
"","","","","","single-stim-button","70","163032","0.0-2.0-22.4-0.4","632f09dfbcfe2edefdae1447","A3","batch1","","769","tol_tohand","","","","tol_peg_1","769","769","0","[[1,0,0],[0,0],[2]]","5","[[0,0,0],[1,2],[3]]","4","0","","","","","","7","","","","","","","","",""
"","","","","","single-stim-button","71","163681","0.0-2.0-22.4-1.4","632f09dfbcfe2edefdae1447","A3","batch1","","648","tol_toboard","","","","tol_peg_2","648","648","0","[[1,0,0],[3,0],[2]]","5","[[0,0,0],[1,2],[3]]","4","0","","","","","","7","","","","","","","","",""
"","","","","","single-stim-button","72","164468","0.0-2.0-22.5-0.5","632f09dfbcfe2edefdae1447","A3","batch1","","787","tol_tohand","","","","tol_peg_1","787","787","0","[[0,0,0],[3,0],[2]]","6","[[0,0,0],[1,2],[3]]","4","0","","","","","","7","","","","","","","","",""
"","","","","","single-stim-button","73","165248","0.0-2.0-22.5-1.5","632f09dfbcfe2edefdae1447","A3","batch1","","779","tol_toboard","","","","tol_peg_2","779","779","0","[[0,0,0],[3,1],[2]]","6","[[0,0,0],[1,2],[3]]","4","0","","","","","","7","","","","","","","","",""
"","","","","","single-stim-button","74","166063","0.0-2.0-22.6-0.6","632f09dfbcfe2edefdae1447","A3","batch1","","814","tol_tohand","","","","tol_peg_3","814","814","0","[[0,0,0],[3,1],[0]]","7","[[0,0,0],[1,2],[3]]","4","0","","","","","","7","","","","","","","","",""
"","","","","","single-stim-button","75","166938","0.0-2.0-22.6-1.6","632f09dfbcfe2edefdae1447","A3","batch1","","874","tol_toboard","","","","tol_peg_1","874","874","0","[[2,0,0],[3,1],[0]]","7","[[0,0,0],[1,2],[3]]","4","0","","","","","","7","","","","","","","","",""
"","","","","","single-stim-button","76","167772","0.0-2.0-22.7-0.7","632f09dfbcfe2edefdae1447","A3","batch1","","833","tol_tohand","","","","tol_peg_2","833","833","0","[[2,0,0],[3,0],[0]]","8","[[0,0,0],[1,2],[3]]","4","0","","","","","","7","","","","","","","","",""
"","","","","","single-stim-button","77","168649","0.0-2.0-22.7-1.7","632f09dfbcfe2edefdae1447","A3","batch1","","876","tol_toboard","","","","tol_peg_3","876","876","0","[[2,0,0],[3,0],[1]]","8","[[0,0,0],[1,2],[3]]","4","0","","","","","","7","","","","","","","","",""
"","","","","","single-stim-button","78","169568","0.0-2.0-22.8-0.8","632f09dfbcfe2edefdae1447","A3","batch1","","919","tol_tohand","","","","tol_peg_2","919","919","0","[[2,0,0],[0,0],[1]]","9","[[0,0,0],[1,2],[3]]","4","0","","","","","","7","","","","","","","","",""
"","","","","","single-stim-button","79","170252","0.0-2.0-22.8-1.8","632f09dfbcfe2edefdae1447","A3","batch1","","684","tol_toboard","","","","tol_peg_1","684","684","0","[[2,3,0],[0,0],[1]]","9","[[0,0,0],[1,2],[3]]","4","0","","","","","","7","","","","","","","","",""
"","","","","","single-stim-button","80","171500","0.0-2.0-22.9-0.9","632f09dfbcfe2edefdae1447","A3","batch1","","1247","tol_tohand","","","","tol_peg_3","1247","1247","0","[[2,3,0],[0,0],[0]]","10","[[0,0,0],[1,2],[3]]","4","0","","","","","","7","","","","","","","","",""
"","","","","","single-stim-button","81","172122","0.0-2.0-22.9-1.9","632f09dfbcfe2edefdae1447","A3","batch1","","622","tol_toboard","","","","tol_peg_2","622","622","0","[[2,3,0],[1,0],[0]]","10","[[0,0,0],[1,2],[3]]","4","0","","","","","","7","","","","","","","","",""
"","","","","","single-stim-button","82","172740","0.0-2.0-22.10-0.10","632f09dfbcfe2edefdae1447","A3","batch1","","617","tol_tohand","","","","tol_peg_1","617","617","0","[[2,0,0],[1,0],[0]]","11","[[0,0,0],[1,2],[3]]","4","0","","","","","","7","","","","","","","","",""
"","","","","","single-stim-button","83","173639","0.0-2.0-22.10-1.10","632f09dfbcfe2edefdae1447","A3","batch1","","898","tol_toboard","","","","tol_peg_3","898","898","0","[[2,0,0],[1,0],[3]]","11","[[0,0,0],[1,2],[3]]","4","0","","","","","","7","","","","","","","","",""
"","","","","","single-stim-button","84","174313","0.0-2.0-22.11-0.11","632f09dfbcfe2edefdae1447","A3","batch1","","674","tol_tohand","","","","tol_peg_1","674","674","0","[[0,0,0],[1,0],[3]]","12","[[0,0,0],[1,2],[3]]","4","0","","","","","","7","","","","","","","","",""
"","","","","","single-stim-button","85","175014","0.0-2.0-22.11-1.11","632f09dfbcfe2edefdae1447","A3","batch1","","699","tol_toboard","","","","tol_peg_2","699","699","0","[[0,0,0],[1,2],[3]]","12","[[0,0,0],[1,2],[3]]","4","0","","","","","","7","","","","","","","","",""
"","","","","","poldrack-single-stim","86","176023","0.0-2.0-23.0","632f09dfbcfe2edefdae1447","A3","batch1","","-1","tol_feedback","","","true","","1000","1000","500","","","","","","-1","none","true","10697","21559","","","","","","","","","",""
"","","","","","html-button-response","87","176890","0.0-2.0-24.0","632f09dfbcfe2edefdae1447","A3","batch1","","866.2000000029802","tol_trial_num","<div class = centerbox><p class = center-block-text>problem <strong>6</strong> out of 25 problems</p></div>","0","","","","","","","","","","","","","","","","","","","","","","","","",""
"","","","","","single-stim-button","88","180230","0.0-2.0-25.0-0.0","632f09dfbcfe2edefdae1447","A3","batch1","","3339","tol_tohand","","","","tol_peg_2","3339","3339","0","[[0,0,0],[1,0],[3]]","1","[[1,0,0],[2,3],[0]]","5","0","","","","","","6","","","","","","","","",""
"","","","","","single-stim-button","89","181057","0.0-2.0-25.0-1.0","632f09dfbcfe2edefdae1447","A3","batch1","","826","tol_toboard","","","","tol_peg_1","826","826","0","[[2,0,0],[1,0],[3]]","1","[[1,0,0],[2,3],[0]]","5","0","","","","","","6","","","","","","","","",""
"","","","","","single-stim-button","90","182080","0.0-2.0-25.1-0.1","632f09dfbcfe2edefdae1447","A3","batch1","","1023","tol_tohand","","","","tol_peg_2","1023","1023","0","[[2,0,0],[0,0],[3]]","2","[[1,0,0],[2,3],[0]]","5","0","","","","","","6","","","","","","","","",""
"","","","","","single-stim-button","91","182952","0.0-2.0-25.1-1.1","632f09dfbcfe2edefdae1447","A3","batch1","","872","tol_toboard","","","","tol_peg_1","872","872","0","[[2,1,0],[0,0],[3]]","2","[[1,0,0],[2,3],[0]]","5","0","","","","","","6","","","","","","","","",""
"","","","","","single-stim-button","92","185744","0.0-2.0-25.2-0.2","632f09dfbcfe2edefdae1447","A3","batch1","","2792","tol_tohand","","","","tol_peg_3","2792","2792","0","[[2,1,0],[0,0],[0]]","3","[[1,0,0],[2,3],[0]]","5","0","","","","","","6","","","","","","","","",""
"","","","","","single-stim-button","93","186498","0.0-2.0-25.2-1.2","632f09dfbcfe2edefdae1447","A3","batch1","","753","tol_toboard","","","","tol_peg_2","753","753","0","[[2,1,0],[3,0],[0]]","3","[[1,0,0],[2,3],[0]]","5","0","","","","","","6","","","","","","","","",""
"","","","","","single-stim-button","94","187266","0.0-2.0-25.3-0.3","632f09dfbcfe2edefdae1447","A3","batch1","","768","tol_tohand","","","","tol_peg_1","768","768","0","[[2,0,0],[3,0],[0]]","4","[[1,0,0],[2,3],[0]]","5","0","","","","","","6","","","","","","","","",""
"","","","","","single-stim-button","95","188193","0.0-2.0-25.3-1.3","632f09dfbcfe2edefdae1447","A3","batch1","","927","tol_toboard","","","","tol_peg_3","927","927","0","[[2,0,0],[3,0],[1]]","4","[[1,0,0],[2,3],[0]]","5","0","","","","","","6","","","","","","","","",""
"","","","","","single-stim-button","96","188971","0.0-2.0-25.4-0.4","632f09dfbcfe2edefdae1447","A3","batch1","","778","tol_tohand","","","","tol_peg_1","778","778","0","[[0,0,0],[3,0],[1]]","5","[[1,0,0],[2,3],[0]]","5","0","","","","","","6","","","","","","","","",""
"","","","","","single-stim-button","97","189633","0.0-2.0-25.4-1.4","632f09dfbcfe2edefdae1447","A3","batch1","","662","tol_toboard","","","","tol_peg_2","662","662","0","[[0,0,0],[3,2],[1]]","5","[[1,0,0],[2,3],[0]]","5","0","","","","","","6","","","","","","","","",""
"","","","","","single-stim-button","98","190276","0.0-2.0-25.5-0.5","632f09dfbcfe2edefdae1447","A3","batch1","","643","tol_tohand","","","","tol_peg_3","643","643","0","[[0,0,0],[3,2],[0]]","6","[[1,0,0],[2,3],[0]]","5","0","","","","","","6","","","","","","","","",""
"","","","","","single-stim-button","99","190962","0.0-2.0-25.5-1.5","632f09dfbcfe2edefdae1447","A3","batch1","","686","tol_toboard","","","","tol_peg_1","686","686","0","[[1,0,0],[3,2],[0]]","6","[[1,0,0],[2,3],[0]]","5","0","","","","","","6","","","","","","","","",""
"","","","","","single-stim-button","100","191742","0.0-2.0-25.6-0.6","632f09dfbcfe2edefdae1447","A3","batch1","","780","tol_tohand","","","","tol_peg_2","780","780","0","[[1,0,0],[3,0],[0]]","7","[[1,0,0],[2,3],[0]]","5","0","","","","","","6","","","","","","","","",""
"","","","","","single-stim-button","101","192895","0.0-2.0-25.6-1.6","632f09dfbcfe2edefdae1447","A3","batch1","","1152","tol_toboard","","","","tol_peg_3","1152","1152","0","[[1,0,0],[3,0],[2]]","7","[[1,0,0],[2,3],[0]]","5","0","","","","","","6","","","","","","","","",""
"","","","","","single-stim-button","102","193917","0.0-2.0-25.7-0.7","632f09dfbcfe2edefdae1447","A3","batch1","","1022","tol_tohand","","","","tol_peg_2","1022","1022","0","[[1,0,0],[0,0],[2]]","8","[[1,0,0],[2,3],[0]]","5","0","","","","","","6","","","","","","","","",""
"","","","","","single-stim-button","103","195056","0.0-2.0-25.7-1.7","632f09dfbcfe2edefdae1447","A3","batch1","","1138","tol_toboard","","","","tol_peg_1","1138","1138","0","[[1,3,0],[0,0],[2]]","8","[[1,0,0],[2,3],[0]]","5","0","","","","","","6","","","","","","","","",""
"","","","","","single-stim-button","104","195820","0.0-2.0-25.8-0.8","632f09dfbcfe2edefdae1447","A3","batch1","","764","tol_tohand","","","","tol_peg_3","764","764","0","[[1,3,0],[0,0],[0]]","9","[[1,0,0],[2,3],[0]]","5","0","","","","","","6","","","","","","","","",""
"","","","","","single-stim-button","105","196438","0.0-2.0-25.8-1.8","632f09dfbcfe2edefdae1447","A3","batch1","","617","tol_toboard","","","","tol_peg_2","617","617","0","[[1,3,0],[2,0],[0]]","9","[[1,0,0],[2,3],[0]]","5","0","","","","","","6","","","","","","","","",""
"","","","","","single-stim-button","106","197049","0.0-2.0-25.9-0.9","632f09dfbcfe2edefdae1447","A3","batch1","","611","tol_tohand","","","","tol_peg_1","611","611","0","[[1,0,0],[2,0],[0]]","10","[[1,0,0],[2,3],[0]]","5","0","","","","","","6","","","","","","","","",""
"","","","","","single-stim-button","107","197651","0.0-2.0-25.9-1.9","632f09dfbcfe2edefdae1447","A3","batch1","","602","tol_toboard","","","","tol_peg_2","602","602","0","[[1,0,0],[2,3],[0]]","10","[[1,0,0],[2,3],[0]]","5","0","","","","","","6","","","","","","","","",""
"","","","","","poldrack-single-stim","108","198654","0.0-2.0-26.0","632f09dfbcfe2edefdae1447","A3","batch1","","-1","tol_feedback","","","true","","1000","1000","500","","","","","","-1","none","true","3339","12520","","","","","","","","","",""
"","","","","","html-button-response","109","199374","0.0-2.0-27.0","632f09dfbcfe2edefdae1447","A3","batch1","","719.1000000089407","tol_trial_num","<div class = centerbox><p class = center-block-text>problem <strong>7</strong> out of 25 problems</p></div>","0","","","","","","","","","","","","","","","","","","","","","","","","",""
"","","","","","single-stim-button","110","204120","0.0-2.0-28.0-0.0","632f09dfbcfe2edefdae1447","A3","batch1","","4744","tol_tohand","","","","tol_peg_3","4744","4744","0","[[2,1,0],[0,0],[0]]","1","[[1,2,0],[3,0],[0]]","6","0","","","","","","5","","","","","","","","",""
"","","","","","single-stim-button","111","204829","0.0-2.0-28.0-1.0","632f09dfbcfe2edefdae1447","A3","batch1","","708","tol_toboard","","","","tol_peg_2","708","708","0","[[2,1,0],[3,0],[0]]","1","[[1,2,0],[3,0],[0]]","6","0","","","","","","5","","","","","","","","",""
"","","","","","single-stim-button","112","205568","0.0-2.0-28.1-0.1","632f09dfbcfe2edefdae1447","A3","batch1","","738","tol_tohand","","","","tol_peg_1","738","738","0","[[2,0,0],[3,0],[0]]","2","[[1,2,0],[3,0],[0]]","6","0","","","","","","5","","","","","","","","",""
"","","","","","single-stim-button","113","206348","0.0-2.0-28.1-1.1","632f09dfbcfe2edefdae1447","A3","batch1","","780","tol_toboard","","","","tol_peg_3","780","780","0","[[2,0,0],[3,0],[1]]","2","[[1,2,0],[3,0],[0]]","6","0","","","","","","5","","","","","","","","",""
"","","","","","single-stim-button","114","207042","0.0-2.0-28.2-0.2","632f09dfbcfe2edefdae1447","A3","batch1","","694","tol_tohand","","","","tol_peg_1","694","694","0","[[0,0,0],[3,0],[1]]","3","[[1,2,0],[3,0],[0]]","6","0","","","","","","5","","","","","","","","",""
"","","","","","single-stim-button","115","207799","0.0-2.0-28.2-1.2","632f09dfbcfe2edefdae1447","A3","batch1","","757","tol_toboard","","","","tol_peg_2","757","757","0","[[0,0,0],[3,2],[1]]","3","[[1,2,0],[3,0],[0]]","6","0","","","","","","5","","","","","","","","",""
"","","","","","single-stim-button","116","208549","0.0-2.0-28.3-0.3","632f09dfbcfe2edefdae1447","A3","batch1","","750","tol_tohand","","","","tol_peg_3","750","750","0","[[0,0,0],[3,2],[0]]","4","[[1,2,0],[3,0],[0]]","6","0","","","","","","5","","","","","","","","",""
"","","","","","single-stim-button","117","209244","0.0-2.0-28.3-1.3","632f09dfbcfe2edefdae1447","A3","batch1","","694","tol_toboard","","","","tol_peg_1","694","694","0","[[1,0,0],[3,2],[0]]","4","[[1,2,0],[3,0],[0]]","6","0","","","","","","5","","","","","","","","",""
"","","","","","single-stim-button","118","209834","0.0-2.0-28.4-0.4","632f09dfbcfe2edefdae1447","A3","batch1","","589","tol_tohand","","","","tol_peg_2","589","589","0","[[1,0,0],[3,0],[0]]","5","[[1,2,0],[3,0],[0]]","6","0","","","","","","5","","","","","","","","",""
"","","","","","single-stim-button","119","210404","0.0-2.0-28.4-1.4","632f09dfbcfe2edefdae1447","A3","batch1","","569","tol_toboard","","","","tol_peg_1","569","569","0","[[1,2,0],[3,0],[0]]","5","[[1,2,0],[3,0],[0]]","6","0","","","","","","5","","","","","","","","",""
"","","","","","poldrack-single-stim","120","211406","0.0-2.0-29.0","632f09dfbcfe2edefdae1447","A3","batch1","","-1","tol_feedback","","","true","","1000","1000","500","","","","","","-1","none","true","4744","7515","","","","","","","","","",""
"","","","","","html-button-response","121","212337","0.0-2.0-30.0","632f09dfbcfe2edefdae1447","A3","batch1","","930.7999999970198","tol_trial_num","<div class = centerbox><p class = center-block-text>problem <strong>8</strong> out of 25 problems</p></div>","0","","","","","","","","","","","","","","","","","","","","","","","","",""
"","","","","","single-stim-button","122","218033","0.0-2.0-31.0-0.0","632f09dfbcfe2edefdae1447","A3","batch1","","5696","tol_tohand","","","","tol_peg_3","5696","5696","0","[[0,0,0],[2,3],[0]]","1","[[1,2,0],[3,0],[0]]","7","0","","","","","","4","","","","","","","","",""
"","","","","","single-stim-button","123","219136","0.0-2.0-31.0-1.0","632f09dfbcfe2edefdae1447","A3","batch1","","1103","tol_toboard","","","","tol_peg_1","1103","1103","0","[[1,0,0],[2,3],[0]]","1","[[1,2,0],[3,0],[0]]","7","0","","","","","","4","","","","","","","","",""
"","","","","","single-stim-button","124","220090","0.0-2.0-31.1-0.1","632f09dfbcfe2edefdae1447","A3","batch1","","954","tol_tohand","","","","tol_peg_2","954","954","0","[[1,0,0],[2,0],[0]]","2","[[1,2,0],[3,0],[0]]","7","0","","","","","","4","","","","","","","","",""
"","","","","","single-stim-button","125","220847","0.0-2.0-31.1-1.1","632f09dfbcfe2edefdae1447","A3","batch1","","757","tol_toboard","","","","tol_peg_3","757","757","0","[[1,0,0],[2,0],[3]]","2","[[1,2,0],[3,0],[0]]","7","0","","","","","","4","","","","","","","","",""
"","","","","","single-stim-button","126","221453","0.0-2.0-31.2-0.2","632f09dfbcfe2edefdae1447","A3","batch1","","606","tol_tohand","","","","tol_peg_2","606","606","0","[[1,0,0],[0,0],[3]]","3","[[1,2,0],[3,0],[0]]","7","0","","","","","","4","","","","","","","","",""
"","","","","","single-stim-button","127","222059","0.0-2.0-31.2-1.2","632f09dfbcfe2edefdae1447","A3","batch1","","605","tol_toboard","","","","tol_peg_1","605","605","0","[[1,2,0],[0,0],[3]]","3","[[1,2,0],[3,0],[0]]","7","0","","","","","","4","","","","","","","","",""
"","","","","","single-stim-button","128","222695","0.0-2.0-31.3-0.3","632f09dfbcfe2edefdae1447","A3","batch1","","636","tol_tohand","","","","tol_peg_3","636","636","0","[[1,2,0],[0,0],[0]]","4","[[1,2,0],[3,0],[0]]","7","0","","","","","","4","","","","","","","","",""
"","","","","","single-stim-button","129","223454","0.0-2.0-31.3-1.3","632f09dfbcfe2edefdae1447","A3","batch1","","759","tol_toboard","","","","tol_peg_2","759","759","0","[[1,2,0],[3,0],[0]]","4","[[1,2,0],[3,0],[0]]","7","0","","","","","","4","","","","","","","","",""
"","","","","","poldrack-single-stim","130","224468","0.0-2.0-32.0","632f09dfbcfe2edefdae1447","A3","batch1","","-1","tol_feedback","","","true","","1000","1000","500","","","","","","-1","none","true","5696","7892","","","","","","","","","",""
"","","","","","html-button-response","131","225269","0.0-2.0-33.0","632f09dfbcfe2edefdae1447","A3","batch1","","799.4000000059605","tol_trial_num","<div class = centerbox><p class = center-block-text>problem <strong>9</strong> out of 25 problems</p></div>","0","","","","","","","","","","","","","","","","","","","","","","","","",""
"","","","","","single-stim-button","132","230164","0.0-2.0-34.0-0.0","632f09dfbcfe2edefdae1447","A3","batch1","","4895","tol_tohand","","","","tol_peg_3","4895","4895","0","[[3,2,0],[0,0],[0]]","1","[[2,1,0],[3,0],[0]]","8","0","","","","","","6","","","","","","","","",""
"","","","","","single-stim-button","133","231120","0.0-2.0-34.0-1.0","632f09dfbcfe2edefdae1447","A3","batch1","","954","tol_toboard","","","","tol_peg_2","954","954","0","[[3,2,0],[1,0],[0]]","1","[[2,1,0],[3,0],[0]]","8","0","","","","","","6","","","","","","","","",""
"","","","","","single-stim-button","134","231927","0.0-2.0-34.1-0.1","632f09dfbcfe2edefdae1447","A3","batch1","","806","tol_tohand","","","","tol_peg_1","806","806","0","[[3,0,0],[1,0],[0]]","2","[[2,1,0],[3,0],[0]]","8","0","","","","","","6","","","","","","","","",""
"","","","","","single-stim-button","135","232631","0.0-2.0-34.1-1.1","632f09dfbcfe2edefdae1447","A3","batch1","","704","tol_toboard","","","","tol_peg_2","704","704","0","[[3,0,0],[1,2],[0]]","2","[[2,1,0],[3,0],[0]]","8","0","","","","","","6","","","","","","","","",""
"","","","","","single-stim-button","136","233374","0.0-2.0-34.2-0.2","632f09dfbcfe2edefdae1447","A3","batch1","","743","tol_tohand","","","","tol_peg_1","743","743","0","[[0,0,0],[1,2],[0]]","3","[[2,1,0],[3,0],[0]]","8","0","","","","","","6","","","","","","","","",""
"","","","","","single-stim-button","137","234226","0.0-2.0-34.2-1.2","632f09dfbcfe2edefdae1447","A3","batch1","","852","tol_toboard","","","","tol_peg_3","852","852","0","[[0,0,0],[1,2],[3]]","3","[[2,1,0],[3,0],[0]]","8","0","","","","","","6","","","","","","","","",""
"","","","","","single-stim-button","138","234839","0.0-2.0-34.3-0.3","632f09dfbcfe2edefdae1447","A3","batch1","","612","tol_tohand","","","","tol_peg_2","612","612","0","[[0,0,0],[1,0],[3]]","4","[[2,1,0],[3,0],[0]]","8","0","","","","","","6","","","","","","","","",""
"","","","","","single-stim-button","139","235540","0.0-2.0-34.3-1.3","632f09dfbcfe2edefdae1447","A3","batch1","","699","tol_toboard","","","","tol_peg_1","699","699","0","[[2,0,0],[1,0],[3]]","4","[[2,1,0],[3,0],[0]]","8","0","","","","","","6","","","","","","","","",""
"","","","","","single-stim-button","140","236153","0.0-2.0-34.4-0.4","632f09dfbcfe2edefdae1447","A3","batch1","","613","tol_tohand","","","","tol_peg_2","613","613","0","[[2,0,0],[0,0],[3]]","5","[[2,1,0],[3,0],[0]]","8","0","","","","","","6","","","","","","","","",""
"","","","","","single-stim-button","141","236935","0.0-2.0-34.4-1.4","632f09dfbcfe2edefdae1447","A3","batch1","","780","tol_toboard","","","","tol_peg_1","780","780","0","[[2,1,0],[0,0],[3]]","5","[[2,1,0],[3,0],[0]]","8","0","","","","","","6","","","","","","","","",""
"","","","","","single-stim-button","142","237607","0.0-2.0-34.5-0.5","632f09dfbcfe2edefdae1447","A3","batch1","","672","tol_tohand","","","","tol_peg_3","672","672","0","[[2,1,0],[0,0],[0]]","6","[[2,1,0],[3,0],[0]]","8","0","","","","","","6","","","","","","","","",""
"","","","","","single-stim-button","143","238340","0.0-2.0-34.5-1.5","632f09dfbcfe2edefdae1447","A3","batch1","","732","tol_toboard","","","","tol_peg_2","732","732","0","[[2,1,0],[3,0],[0]]","6","[[2,1,0],[3,0],[0]]","8","0","","","","","","6","","","","","","","","",""
"","","","","","poldrack-single-stim","144","239351","0.0-2.0-35.0","632f09dfbcfe2edefdae1447","A3","batch1","","-1","tol_feedback","","","true","","1000","1000","500","","","","","","-1","none","true","4895","8341","","","","","","","","","",""
"","","","","","html-button-response","145","240224","0.0-2.0-36.0","632f09dfbcfe2edefdae1447","A3","batch1","","872.3999999910593","tol_trial_num","<div class = centerbox><p class = center-block-text>problem <strong>10</strong> out of 25 problems</p></div>","0","","","","","","","","","","","","","","","","","","","","","","","","",""
"","","","","","single-stim-button","146","243257","0.0-2.0-37.0-0.0","632f09dfbcfe2edefdae1447","A3","batch1","","3033","tol_tohand","","","","tol_peg_2","3033","3033","0","[[3,0,0],[0,0],[2]]","1","[[3,0,0],[2,1],[0]]","9","0","","","","","","3","","","","","","","","",""
"","","","","","single-stim-button","147","243965","0.0-2.0-37.0-1.0","632f09dfbcfe2edefdae1447","A3","batch1","","707","tol_toboard","","","","tol_peg_1","707","707","0","[[3,1,0],[0,0],[2]]","1","[[3,0,0],[2,1],[0]]","9","0","","","","","","3","","","","","","","","",""
"","","","","","single-stim-button","148","244593","0.0-2.0-37.1-0.1","632f09dfbcfe2edefdae1447","A3","batch1","","628","tol_tohand","","","","tol_peg_3","628","628","0","[[3,1,0],[0,0],[0]]","2","[[3,0,0],[2,1],[0]]","9","0","","","","","","3","","","","","","","","",""
"","","","","","single-stim-button","149","245322","0.0-2.0-37.1-1.1","632f09dfbcfe2edefdae1447","A3","batch1","","729","tol_toboard","","","","tol_peg_2","729","729","0","[[3,1,0],[2,0],[0]]","2","[[3,0,0],[2,1],[0]]","9","0","","","","","","3","","","","","","","","",""
"","","","","","single-stim-button","150","245969","0.0-2.0-37.2-0.2","632f09dfbcfe2edefdae1447","A3","batch1","","646","tol_tohand","","","","tol_peg_1","646","646","0","[[3,0,0],[2,0],[0]]","3","[[3,0,0],[2,1],[0]]","9","0","","","","","","3","","","","","","","","",""
"","","","","","single-stim-button","151","246665","0.0-2.0-37.2-1.2","632f09dfbcfe2edefdae1447","A3","batch1","","695","tol_toboard","","","","tol_peg_2","695","695","0","[[3,0,0],[2,1],[0]]","3","[[3,0,0],[2,1],[0]]","9","0","","","","","","3","","","","","","","","",""
"","","","","","poldrack-single-stim","152","247667","0.0-2.0-38.0","632f09dfbcfe2edefdae1447","A3","batch1","","-1","tol_feedback","","","true","","1000","1000","500","","","","","","-1","none","true","3033","4307","","","","","","","","","",""
"","","","","","html-button-response","153","248422","0.0-2.0-39.0","632f09dfbcfe2edefdae1447","A3","batch1","","754.5999999940395","tol_trial_num","<div class = centerbox><p class = center-block-text>problem <strong>11</strong> out of 25 problems</p></div>","0","","","","","","","","","","","","","","","","","","","","","","","","",""
"","","","","","single-stim-button","154","251585","0.0-2.0-40.0-0.0","632f09dfbcfe2edefdae1447","A3","batch1","","3163","tol_tohand","","","","tol_peg_1","3163","3163","0","[[1,0,0],[3,0],[0]]","1","[[2,0,0],[1,3],[0]]","10","0","","","","","","6","","","","","","","","",""
"","","","","","single-stim-button","155","258524","0.0-2.0-40.0-1.0","632f09dfbcfe2edefdae1447","A3","batch1","","6939","tol_toboard","","","","tol_peg_3","6939","6939","0","[[1,0,0],[3,0],[2]]","1","[[2,0,0],[1,3],[0]]","10","0","","","","","","6","","","","","","","","",""
"","","","","","single-stim-button","156","262964","0.0-2.0-40.1-0.1","632f09dfbcfe2edefdae1447","A3","batch1","","4439","tol_tohand","","","","tol_peg_1","4439","4439","0","[[0,0,0],[3,0],[2]]","2","[[2,0,0],[1,3],[0]]","10","0","","","","","","6","","","","","","","","",""
"","","","","","single-stim-button","157","263965","0.0-2.0-40.1-1.1","632f09dfbcfe2edefdae1447","A3","batch1","","1000","tol_toboard","","","","tol_peg_2","1000","1000","0","[[0,0,0],[3,1],[2]]","2","[[2,0,0],[1,3],[0]]","10","0","","","","","","6","","","","","","","","",""
"","","","","","single-stim-button","158","264716","0.0-2.0-40.2-0.2","632f09dfbcfe2edefdae1447","A3","batch1","","751","tol_tohand","","","","tol_peg_3","751","751","0","[[0,0,0],[3,1],[0]]","3","[[2,0,0],[1,3],[0]]","10","0","","","","","","6","","","","","","","","",""
"","","","","","single-stim-button","159","265495","0.0-2.0-40.2-1.2","632f09dfbcfe2edefdae1447","A3","batch1","","779","tol_toboard","","","","tol_peg_1","779","779","0","[[2,0,0],[3,1],[0]]","3","[[2,0,0],[1,3],[0]]","10","0","","","","","","6","","","","","","","","",""
"","","","","","single-stim-button","160","266244","0.0-2.0-40.3-0.3","632f09dfbcfe2edefdae1447","A3","batch1","","749","tol_tohand","","","","tol_peg_2","749","749","0","[[2,0,0],[3,0],[0]]","4","[[2,0,0],[1,3],[0]]","10","0","","","","","","6","","","","","","","","",""
"","","","","","single-stim-button","161","267742","0.0-2.0-40.3-1.3","632f09dfbcfe2edefdae1447","A3","batch1","","1496","tol_toboard","","","","tol_peg_3","1496","1496","0","[[2,0,0],[3,0],[1]]","4","[[2,0,0],[1,3],[0]]","10","0","","","","","","6","","","","","","","","",""
"","","","","","single-stim-button","162","268719","0.0-2.0-40.4-0.4","632f09dfbcfe2edefdae1447","A3","batch1","","977","tol_tohand","","","","tol_peg_2","977","977","0","[[2,0,0],[0,0],[1]]","5","[[2,0,0],[1,3],[0]]","10","0","","","","","","6","","","","","","","","",""
"","","","","","single-stim-button","163","269353","0.0-2.0-40.4-1.4","632f09dfbcfe2edefdae1447","A3","batch1","","634","tol_toboard","","","","tol_peg_1","634","634","0","[[2,3,0],[0,0],[1]]","5","[[2,0,0],[1,3],[0]]","10","0","","","","","","6","","","","","","","","",""
"","","","","","single-stim-button","164","270254","0.0-2.0-40.5-0.5","632f09dfbcfe2edefdae1447","A3","batch1","","901","tol_tohand","","","","tol_peg_3","901","901","0","[[2,3,0],[0,0],[0]]","6","[[2,0,0],[1,3],[0]]","10","0","","","","","","6","","","","","","","","",""
"","","","","","single-stim-button","165","270878","0.0-2.0-40.5-1.5","632f09dfbcfe2edefdae1447","A3","batch1","","623","tol_toboard","","","","tol_peg_2","623","623","0","[[2,3,0],[1,0],[0]]","6","[[2,0,0],[1,3],[0]]","10","0","","","","","","6","","","","","","","","",""
"","","","","","single-stim-button","166","271519","0.0-2.0-40.6-0.6","632f09dfbcfe2edefdae1447","A3","batch1","","641","tol_tohand","","","","tol_peg_1","641","641","0","[[2,0,0],[1,0],[0]]","7","[[2,0,0],[1,3],[0]]","10","0","","","","","","6","","","","","","","","",""
"","","","","","single-stim-button","167","272162","0.0-2.0-40.6-1.6","632f09dfbcfe2edefdae1447","A3","batch1","","641","tol_toboard","","","","tol_peg_2","641","641","0","[[2,0,0],[1,3],[0]]","7","[[2,0,0],[1,3],[0]]","10","0","","","","","","6","","","","","","","","",""
"","","","","","poldrack-single-stim","168","273173","0.0-2.0-41.0","632f09dfbcfe2edefdae1447","A3","batch1","","-1","tol_feedback","","","true","","1000","1000","500","","","","","","-1","none","true","3163","11621","","","","","","","","","",""
"","","","","","html-button-response","169","274627","0.0-2.0-42.0","632f09dfbcfe2edefdae1447","A3","batch1","","1453.7000000029802","tol_trial_num","<div class = centerbox><p class = center-block-text>problem <strong>12</strong> out of 25 problems</p></div>","0","","","","","","","","","","","","","","","","","","","","","","","","",""
"","","","","","single-stim-button","170","278977","0.0-2.0-43.0-0.0","632f09dfbcfe2edefdae1447","A3","batch1","","4350","tol_tohand","","","","tol_peg_1","4350","4350","0","[[1,0,0],[3,0],[0]]","1","[[2,3,0],[0,0],[1]]","11","0","","","","","","4","","","","","","","","",""
"","","","","","single-stim-button","171","279621","0.0-2.0-43.0-1.0","632f09dfbcfe2edefdae1447","A3","batch1","","644","tol_toboard","","","","tol_peg_2","644","644","0","[[1,0,0],[3,2],[0]]","1","[[2,3,0],[0,0],[1]]","11","0","","","","","","4","","","","","","","","",""
"","","","","","single-stim-button","172","280373","0.0-2.0-43.1-0.1","632f09dfbcfe2edefdae1447","A3","batch1","","751","tol_tohand","","","","tol_peg_1","751","751","0","[[0,0,0],[3,2],[0]]","2","[[2,3,0],[0,0],[1]]","11","0","","","","","","4","","","","","","","","",""
"","","","","","single-stim-button","173","281191","0.0-2.0-43.1-1.1","632f09dfbcfe2edefdae1447","A3","batch1","","818","tol_toboard","","","","tol_peg_3","818","818","0","[[0,0,0],[3,2],[1]]","2","[[2,3,0],[0,0],[1]]","11","0","","","","","","4","","","","","","","","",""
"","","","","","single-stim-button","174","282262","0.0-2.0-43.2-0.2","632f09dfbcfe2edefdae1447","A3","batch1","","1070","tol_tohand","","","","tol_peg_2","1070","1070","0","[[0,0,0],[3,0],[1]]","3","[[2,3,0],[0,0],[1]]","11","0","","","","","","4","","","","","","","","",""
"","","","","","single-stim-button","175","284593","0.0-2.0-43.2-1.2","632f09dfbcfe2edefdae1447","A3","batch1","","2330","tol_toboard","","","","tol_peg_2","2330","2330","0","[[0,0,0],[3,2],[1]]","3","[[2,3,0],[0,0],[1]]","11","0","","","","","","4","","","","","","","","",""
"","","","","","single-stim-button","176","285566","0.0-2.0-43.3-0.3","632f09dfbcfe2edefdae1447","A3","batch1","","972","tol_tohand","","","","tol_peg_3","972","972","0","[[0,0,0],[3,2],[0]]","4","[[2,3,0],[0,0],[1]]","11","0","","","","","","4","","","","","","","","",""
"","","","","","single-stim-button","177","286324","0.0-2.0-43.3-1.3","632f09dfbcfe2edefdae1447","A3","batch1","","757","tol_toboard","","","","tol_peg_1","757","757","0","[[1,0,0],[3,2],[0]]","4","[[2,3,0],[0,0],[1]]","11","0","","","","","","4","","","","","","","","",""
"","","","","","single-stim-button","178","286958","0.0-2.0-43.4-0.4","632f09dfbcfe2edefdae1447","A3","batch1","","633","tol_tohand","","","","tol_peg_2","633","633","0","[[1,0,0],[3,0],[0]]","5","[[2,3,0],[0,0],[1]]","11","0","","","","","","4","","","","","","","","",""
"","","","","","single-stim-button","179","287650","0.0-2.0-43.4-1.4","632f09dfbcfe2edefdae1447","A3","batch1","","692","tol_toboard","","","","tol_peg_3","692","692","0","[[1,0,0],[3,0],[2]]","5","[[2,3,0],[0,0],[1]]","11","0","","","","","","4","","","","","","","","",""
"","","","","","single-stim-button","180","288440","0.0-2.0-43.5-0.5","632f09dfbcfe2edefdae1447","A3","batch1","","788","tol_tohand","","","","tol_peg_2","788","788","0","[[1,0,0],[0,0],[2]]","6","[[2,3,0],[0,0],[1]]","11","0","","","","","","4","","","","","","","","",""
"","","","","","single-stim-button","181","289327","0.0-2.0-43.5-1.5","632f09dfbcfe2edefdae1447","A3","batch1","","887","tol_toboard","","","","tol_peg_1","887","887","0","[[1,3,0],[0,0],[2]]","6","[[2,3,0],[0,0],[1]]","11","0","","","","","","4","","","","","","","","",""
"","","","","","single-stim-button","182","290284","0.0-2.0-43.6-0.6","632f09dfbcfe2edefdae1447","A3","batch1","","957","tol_tohand","","","","tol_peg_3","957","957","0","[[1,3,0],[0,0],[0]]","7","[[2,3,0],[0,0],[1]]","11","0","","","","","","4","","","","","","","","",""
"","","","","","single-stim-button","183","291008","0.0-2.0-43.6-1.6","632f09dfbcfe2edefdae1447","A3","batch1","","723","tol_toboard","","","","tol_peg_2","723","723","0","[[1,3,0],[2,0],[0]]","7","[[2,3,0],[0,0],[1]]","11","0","","","","","","4","","","","","","","","",""
"","","","","","single-stim-button","184","291736","0.0-2.0-43.7-0.7","632f09dfbcfe2edefdae1447","A3","batch1","","728","tol_tohand","","","","tol_peg_1","728","728","0","[[1,0,0],[2,0],[0]]","8","[[2,3,0],[0,0],[1]]","11","0","","","","","","4","","","","","","","","",""
"","","","","","single-stim-button","185","293091","0.0-2.0-43.7-1.7","632f09dfbcfe2edefdae1447","A3","batch1","","1355","tol_toboard","","","","tol_peg_2","1355","1355","0","[[1,0,0],[2,3],[0]]","8","[[2,3,0],[0,0],[1]]","11","0","","","","","","4","","","","","","","","",""
"","","","","","single-stim-button","186","294455","0.0-2.0-43.8-0.8","632f09dfbcfe2edefdae1447","A3","batch1","","1364","tol_tohand","","","","tol_peg_1","1364","1364","0","[[0,0,0],[2,3],[0]]","9","[[2,3,0],[0,0],[1]]","11","0","","","","","","4","","","","","","","","",""
"","","","","","single-stim-button","187","295709","0.0-2.0-43.8-1.8","632f09dfbcfe2edefdae1447","A3","batch1","","1254","tol_toboard","","","","tol_peg_3","1254","1254","0","[[0,0,0],[2,3],[1]]","9","[[2,3,0],[0,0],[1]]","11","0","","","","","","4","","","","","","","","",""
"","","","","","single-stim-button","188","296690","0.0-2.0-43.9-0.9","632f09dfbcfe2edefdae1447","A3","batch1","","980","tol_tohand","","","","tol_peg_2","980","980","0","[[0,0,0],[2,0],[1]]","10","[[2,3,0],[0,0],[1]]","11","0","","","","","","4","","","","","","","","",""
"","","","","","single-stim-button","189","297374","0.0-2.0-43.9-1.9","632f09dfbcfe2edefdae1447","A3","batch1","","684","tol_toboard","","","","tol_peg_1","684","684","0","[[3,0,0],[2,0],[1]]","10","[[2,3,0],[0,0],[1]]","11","0","","","","","","4","","","","","","","","",""
"","","","","","single-stim-button","190","298234","0.0-2.0-43.10-0.10","632f09dfbcfe2edefdae1447","A3","batch1","","860","tol_tohand","","","","tol_peg_2","860","860","0","[[3,0,0],[0,0],[1]]","11","[[2,3,0],[0,0],[1]]","11","0","","","","","","4","","","","","","","","",""
"","","","","","single-stim-button","191","300953","0.0-2.0-43.10-1.10","632f09dfbcfe2edefdae1447","A3","batch1","","2719","tol_toboard","","","","tol_peg_1","2719","2719","0","[[3,2,0],[0,0],[1]]","11","[[2,3,0],[0,0],[1]]","11","0","","","","","","4","","","","","","","","",""
"","","","","","single-stim-button","192","301824","0.0-2.0-43.11-0.11","632f09dfbcfe2edefdae1447","A3","batch1","","870","tol_tohand","","","","tol_peg_3","870","870","0","[[3,2,0],[0,0],[0]]","12","[[2,3,0],[0,0],[1]]","11","0","","","","","","4","","","","","","","","",""
"","","","","","single-stim-button","193","302557","0.0-2.0-43.11-1.11","632f09dfbcfe2edefdae1447","A3","batch1","","733","tol_toboard","","","","tol_peg_2","733","733","0","[[3,2,0],[1,0],[0]]","12","[[2,3,0],[0,0],[1]]","11","0","","","","","","4","","","","","","","","",""
"","","","","","single-stim-button","194","303183","0.0-2.0-43.12-0.12","632f09dfbcfe2edefdae1447","A3","batch1","","626","tol_tohand","","","","tol_peg_1","626","626","0","[[3,0,0],[1,0],[0]]","13","[[2,3,0],[0,0],[1]]","11","0","","","","","","4","","","","","","","","",""
"","","","","","single-stim-button","195","303907","0.0-2.0-43.12-1.12","632f09dfbcfe2edefdae1447","A3","batch1","","723","tol_toboard","","","","tol_peg_3","723","723","0","[[3,0,0],[1,0],[2]]","13","[[2,3,0],[0,0],[1]]","11","0","","","","","","4","","","","","","","","",""
"","","","","","single-stim-button","196","304623","0.0-2.0-43.13-0.13","632f09dfbcfe2edefdae1447","A3","batch1","","715","tol_tohand","","","","tol_peg_1","715","715","0","[[0,0,0],[1,0],[2]]","14","[[2,3,0],[0,0],[1]]","11","0","","","","","","4","","","","","","","","",""
"","","","","","single-stim-button","197","305265","0.0-2.0-43.13-1.13","632f09dfbcfe2edefdae1447","A3","batch1","","642","tol_toboard","","","","tol_peg_2","642","642","0","[[0,0,0],[1,3],[2]]","14","[[2,3,0],[0,0],[1]]","11","0","","","","","","4","","","","","","","","",""
"","","","","","single-stim-button","198","305853","0.0-2.0-43.14-0.14","632f09dfbcfe2edefdae1447","A3","batch1","","588","tol_tohand","","","","tol_peg_3","588","588","0","[[0,0,0],[1,3],[0]]","15","[[2,3,0],[0,0],[1]]","11","0","","","","","","4","","","","","","","","",""
"","","","","","single-stim-button","199","306599","0.0-2.0-43.14-1.14","632f09dfbcfe2edefdae1447","A3","batch1","","746","tol_toboard","","","","tol_peg_1","746","746","0","[[2,0,0],[1,3],[0]]","15","[[2,3,0],[0,0],[1]]","11","0","","","","","","4","","","","","","","","",""
"","","","","","single-stim-button","200","307450","0.0-2.0-43.15-0.15","632f09dfbcfe2edefdae1447","A3","batch1","","851","tol_tohand","","","","tol_peg_2","851","851","0","[[2,0,0],[1,0],[0]]","16","[[2,3,0],[0,0],[1]]","11","0","","","","","","4","","","","","","","","",""
"","","","","","single-stim-button","201","309283","0.0-2.0-43.15-1.15","632f09dfbcfe2edefdae1447","A3","batch1","","1833","tol_toboard","","","","tol_peg_1","1833","1833","0","[[2,3,0],[1,0],[0]]","16","[[2,3,0],[0,0],[1]]","11","0","","","","","","4","","","","","","","","",""
"","","","","","single-stim-button","202","309982","0.0-2.0-43.16-0.16","632f09dfbcfe2edefdae1447","A3","batch1","","699","tol_tohand","","","","tol_peg_2","699","699","0","[[2,3,0],[0,0],[0]]","17","[[2,3,0],[0,0],[1]]","11","0","","","","","","4","","","","","","","","",""
"","","","","","single-stim-button","203","310565","0.0-2.0-43.16-1.16","632f09dfbcfe2edefdae1447","A3","batch1","","582","tol_toboard","","","","tol_peg_3","582","582","0","[[2,3,0],[0,0],[1]]","17","[[2,3,0],[0,0],[1]]","11","0","","","","","","4","","","","","","","","",""
"","","","","","poldrack-single-stim","204","311569","0.0-2.0-44.0","632f09dfbcfe2edefdae1447","A3","batch1","","-1","tol_feedback","","","true","","1000","1000","500","","","","","","-1","none","true","4350","17802","","","","","","","","","",""
"","","","","","html-button-response","205","312228","0.0-2.0-45.0","632f09dfbcfe2edefdae1447","A3","batch1","","657.5","tol_trial_num","<div class = centerbox><p class = center-block-text>problem <strong>13</strong> out of 25 problems</p></div>","0","","","","","","","","","","","","","","","","","","","","","","","","",""
"","","","","","single-stim-button","206","314700","0.0-2.0-46.0-0.0","632f09dfbcfe2edefdae1447","A3","batch1","","2472","tol_tohand","","","","tol_peg_2","2472","2472","0","[[1,2,0],[0,0],[0]]","1","[[0,0,0],[2,3],[1]]","12","0","","","","","","4","","","","","","","","",""
"","","","","","single-stim-button","207","315459","0.0-2.0-46.0-1.0","632f09dfbcfe2edefdae1447","A3","batch1","","758","tol_toboard","","","","tol_peg_3","758","758","0","[[1,2,0],[0,0],[3]]","1","[[0,0,0],[2,3],[1]]","12","0","","","","","","4","","","","","","","","",""
"","","","","","single-stim-button","208","316194","0.0-2.0-46.1-0.1","632f09dfbcfe2edefdae1447","A3","batch1","","734","tol_tohand","","","","tol_peg_1","734","734","0","[[1,0,0],[0,0],[3]]","2","[[0,0,0],[2,3],[1]]","12","0","","","","","","4","","","","","","","","",""
"","","","","","single-stim-button","209","316911","0.0-2.0-46.1-1.1","632f09dfbcfe2edefdae1447","A3","batch1","","717","tol_toboard","","","","tol_peg_2","717","717","0","[[1,0,0],[2,0],[3]]","2","[[0,0,0],[2,3],[1]]","12","0","","","","","","4","","","","","","","","",""
"","","","","","single-stim-button","210","317626","0.0-2.0-46.2-0.2","632f09dfbcfe2edefdae1447","A3","batch1","","715","tol_tohand","","","","tol_peg_3","715","715","0","[[1,0,0],[2,0],[0]]","3","[[0,0,0],[2,3],[1]]","12","0","","","","","","4","","","","","","","","",""
"","","","","","single-stim-button","211","318410","0.0-2.0-46.2-1.2","632f09dfbcfe2edefdae1447","A3","batch1","","783","tol_toboard","","","","tol_peg_2","783","783","0","[[1,0,0],[2,3],[0]]","3","[[0,0,0],[2,3],[1]]","12","0","","","","","","4","","","","","","","","",""
"","","","","","single-stim-button","212","319121","0.0-2.0-46.3-0.3","632f09dfbcfe2edefdae1447","A3","batch1","","710","tol_tohand","","","","tol_peg_1","710","710","0","[[0,0,0],[2,3],[0]]","4","[[0,0,0],[2,3],[1]]","12","0","","","","","","4","","","","","","","","",""
"","","","","","single-stim-button","213","319777","0.0-2.0-46.3-1.3","632f09dfbcfe2edefdae1447","A3","batch1","","656","tol_toboard","","","","tol_peg_3","656","656","0","[[0,0,0],[2,3],[1]]","4","[[0,0,0],[2,3],[1]]","12","0","","","","","","4","","","","","","","","",""
"","","","","","poldrack-single-stim","214","320782","0.0-2.0-47.0","632f09dfbcfe2edefdae1447","A3","batch1","","-1","tol_feedback","","","true","","1000","1000","500","","","","","","-1","none","true","2472","4631","","","","","","","","","",""
"","","","","","html-button-response","215","323101","0.0-2.0-48.0","632f09dfbcfe2edefdae1447","A3","batch1","","2317.7000000029802","attention_check","<p class = block-text>How many balls are in your board<br></p>","1","true","","","","","","","","","","","","","","","","","","","","","","","",""
"","","","","","html-button-response","216","323804","0.0-2.0-49.0","632f09dfbcfe2edefdae1447","A3","batch1","","703.3000000119209","tol_trial_num","<div class = centerbox><p class = center-block-text>problem <strong>14</strong> out of 25 problems</p></div>","0","","","","","","","","","","","","","","","","","","","","","","","","",""
"","","","","","single-stim-button","217","325334","0.0-2.0-50.0-0.0","632f09dfbcfe2edefdae1447","A3","batch1","","1528","tol_tohand","","","","tol_peg_1","1528","1528","0","[[2,0,0],[3,0],[0]]","1","[[1,2,0],[3,0],[0]]","13","0","","","","","","4","","","","","","","","",""
"","","","","","single-stim-button","218","326083","0.0-2.0-50.0-1.0","632f09dfbcfe2edefdae1447","A3","batch1","","749","tol_toboard","","","","tol_peg_3","749","749","0","[[2,0,0],[3,0],[1]]","1","[[1,2,0],[3,0],[0]]","13","0","","","","","","4","","","","","","","","",""
"","","","","","single-stim-button","219","326718","0.0-2.0-50.1-0.1","632f09dfbcfe2edefdae1447","A3","batch1","","634","tol_tohand","","","","tol_peg_1","634","634","0","[[0,0,0],[3,0],[1]]","2","[[1,2,0],[3,0],[0]]","13","0","","","","","","4","","","","","","","","",""
"","","","","","single-stim-button","220","327339","0.0-2.0-50.1-1.1","632f09dfbcfe2edefdae1447","A3","batch1","","621","tol_toboard","","","","tol_peg_2","621","621","0","[[0,0,0],[3,2],[1]]","2","[[1,2,0],[3,0],[0]]","13","0","","","","","","4","","","","","","","","",""
"","","","","","single-stim-button","221","327915","0.0-2.0-50.2-0.2","632f09dfbcfe2edefdae1447","A3","batch1","","576","tol_tohand","","","","tol_peg_3","576","576","0","[[0,0,0],[3,2],[0]]","3","[[1,2,0],[3,0],[0]]","13","0","","","","","","4","","","","","","","","",""
"","","","","","single-stim-button","222","328651","0.0-2.0-50.2-1.2","632f09dfbcfe2edefdae1447","A3","batch1","","736","tol_toboard","","","","tol_peg_1","736","736","0","[[1,0,0],[3,2],[0]]","3","[[1,2,0],[3,0],[0]]","13","0","","","","","","4","","","","","","","","",""
"","","","","","single-stim-button","223","329221","0.0-2.0-50.3-0.3","632f09dfbcfe2edefdae1447","A3","batch1","","569","tol_tohand","","","","tol_peg_2","569","569","0","[[1,0,0],[3,0],[0]]","4","[[1,2,0],[3,0],[0]]","13","0","","","","","","4","","","","","","","","",""
"","","","","","single-stim-button","224","329788","0.0-2.0-50.3-1.3","632f09dfbcfe2edefdae1447","A3","batch1","","567","tol_toboard","","","","tol_peg_1","567","567","0","[[1,2,0],[3,0],[0]]","4","[[1,2,0],[3,0],[0]]","13","0","","","","","","4","","","","","","","","",""
"","","","","","poldrack-single-stim","225","330791","0.0-2.0-51.0","632f09dfbcfe2edefdae1447","A3","batch1","","-1","tol_feedback","","","true","","1000","1000","500","","","","","","-1","none","true","1528","3307","","","","","","","","","",""
"","","","","","html-button-response","226","331849","0.0-2.0-52.0","632f09dfbcfe2edefdae1447","A3","batch1","","1057.300000011921","tol_trial_num","<div class = centerbox><p class = center-block-text>problem <strong>15</strong> out of 25 problems</p></div>","0","","","","","","","","","","","","","","","","","","","","","","","","",""
"","","","","","single-stim-button","227","333393","0.0-2.0-53.0-0.0","632f09dfbcfe2edefdae1447","A3","batch1","","1543","tol_tohand","","","","tol_peg_1","1543","1543","0","[[1,0,0],[3,0],[0]]","1","[[2,0,0],[3,0],[1]]","14","0","","","","","","3","","","","","","","","",""
"","","","","","single-stim-button","228","334587","0.0-2.0-53.0-1.0","632f09dfbcfe2edefdae1447","A3","batch1","","1194","tol_toboard","","","","tol_peg_2","1194","1194","0","[[1,0,0],[3,2],[0]]","1","[[2,0,0],[3,0],[1]]","14","0","","","","","","3","","","","","","","","",""
"","","","","","single-stim-button","229","335222","0.0-2.0-53.1-0.1","632f09dfbcfe2edefdae1447","A3","batch1","","635","tol_tohand","","","","tol_peg_1","635","635","0","[[0,0,0],[3,2],[0]]","2","[[2,0,0],[3,0],[1]]","14","0","","","","","","3","","","","","","","","",""
"","","","","","single-stim-button","230","335899","0.0-2.0-53.1-1.1","632f09dfbcfe2edefdae1447","A3","batch1","","676","tol_toboard","","","","tol_peg_3","676","676","0","[[0,0,0],[3,2],[1]]","2","[[2,0,0],[3,0],[1]]","14","0","","","","","","3","","","","","","","","",""
"","","","","","single-stim-button","231","336513","0.0-2.0-53.2-0.2","632f09dfbcfe2edefdae1447","A3","batch1","","613","tol_tohand","","","","tol_peg_2","613","613","0","[[0,0,0],[3,0],[1]]","3","[[2,0,0],[3,0],[1]]","14","0","","","","","","3","","","","","","","","",""
"","","","","","single-stim-button","232","339132","0.0-2.0-53.2-1.2","632f09dfbcfe2edefdae1447","A3","batch1","","2619","tol_toboard","","","","tol_peg_1","2619","2619","0","[[2,0,0],[3,0],[1]]","3","[[2,0,0],[3,0],[1]]","14","0","","","","","","3","","","","","","","","",""
"","","","","","poldrack-single-stim","233","340137","0.0-2.0-54.0","632f09dfbcfe2edefdae1447","A3","batch1","","-1","tol_feedback","","","true","","1000","1000","500","","","","","","-1","none","true","1543","2791","","","","","","","","","",""
"","","","","","html-button-response","234","341311","0.0-2.0-55.0","632f09dfbcfe2edefdae1447","A3","batch1","","1173.0999999940395","tol_trial_num","<div class = centerbox><p class = center-block-text>problem <strong>16</strong> out of 25 problems</p></div>","0","","","","","","","","","","","","","","","","","","","","","","","","",""
"","","","","","single-stim-button","235","343856","0.0-2.0-56.0-0.0","632f09dfbcfe2edefdae1447","A3","batch1","","2545","tol_tohand","","","","tol_peg_2","2545","2545","0","[[0,0,0],[2,0],[1]]","1","[[2,3,0],[1,0],[0]]","15","0","","","","","","7","","","","","","","","",""
"","","","","","single-stim-button","236","345083","0.0-2.0-56.0-1.0","632f09dfbcfe2edefdae1447","A3","batch1","","1226","tol_toboard","","","","tol_peg_1","1226","1226","0","[[3,0,0],[2,0],[1]]","1","[[2,3,0],[1,0],[0]]","15","0","","","","","","7","","","","","","","","",""
"","","","","","single-stim-button","237","345775","0.0-2.0-56.1-0.1","632f09dfbcfe2edefdae1447","A3","batch1","","692","tol_tohand","","","","tol_peg_2","692","692","0","[[3,0,0],[0,0],[1]]","2","[[2,3,0],[1,0],[0]]","15","0","","","","","","7","","","","","","","","",""
"","","","","","single-stim-button","238","346365","0.0-2.0-56.1-1.1","632f09dfbcfe2edefdae1447","A3","batch1","","590","tol_toboard","","","","tol_peg_1","590","590","0","[[3,2,0],[0,0],[1]]","2","[[2,3,0],[1,0],[0]]","15","0","","","","","","7","","","","","","","","",""
"","","","","","single-stim-button","239","347087","0.0-2.0-56.2-0.2","632f09dfbcfe2edefdae1447","A3","batch1","","722","tol_tohand","","","","tol_peg_3","722","722","0","[[3,2,0],[0,0],[0]]","3","[[2,3,0],[1,0],[0]]","15","0","","","","","","7","","","","","","","","",""
"","","","","","single-stim-button","240","347785","0.0-2.0-56.2-1.2","632f09dfbcfe2edefdae1447","A3","batch1","","697","tol_toboard","","","","tol_peg_2","697","697","0","[[3,2,0],[1,0],[0]]","3","[[2,3,0],[1,0],[0]]","15","0","","","","","","7","","","","","","","","",""
"","","","","","single-stim-button","241","348399","0.0-2.0-56.3-0.3","632f09dfbcfe2edefdae1447","A3","batch1","","613","tol_tohand","","","","tol_peg_1","613","613","0","[[3,0,0],[1,0],[0]]","4","[[2,3,0],[1,0],[0]]","15","0","","","","","","7","","","","","","","","",""
"","","","","","single-stim-button","242","349298","0.0-2.0-56.3-1.3","632f09dfbcfe2edefdae1447","A3","batch1","","899","tol_toboard","","","","tol_peg_2","899","899","0","[[3,0,0],[1,2],[0]]","4","[[2,3,0],[1,0],[0]]","15","0","","","","","","7","","","","","","","","",""
"","","","","","single-stim-button","243","350048","0.0-2.0-56.4-0.4","632f09dfbcfe2edefdae1447","A3","batch1","","749","tol_tohand","","","","tol_peg_1","749","749","0","[[0,0,0],[1,2],[0]]","5","[[2,3,0],[1,0],[0]]","15","0","","","","","","7","","","","","","","","",""
"","","","","","single-stim-button","244","350894","0.0-2.0-56.4-1.4","632f09dfbcfe2edefdae1447","A3","batch1","","846","tol_toboard","","","","tol_peg_3","846","846","0","[[0,0,0],[1,2],[3]]","5","[[2,3,0],[1,0],[0]]","15","0","","","","","","7","","","","","","","","",""
"","","","","","single-stim-button","245","351579","0.0-2.0-56.5-0.5","632f09dfbcfe2edefdae1447","A3","batch1","","684","tol_tohand","","","","tol_peg_2","684","684","0","[[0,0,0],[1,0],[3]]","6","[[2,3,0],[1,0],[0]]","15","0","","","","","","7","","","","","","","","",""
"","","","","","single-stim-button","246","352390","0.0-2.0-56.5-1.5","632f09dfbcfe2edefdae1447","A3","batch1","","811","tol_toboard","","","","tol_peg_1","811","811","0","[[2,0,0],[1,0],[3]]","6","[[2,3,0],[1,0],[0]]","15","0","","","","","","7","","","","","","","","",""
"","","","","","single-stim-button","247","353130","0.0-2.0-56.6-0.6","632f09dfbcfe2edefdae1447","A3","batch1","","739","tol_tohand","","","","tol_peg_3","739","739","0","[[2,0,0],[1,0],[0]]","7","[[2,3,0],[1,0],[0]]","15","0","","","","","","7","","","","","","","","",""
"","","","","","single-stim-button","248","353928","0.0-2.0-56.6-1.6","632f09dfbcfe2edefdae1447","A3","batch1","","798","tol_toboard","","","","tol_peg_1","798","798","0","[[2,3,0],[1,0],[0]]","7","[[2,3,0],[1,0],[0]]","15","0","","","","","","7","","","","","","","","",""
"","","","","","poldrack-single-stim","249","354941","0.0-2.0-57.0","632f09dfbcfe2edefdae1447","A3","batch1","","-1","tol_feedback","","","true","","1000","1000","500","","","","","","-1","none","true","2545","6744","","","","","","","","","",""
"","","","","","html-button-response","250","357142","0.0-2.0-58.0","632f09dfbcfe2edefdae1447","A3","batch1","","2200.199999988079","tol_trial_num","<div class = centerbox><p class = center-block-text>problem <strong>17</strong> out of 25 problems</p></div>","0","","","","","","","","","","","","","","","","","","","","","","","","",""
"","","","","","single-stim-button","251","360126","0.0-2.0-59.0-0.0","632f09dfbcfe2edefdae1447","A3","batch1","","2984","tol_tohand","","","","tol_peg_1","2984","2984","0","[[1,0,0],[3,0],[0]]","1","[[3,1,0],[2,0],[0]]","16","0","","","","","","5","","","","","","","","",""
"","","","","","single-stim-button","252","360848","0.0-2.0-59.0-1.0","632f09dfbcfe2edefdae1447","A3","batch1","","721","tol_toboard","","","","tol_peg_3","721","721","0","[[1,0,0],[3,0],[2]]","1","[[3,1,0],[2,0],[0]]","16","0","","","","","","5","","","","","","","","",""
"","","","","","single-stim-button","253","361731","0.0-2.0-59.1-0.1","632f09dfbcfe2edefdae1447","A3","batch1","","882","tol_tohand","","","","tol_peg_1","882","882","0","[[0,0,0],[3,0],[2]]","2","[[3,1,0],[2,0],[0]]","16","0","","","","","","5","","","","","","","","",""
"","","","","","single-stim-button","254","362963","0.0-2.0-59.1-1.1","632f09dfbcfe2edefdae1447","A3","batch1","","1232","tol_toboard","","","","tol_peg_2","1232","1232","0","[[0,0,0],[3,1],[2]]","2","[[3,1,0],[2,0],[0]]","16","0","","","","","","5","","","","","","","","",""
"","","","","","single-stim-button","255","364262","0.0-2.0-59.2-0.2","632f09dfbcfe2edefdae1447","A3","batch1","","1298","tol_tohand","","","","tol_peg_3","1298","1298","0","[[0,0,0],[3,1],[0]]","3","[[3,1,0],[2,0],[0]]","16","0","","","","","","5","","","","","","","","",""
"","","","","","single-stim-button","256","364943","0.0-2.0-59.2-1.2","632f09dfbcfe2edefdae1447","A3","batch1","","681","tol_toboard","","","","tol_peg_1","681","681","0","[[2,0,0],[3,1],[0]]","3","[[3,1,0],[2,0],[0]]","16","0","","","","","","5","","","","","","","","",""
"","","","","","single-stim-button","257","365645","0.0-2.0-59.3-0.3","632f09dfbcfe2edefdae1447","A3","batch1","","701","tol_tohand","","","","tol_peg_2","701","701","0","[[2,0,0],[3,0],[0]]","4","[[3,1,0],[2,0],[0]]","16","0","","","","","","5","","","","","","","","",""
"","","","","","single-stim-button","258","366280","0.0-2.0-59.3-1.3","632f09dfbcfe2edefdae1447","A3","batch1","","634","tol_toboard","","","","tol_peg_1","634","634","0","[[2,1,0],[3,0],[0]]","4","[[3,1,0],[2,0],[0]]","16","0","","","","","","5","","","","","","","","",""
"","","","","","single-stim-button","259","367039","0.0-2.0-59.4-0.4","632f09dfbcfe2edefdae1447","A3","batch1","","758","tol_tohand","","","","tol_peg_2","758","758","0","[[2,1,0],[0,0],[0]]","5","[[3,1,0],[2,0],[0]]","16","0","","","","","","5","","","","","","","","",""
"","","","","","single-stim-button","260","367762","0.0-2.0-59.4-1.4","632f09dfbcfe2edefdae1447","A3","batch1","","723","tol_toboard","","","","tol_peg_3","723","723","0","[[2,1,0],[0,0],[3]]","5","[[3,1,0],[2,0],[0]]","16","0","","","","","","5","","","","","","","","",""
"","","","","","single-stim-button","261","368469","0.0-2.0-59.5-0.5","632f09dfbcfe2edefdae1447","A3","batch1","","706","tol_tohand","","","","tol_peg_1","706","706","0","[[2,0,0],[0,0],[3]]","6","[[3,1,0],[2,0],[0]]","16","0","","","","","","5","","","","","","","","",""
"","","","","","single-stim-button","262","369713","0.0-2.0-59.5-1.5","632f09dfbcfe2edefdae1447","A3","batch1","","1244","tol_toboard","","","","tol_peg_2","1244","1244","0","[[2,0,0],[1,0],[3]]","6","[[3,1,0],[2,0],[0]]","16","0","","","","","","5","","","","","","","","",""
"","","","","","single-stim-button","263","370298","0.0-2.0-59.6-0.6","632f09dfbcfe2edefdae1447","A3","batch1","","585","tol_tohand","","","","tol_peg_1","585","585","0","[[0,0,0],[1,0],[3]]","7","[[3,1,0],[2,0],[0]]","16","0","","","","","","5","","","","","","","","",""
"","","","","","single-stim-button","264","370833","0.0-2.0-59.6-1.6","632f09dfbcfe2edefdae1447","A3","batch1","","533","tol_toboard","","","","tol_peg_2","533","533","0","[[0,0,0],[1,2],[3]]","7","[[3,1,0],[2,0],[0]]","16","0","","","","","","5","","","","","","","","",""
"","","","","","single-stim-button","265","371472","0.0-2.0-59.7-0.7","632f09dfbcfe2edefdae1447","A3","batch1","","639","tol_tohand","","","","tol_peg_3","639","639","0","[[0,0,0],[1,2],[0]]","8","[[3,1,0],[2,0],[0]]","16","0","","","","","","5","","","","","","","","",""
"","","","","","single-stim-button","266","372131","0.0-2.0-59.7-1.7","632f09dfbcfe2edefdae1447","A3","batch1","","658","tol_toboard","","","","tol_peg_1","658","658","0","[[3,0,0],[1,2],[0]]","8","[[3,1,0],[2,0],[0]]","16","0","","","","","","5","","","","","","","","",""
"","","","","","single-stim-button","267","372783","0.0-2.0-59.8-0.8","632f09dfbcfe2edefdae1447","A3","batch1","","652","tol_tohand","","","","tol_peg_2","652","652","0","[[3,0,0],[1,0],[0]]","9","[[3,1,0],[2,0],[0]]","16","0","","","","","","5","","","","","","","","",""
"","","","","","single-stim-button","268","373552","0.0-2.0-59.8-1.8","632f09dfbcfe2edefdae1447","A3","batch1","","768","tol_toboard","","","","tol_peg_3","768","768","0","[[3,0,0],[1,0],[2]]","9","[[3,1,0],[2,0],[0]]","16","0","","","","","","5","","","","","","","","",""
"","","","","","single-stim-button","269","374914","0.0-2.0-59.9-0.9","632f09dfbcfe2edefdae1447","A3","batch1","","1362","tol_tohand","","","","tol_peg_2","1362","1362","0","[[3,0,0],[0,0],[2]]","10","[[3,1,0],[2,0],[0]]","16","0","","","","","","5","","","","","","","","",""
"","","","","","single-stim-button","270","375599","0.0-2.0-59.9-1.9","632f09dfbcfe2edefdae1447","A3","batch1","","685","tol_toboard","","","","tol_peg_1","685","685","0","[[3,1,0],[0,0],[2]]","10","[[3,1,0],[2,0],[0]]","16","0","","","","","","5","","","","","","","","",""
"","","","","","single-stim-button","271","376337","0.0-2.0-59.10-0.10","632f09dfbcfe2edefdae1447","A3","batch1","","738","tol_tohand","","","","tol_peg_3","738","738","0","[[3,1,0],[0,0],[0]]","11","[[3,1,0],[2,0],[0]]","16","0","","","","","","5","","","","","","","","",""
"","","","","","single-stim-button","272","376927","0.0-2.0-59.10-1.10","632f09dfbcfe2edefdae1447","A3","batch1","","589","tol_toboard","","","","tol_peg_2","589","589","0","[[3,1,0],[2,0],[0]]","11","[[3,1,0],[2,0],[0]]","16","0","","","","","","5","","","","","","","","",""
"","","","","","poldrack-single-stim","273","377941","0.0-2.0-60.0","632f09dfbcfe2edefdae1447","A3","batch1","","-1","tol_feedback","","","true","","1000","1000","500","","","","","","-1","none","true","2984","11305","","","","","","","","","",""
"","","","","","html-button-response","274","378644","0.0-2.0-61.0","632f09dfbcfe2edefdae1447","A3","batch1","","701.7000000029802","tol_trial_num","<div class = centerbox><p class = center-block-text>problem <strong>18</strong> out of 25 problems</p></div>","0","","","","","","","","","","","","","","","","","","","","","","","","",""
"","","","","","single-stim-button","275","380596","0.0-2.0-62.0-0.0","632f09dfbcfe2edefdae1447","A3","batch1","","1952","tol_tohand","","","","tol_peg_1","1952","1952","0","[[1,0,0],[3,0],[0]]","1","[[3,0,0],[2,0],[1]]","17","0","","","","","","5","","","","","","","","",""
"","","","","","single-stim-button","276","381857","0.0-2.0-62.0-1.0","632f09dfbcfe2edefdae1447","A3","batch1","","1261","tol_toboard","","","","tol_peg_2","1261","1261","0","[[1,0,0],[3,2],[0]]","1","[[3,0,0],[2,0],[1]]","17","0","","","","","","5","","","","","","","","",""
"","","","","","single-stim-button","277","382522","0.0-2.0-62.1-0.1","632f09dfbcfe2edefdae1447","A3","batch1","","664","tol_tohand","","","","tol_peg_1","664","664","0","[[0,0,0],[3,2],[0]]","2","[[3,0,0],[2,0],[1]]","17","0","","","","","","5","","","","","","","","",""
"","","","","","single-stim-button","278","383279","0.0-2.0-62.1-1.1","632f09dfbcfe2edefdae1447","A3","batch1","","756","tol_toboard","","","","tol_peg_3","756","756","0","[[0,0,0],[3,2],[1]]","2","[[3,0,0],[2,0],[1]]","17","0","","","","","","5","","","","","","","","",""
"","","","","","single-stim-button","279","384185","0.0-2.0-62.2-0.2","632f09dfbcfe2edefdae1447","A3","batch1","","906","tol_tohand","","","","tol_peg_2","906","906","0","[[0,0,0],[3,0],[1]]","3","[[3,0,0],[2,0],[1]]","17","0","","","","","","5","","","","","","","","",""
"","","","","","single-stim-button","280","388342","0.0-2.0-62.2-1.2","632f09dfbcfe2edefdae1447","A3","batch1","","4157","tol_toboard","","","","tol_peg_2","4157","4157","0","[[0,0,0],[3,2],[1]]","3","[[3,0,0],[2,0],[1]]","17","0","","","","","","5","","","","","","","","",""
"","","","","","single-stim-button","281","389910","0.0-2.0-62.3-0.3","632f09dfbcfe2edefdae1447","A3","batch1","","1568","tol_tohand","","","","tol_peg_2","1568","1568","0","[[0,0,0],[3,0],[1]]","4","[[3,0,0],[2,0],[1]]","17","0","","","","","","5","","","","","","","","",""
"","","","","","single-stim-button","282","390505","0.0-2.0-62.3-1.3","632f09dfbcfe2edefdae1447","A3","batch1","","594","tol_toboard","","","","tol_peg_1","594","594","0","[[2,0,0],[3,0],[1]]","4","[[3,0,0],[2,0],[1]]","17","0","","","","","","5","","","","","","","","",""
"","","","","","single-stim-button","283","391053","0.0-2.0-62.4-0.4","632f09dfbcfe2edefdae1447","A3","batch1","","548","tol_tohand","","","","tol_peg_2","548","548","0","[[2,0,0],[0,0],[1]]","5","[[3,0,0],[2,0],[1]]","17","0","","","","","","5","","","","","","","","",""
"","","","","","single-stim-button","284","391668","0.0-2.0-62.4-1.4","632f09dfbcfe2edefdae1447","A3","batch1","","615","tol_toboard","","","","tol_peg_1","615","615","0","[[2,3,0],[0,0],[1]]","5","[[3,0,0],[2,0],[1]]","17","0","","","","","","5","","","","","","","","",""
"","","","","","single-stim-button","285","392475","0.0-2.0-62.5-0.5","632f09dfbcfe2edefdae1447","A3","batch1","","806","tol_tohand","","","","tol_peg_3","806","806","0","[[2,3,0],[0,0],[0]]","6","[[3,0,0],[2,0],[1]]","17","0","","","","","","5","","","","","","","","",""
"","","","","","single-stim-button","286","393182","0.0-2.0-62.5-1.5","632f09dfbcfe2edefdae1447","A3","batch1","","707","tol_toboard","","","","tol_peg_2","707","707","0","[[2,3,0],[1,0],[0]]","6","[[3,0,0],[2,0],[1]]","17","0","","","","","","5","","","","","","","","",""
"","","","","","single-stim-button","287","393814","0.0-2.0-62.6-0.6","632f09dfbcfe2edefdae1447","A3","batch1","","632","tol_tohand","","","","tol_peg_1","632","632","0","[[2,0,0],[1,0],[0]]","7","[[3,0,0],[2,0],[1]]","17","0","","","","","","5","","","","","","","","",""
"","","","","","single-stim-button","288","394662","0.0-2.0-62.6-1.6","632f09dfbcfe2edefdae1447","A3","batch1","","848","tol_toboard","","","","tol_peg_3","848","848","0","[[2,0,0],[1,0],[3]]","7","[[3,0,0],[2,0],[1]]","17","0","","","","","","5","","","","","","","","",""
"","","","","","single-stim-button","289","395569","0.0-2.0-62.7-0.7","632f09dfbcfe2edefdae1447","A3","batch1","","907","tol_tohand","","","","tol_peg_1","907","907","0","[[0,0,0],[1,0],[3]]","8","[[3,0,0],[2,0],[1]]","17","0","","","","","","5","","","","","","","","",""
"","","","","","single-stim-button","290","396281","0.0-2.0-62.7-1.7","632f09dfbcfe2edefdae1447","A3","batch1","","710","tol_toboard","","","","tol_peg_2","710","710","0","[[0,0,0],[1,2],[3]]","8","[[3,0,0],[2,0],[1]]","17","0","","","","","","5","","","","","","","","",""
"","","","","","single-stim-button","291","396885","0.0-2.0-62.8-0.8","632f09dfbcfe2edefdae1447","A3","batch1","","604","tol_tohand","","","","tol_peg_3","604","604","0","[[0,0,0],[1,2],[0]]","9","[[3,0,0],[2,0],[1]]","17","0","","","","","","5","","","","","","","","",""
"","","","","","single-stim-button","292","397681","0.0-2.0-62.8-1.8","632f09dfbcfe2edefdae1447","A3","batch1","","796","tol_toboard","","","","tol_peg_1","796","796","0","[[3,0,0],[1,2],[0]]","9","[[3,0,0],[2,0],[1]]","17","0","","","","","","5","","","","","","","","",""
"","","","","","single-stim-button","293","398577","0.0-2.0-62.9-0.9","632f09dfbcfe2edefdae1447","A3","batch1","","895","tol_tohand","","","","tol_peg_2","895","895","0","[[3,0,0],[1,0],[0]]","10","[[3,0,0],[2,0],[1]]","17","0","","","","","","5","","","","","","","","",""
"","","","","","single-stim-button","294","399702","0.0-2.0-62.9-1.9","632f09dfbcfe2edefdae1447","A3","batch1","","1125","tol_toboard","","","","tol_peg_1","1125","1125","0","[[3,2,0],[1,0],[0]]","10","[[3,0,0],[2,0],[1]]","17","0","","","","","","5","","","","","","","","",""
"","","","","","single-stim-button","295","400262","0.0-2.0-62.10-0.10","632f09dfbcfe2edefdae1447","A3","batch1","","560","tol_tohand","","","","tol_peg_2","560","560","0","[[3,2,0],[0,0],[0]]","11","[[3,0,0],[2,0],[1]]","17","0","","","","","","5","","","","","","","","",""
"","","","","","single-stim-button","296","400911","0.0-2.0-62.10-1.10","632f09dfbcfe2edefdae1447","A3","batch1","","648","tol_toboard","","","","tol_peg_3","648","648","0","[[3,2,0],[0,0],[1]]","11","[[3,0,0],[2,0],[1]]","17","0","","","","","","5","","","","","","","","",""
"","","","","","single-stim-button","297","401494","0.0-2.0-62.11-0.11","632f09dfbcfe2edefdae1447","A3","batch1","","582","tol_tohand","","","","tol_peg_1","582","582","0","[[3,0,0],[0,0],[1]]","12","[[3,0,0],[2,0],[1]]","17","0","","","","","","5","","","","","","","","",""
"","","","","","single-stim-button","298","402194","0.0-2.0-62.11-1.11","632f09dfbcfe2edefdae1447","A3","batch1","","699","tol_toboard","","","","tol_peg_2","699","699","0","[[3,0,0],[2,0],[1]]","12","[[3,0,0],[2,0],[1]]","17","0","","","","","","5","","","","","","","","",""
"","","","","","poldrack-single-stim","299","403195","0.0-2.0-63.0","632f09dfbcfe2edefdae1447","A3","batch1","","-1","tol_feedback","","","true","","1000","1000","500","","","","","","-1","none","true","1952","10624","","","","","","","","","",""
"","","","","","html-button-response","300","403785","0.0-2.0-64.0","632f09dfbcfe2edefdae1447","A3","batch1","","589.7000000029802","tol_trial_num","<div class = centerbox><p class = center-block-text>problem <strong>19</strong> out of 25 problems</p></div>","0","","","","","","","","","","","","","","","","","","","","","","","","",""
"","","","","","single-stim-button","301","405023","0.0-2.0-65.0-0.0","632f09dfbcfe2edefdae1447","A3","batch1","","1238","tol_tohand","","","","tol_peg_2","1238","1238","0","[[1,2,0],[0,0],[0]]","1","[[0,0,0],[1,2],[3]]","18","0","","","","","","7","","","","","","","","",""
"","","","","","single-stim-button","302","406659","0.0-2.0-65.0-1.0","632f09dfbcfe2edefdae1447","A3","batch1","","1634","tol_toboard","","","","tol_peg_2","1634","1634","0","[[1,2,0],[3,0],[0]]","1","[[0,0,0],[1,2],[3]]","18","0","","","","","","7","","","","","","","","",""
"","","","","","single-stim-button","303","407320","0.0-2.0-65.1-0.1","632f09dfbcfe2edefdae1447","A3","batch1","","661","tol_tohand","","","","tol_peg_1","661","661","0","[[1,0,0],[3,0],[0]]","2","[[0,0,0],[1,2],[3]]","18","0","","","","","","7","","","","","","","","",""
"","","","","","single-stim-button","304","409657","0.0-2.0-65.1-1.1","632f09dfbcfe2edefdae1447","A3","batch1","","2336","tol_toboard","","","","tol_peg_3","2336","2336","0","[[1,0,0],[3,0],[2]]","2","[[0,0,0],[1,2],[3]]","18","0","","","","","","7","","","","","","","","",""
"","","","","","single-stim-button","305","411006","0.0-2.0-65.2-0.2","632f09dfbcfe2edefdae1447","A3","batch1","","1349","tol_tohand","","","","tol_peg_3","1349","1349","0","[[1,0,0],[3,0],[0]]","3","[[0,0,0],[1,2],[3]]","18","0","","","","","","7","","","","","","","","",""
"","","","","","single-stim-button","306","411551","0.0-2.0-65.2-1.2","632f09dfbcfe2edefdae1447","A3","batch1","","545","tol_toboard","","","","tol_peg_2","545","545","0","[[1,0,0],[3,2],[0]]","3","[[0,0,0],[1,2],[3]]","18","0","","","","","","7","","","","","","","","",""
"","","","","","single-stim-button","307","412342","0.0-2.0-65.3-0.3","632f09dfbcfe2edefdae1447","A3","batch1","","790","tol_tohand","","","","tol_peg_2","790","790","0","[[1,0,0],[3,0],[0]]","4","[[0,0,0],[1,2],[3]]","18","0","","","","","","7","","","","","","","","",""
"","","","","","single-stim-button","308","412884","0.0-2.0-65.3-1.3","632f09dfbcfe2edefdae1447","A3","batch1","","541","tol_toboard","","","","tol_peg_1","541","541","0","[[1,2,0],[3,0],[0]]","4","[[0,0,0],[1,2],[3]]","18","0","","","","","","7","","","","","","","","",""
"","","","","","single-stim-button","309","413456","0.0-2.0-65.4-0.4","632f09dfbcfe2edefdae1447","A3","batch1","","572","tol_tohand","","","","tol_peg_2","572","572","0","[[1,2,0],[0,0],[0]]","5","[[0,0,0],[1,2],[3]]","18","0","","","","","","7","","","","","","","","",""
"","","","","","single-stim-button","310","414072","0.0-2.0-65.4-1.4","632f09dfbcfe2edefdae1447","A3","batch1","","616","tol_toboard","","","","tol_peg_3","616","616","0","[[1,2,0],[0,0],[3]]","5","[[0,0,0],[1,2],[3]]","18","0","","","","","","7","","","","","","","","",""
"","","","","","single-stim-button","311","414675","0.0-2.0-65.5-0.5","632f09dfbcfe2edefdae1447","A3","batch1","","603","tol_tohand","","","","tol_peg_1","603","603","0","[[1,0,0],[0,0],[3]]","6","[[0,0,0],[1,2],[3]]","18","0","","","","","","7","","","","","","","","",""
"","","","","","single-stim-button","312","415220","0.0-2.0-65.5-1.5","632f09dfbcfe2edefdae1447","A3","batch1","","544","tol_toboard","","","","tol_peg_2","544","544","0","[[1,0,0],[2,0],[3]]","6","[[0,0,0],[1,2],[3]]","18","0","","","","","","7","","","","","","","","",""
"","","","","","single-stim-button","313","415783","0.0-2.0-65.6-0.6","632f09dfbcfe2edefdae1447","A3","batch1","","562","tol_tohand","","","","tol_peg_1","562","562","0","[[0,0,0],[2,0],[3]]","7","[[0,0,0],[1,2],[3]]","18","0","","","","","","7","","","","","","","","",""
"","","","","","single-stim-button","314","417056","0.0-2.0-65.6-1.6","632f09dfbcfe2edefdae1447","A3","batch1","","1273","tol_toboard","","","","tol_peg_2","1273","1273","0","[[0,0,0],[2,1],[3]]","7","[[0,0,0],[1,2],[3]]","18","0","","","","","","7","","","","","","","","",""
"","","","","","single-stim-button","315","417808","0.0-2.0-65.7-0.7","632f09dfbcfe2edefdae1447","A3","batch1","","752","tol_tohand","","","","tol_peg_3","752","752","0","[[0,0,0],[2,1],[0]]","8","[[0,0,0],[1,2],[3]]","18","0","","","","","","7","","","","","","","","",""
"","","","","","single-stim-button","316","418537","0.0-2.0-65.7-1.7","632f09dfbcfe2edefdae1447","A3","batch1","","728","tol_toboard","","","","tol_peg_1","728","728","0","[[3,0,0],[2,1],[0]]","8","[[0,0,0],[1,2],[3]]","18","0","","","","","","7","","","","","","","","",""
"","","","","","single-stim-button","317","419113","0.0-2.0-65.8-0.8","632f09dfbcfe2edefdae1447","A3","batch1","","576","tol_tohand","","","","tol_peg_2","576","576","0","[[3,0,0],[2,0],[0]]","9","[[0,0,0],[1,2],[3]]","18","0","","","","","","7","","","","","","","","",""
"","","","","","single-stim-button","318","419704","0.0-2.0-65.8-1.8","632f09dfbcfe2edefdae1447","A3","batch1","","590","tol_toboard","","","","tol_peg_3","590","590","0","[[3,0,0],[2,0],[1]]","9","[[0,0,0],[1,2],[3]]","18","0","","","","","","7","","","","","","","","",""
"","","","","","single-stim-button","319","420466","0.0-2.0-65.9-0.9","632f09dfbcfe2edefdae1447","A3","batch1","","762","tol_tohand","","","","tol_peg_2","762","762","0","[[3,0,0],[0,0],[1]]","10","[[0,0,0],[1,2],[3]]","18","0","","","","","","7","","","","","","","","",""
"","","","","","single-stim-button","320","421112","0.0-2.0-65.9-1.9","632f09dfbcfe2edefdae1447","A3","batch1","","646","tol_toboard","","","","tol_peg_1","646","646","0","[[3,2,0],[0,0],[1]]","10","[[0,0,0],[1,2],[3]]","18","0","","","","","","7","","","","","","","","",""
"","","","","","single-stim-button","321","421797","0.0-2.0-65.10-0.10","632f09dfbcfe2edefdae1447","A3","batch1","","685","tol_tohand","","","","tol_peg_3","685","685","0","[[3,2,0],[0,0],[0]]","11","[[0,0,0],[1,2],[3]]","18","0","","","","","","7","","","","","","","","",""
"","","","","","single-stim-button","322","422395","0.0-2.0-65.10-1.10","632f09dfbcfe2edefdae1447","A3","batch1","","598","tol_toboard","","","","tol_peg_2","598","598","0","[[3,2,0],[1,0],[0]]","11","[[0,0,0],[1,2],[3]]","18","0","","","","","","7","","","","","","","","",""
"","","","","","single-stim-button","323","423036","0.0-2.0-65.11-0.11","632f09dfbcfe2edefdae1447","A3","batch1","","641","tol_tohand","","","","tol_peg_1","641","641","0","[[3,0,0],[1,0],[0]]","12","[[0,0,0],[1,2],[3]]","18","0","","","","","","7","","","","","","","","",""
"","","","","","single-stim-button","324","423649","0.0-2.0-65.11-1.11","632f09dfbcfe2edefdae1447","A3","batch1","","612","tol_toboard","","","","tol_peg_2","612","612","0","[[3,0,0],[1,2],[0]]","12","[[0,0,0],[1,2],[3]]","18","0","","","","","","7","","","","","","","","",""
"","","","","","single-stim-button","325","424195","0.0-2.0-65.12-0.12","632f09dfbcfe2edefdae1447","A3","batch1","","546","tol_tohand","","","","tol_peg_1","546","546","0","[[0,0,0],[1,2],[0]]","13","[[0,0,0],[1,2],[3]]","18","0","","","","","","7","","","","","","","","",""
"","","","","","single-stim-button","326","426995","0.0-2.0-65.12-1.12","632f09dfbcfe2edefdae1447","A3","batch1","","2799","tol_toboard","","","","tol_peg_3","2799","2799","0","[[0,0,0],[1,2],[3]]","13","[[0,0,0],[1,2],[3]]","18","0","","","","","","7","","","","","","","","",""
"","","","","","poldrack-single-stim","327","428010","0.0-2.0-66.0","632f09dfbcfe2edefdae1447","A3","batch1","","-1","tol_feedback","","","true","","1000","1000","500","","","","","","-1","none","true","1238","9737","","","","","","","","","",""
"","","","","","html-button-response","328","428671","0.0-2.0-67.0","632f09dfbcfe2edefdae1447","A3","batch1","","659.5999999940395","tol_trial_num","<div class = centerbox><p class = center-block-text>problem <strong>20</strong> out of 25 problems</p></div>","0","","","","","","","","","","","","","","","","","","","","","","","","",""
"","","","","","single-stim-button","329","430867","0.0-2.0-68.0-0.0","632f09dfbcfe2edefdae1447","A3","batch1","","2196","tol_tohand","","","","tol_peg_1","2196","2196","0","[[1,0,0],[3,0],[0]]","1","[[2,1,0],[0,0],[3]]","19","0","","","","","","5","","","","","","","","",""
"","","","","","single-stim-button","330","431707","0.0-2.0-68.0-1.0","632f09dfbcfe2edefdae1447","A3","batch1","","839","tol_toboard","","","","tol_peg_3","839","839","0","[[1,0,0],[3,0],[2]]","1","[[2,1,0],[0,0],[3]]","19","0","","","","","","5","","","","","","","","",""
"","","","","","single-stim-button","331","432414","0.0-2.0-68.1-0.1","632f09dfbcfe2edefdae1447","A3","batch1","","707","tol_tohand","","","","tol_peg_1","707","707","0","[[0,0,0],[3,0],[2]]","2","[[2,1,0],[0,0],[3]]","19","0","","","","","","5","","","","","","","","",""
"","","","","","single-stim-button","332","438072","0.0-2.0-68.1-1.1","632f09dfbcfe2edefdae1447","A3","batch1","","5658","tol_toboard","","","","tol_peg_1","5658","5658","0","[[1,0,0],[3,0],[2]]","2","[[2,1,0],[0,0],[3]]","19","0","","","","","","5","","","","","","","","",""
"","","","","","single-stim-button","333","438786","0.0-2.0-68.2-0.2","632f09dfbcfe2edefdae1447","A3","batch1","","714","tol_tohand","","","","tol_peg_3","714","714","0","[[1,0,0],[3,0],[0]]","3","[[2,1,0],[0,0],[3]]","19","0","","","","","","5","","","","","","","","",""
"","","","","","single-stim-button","334","439538","0.0-2.0-68.2-1.2","632f09dfbcfe2edefdae1447","A3","batch1","","752","tol_toboard","","","","tol_peg_1","752","752","0","[[1,2,0],[3,0],[0]]","3","[[2,1,0],[0,0],[3]]","19","0","","","","","","5","","","","","","","","",""
"","","","","","single-stim-button","335","440121","0.0-2.0-68.3-0.3","632f09dfbcfe2edefdae1447","A3","batch1","","582","tol_tohand","","","","tol_peg_2","582","582","0","[[1,2,0],[0,0],[0]]","4","[[2,1,0],[0,0],[3]]","19","0","","","","","","5","","","","","","","","",""
"","","","","","single-stim-button","336","440777","0.0-2.0-68.3-1.3","632f09dfbcfe2edefdae1447","A3","batch1","","655","tol_toboard","","","","tol_peg_3","655","655","0","[[1,2,0],[0,0],[3]]","4","[[2,1,0],[0,0],[3]]","19","0","","","","","","5","","","","","","","","",""
"","","","","","single-stim-button","337","441580","0.0-2.0-68.4-0.4","632f09dfbcfe2edefdae1447","A3","batch1","","803","tol_tohand","","","","tol_peg_1","803","803","0","[[1,0,0],[0,0],[3]]","5","[[2,1,0],[0,0],[3]]","19","0","","","","","","5","","","","","","","","",""
"","","","","","single-stim-button","338","442257","0.0-2.0-68.4-1.4","632f09dfbcfe2edefdae1447","A3","batch1","","676","tol_toboard","","","","tol_peg_2","676","676","0","[[1,0,0],[2,0],[3]]","5","[[2,1,0],[0,0],[3]]","19","0","","","","","","5","","","","","","","","",""
"","","","","","single-stim-button","339","442782","0.0-2.0-68.5-0.5","632f09dfbcfe2edefdae1447","A3","batch1","","524","tol_tohand","","","","tol_peg_1","524","524","0","[[0,0,0],[2,0],[3]]","6","[[2,1,0],[0,0],[3]]","19","0","","","","","","5","","","","","","","","",""
"","","","","","single-stim-button","340","443315","0.0-2.0-68.5-1.5","632f09dfbcfe2edefdae1447","A3","batch1","","532","tol_toboard","","","","tol_peg_2","532","532","0","[[0,0,0],[2,1],[3]]","6","[[2,1,0],[0,0],[3]]","19","0","","","","","","5","","","","","","","","",""
"","","","","","single-stim-button","341","443826","0.0-2.0-68.6-0.6","632f09dfbcfe2edefdae1447","A3","batch1","","511","tol_tohand","","","","tol_peg_3","511","511","0","[[0,0,0],[2,1],[0]]","7","[[2,1,0],[0,0],[3]]","19","0","","","","","","5","","","","","","","","",""
"","","","","","single-stim-button","342","444533","0.0-2.0-68.6-1.6","632f09dfbcfe2edefdae1447","A3","batch1","","706","tol_toboard","","","","tol_peg_1","706","706","0","[[3,0,0],[2,1],[0]]","7","[[2,1,0],[0,0],[3]]","19","0","","","","","","5","","","","","","","","",""
"","","","","","single-stim-button","343","445130","0.0-2.0-68.7-0.7","632f09dfbcfe2edefdae1447","A3","batch1","","597","tol_tohand","","","","tol_peg_2","597","597","0","[[3,0,0],[2,0],[0]]","8","[[2,1,0],[0,0],[3]]","19","0","","","","","","5","","","","","","","","",""
"","","","","","single-stim-button","344","445848","0.0-2.0-68.7-1.7","632f09dfbcfe2edefdae1447","A3","batch1","","717","tol_toboard","","","","tol_peg_3","717","717","0","[[3,0,0],[2,0],[1]]","8","[[2,1,0],[0,0],[3]]","19","0","","","","","","5","","","","","","","","",""
"","","","","","single-stim-button","345","446735","0.0-2.0-68.8-0.8","632f09dfbcfe2edefdae1447","A3","batch1","","887","tol_tohand","","","","tol_peg_1","887","887","0","[[0,0,0],[2,0],[1]]","9","[[2,1,0],[0,0],[3]]","19","0","","","","","","5","","","","","","","","",""
"","","","","","single-stim-button","346","449033","0.0-2.0-68.8-1.8","632f09dfbcfe2edefdae1447","A3","batch1","","2298","tol_toboard","","","","tol_peg_2","2298","2298","0","[[0,0,0],[2,3],[1]]","9","[[2,1,0],[0,0],[3]]","19","0","","","","","","5","","","","","","","","",""
"","","","","","single-stim-button","347","450147","0.0-2.0-68.9-0.9","632f09dfbcfe2edefdae1447","A3","batch1","","1113","tol_tohand","","","","tol_peg_2","1113","1113","0","[[0,0,0],[2,0],[1]]","10","[[2,1,0],[0,0],[3]]","19","0","","","","","","5","","","","","","","","",""
"","","","","","single-stim-button","348","452423","0.0-2.0-68.9-1.9","632f09dfbcfe2edefdae1447","A3","batch1","","2275","tol_toboard","","","","tol_peg_1","2275","2275","0","[[3,0,0],[2,0],[1]]","10","[[2,1,0],[0,0],[3]]","19","0","","","","","","5","","","","","","","","",""
"","","","","","single-stim-button","349","453831","0.0-2.0-68.10-0.10","632f09dfbcfe2edefdae1447","A3","batch1","","1407","tol_tohand","","","","tol_peg_3","1407","1407","0","[[3,0,0],[2,0],[0]]","11","[[2,1,0],[0,0],[3]]","19","0","","","","","","5","","","","","","","","",""
"","","","","","single-stim-button","350","454492","0.0-2.0-68.10-1.10","632f09dfbcfe2edefdae1447","A3","batch1","","660","tol_toboard","","","","tol_peg_1","660","660","0","[[3,1,0],[2,0],[0]]","11","[[2,1,0],[0,0],[3]]","19","0","","","","","","5","","","","","","","","",""
"","","","","","single-stim-button","351","455274","0.0-2.0-68.11-0.11","632f09dfbcfe2edefdae1447","A3","batch1","","782","tol_tohand","","","","tol_peg_2","782","782","0","[[3,1,0],[0,0],[0]]","12","[[2,1,0],[0,0],[3]]","19","0","","","","","","5","","","","","","","","",""
"","","","","","single-stim-button","352","455822","0.0-2.0-68.11-1.11","632f09dfbcfe2edefdae1447","A3","batch1","","548","tol_toboard","","","","tol_peg_3","548","548","0","[[3,1,0],[0,0],[2]]","12","[[2,1,0],[0,0],[3]]","19","0","","","","","","5","","","","","","","","",""
"","","","","","single-stim-button","353","456423","0.0-2.0-68.12-0.12","632f09dfbcfe2edefdae1447","A3","batch1","","601","tol_tohand","","","","tol_peg_1","601","601","0","[[3,0,0],[0,0],[2]]","13","[[2,1,0],[0,0],[3]]","19","0","","","","","","5","","","","","","","","",""
"","","","","","single-stim-button","354","457274","0.0-2.0-68.12-1.12","632f09dfbcfe2edefdae1447","A3","batch1","","850","tol_toboard","","","","tol_peg_2","850","850","0","[[3,0,0],[1,0],[2]]","13","[[2,1,0],[0,0],[3]]","19","0","","","","","","5","","","","","","","","",""
"","","","","","single-stim-button","355","458064","0.0-2.0-68.13-0.13","632f09dfbcfe2edefdae1447","A3","batch1","","789","tol_tohand","","","","tol_peg_1","789","789","0","[[0,0,0],[1,0],[2]]","14","[[2,1,0],[0,0],[3]]","19","0","","","","","","5","","","","","","","","",""
"","","","","","single-stim-button","356","458581","0.0-2.0-68.13-1.13","632f09dfbcfe2edefdae1447","A3","batch1","","517","tol_toboard","","","","tol_peg_2","517","517","0","[[0,0,0],[1,3],[2]]","14","[[2,1,0],[0,0],[3]]","19","0","","","","","","5","","","","","","","","",""
