"success","timeout","failed_images","failed_audio","failed_video","trial_type","trial_index","time_elapsed","internal_node_id","subject_id","study_id","session_id","view_history","rt","stimulus","response","task","correct","answer","item","fiar_detect_rt","fiar_detect_correct","total_correct_fiar_detect","post_trial_gap","choices","spm_correct","spm_rt","mouse_click","stim_duration","block_duration","timing_post_trial","current_position","tol_num_moves_made","tol_target","tol_problem_id","tol_rt","key_press","possible_responses","tol_correct","preplanning","tol_rt_per_trial","tol_min_moves"
"true","false","[]","[]","[]","preload","0","4662","0.0-0.0","632f8a93e8ab0c12e145a101","C3","batch3","","","","","","","","","","","","","","","","","","","","","","","","","","","","","",""
"true","","","","","fullscreen","1","37775","0.0-1.0-0.0","632f8a93e8ab0c12e145a101","C3","batch3","","","","","","","","","","","","","","","","","","","","","","","","","","","","","",""
"true","","","","","fullscreen","2","45385","0.0-2.0-0.0","632f8a93e8ab0c12e145a101","C3","batch3","","","","","","","","","","","","","","","","","","","","","","","","","","","","","",""
"","","","","","instructions","3","72724","0.0-2.0-1.0-0.0","632f8a93e8ab0c12e145a101","C3","batch3","[{""page_index"":0,""viewing_time"":12815.800000071526},{""page_index"":1,""viewing_time"":14521.299999952316}]","27337.5","","","","","","","","","","","","","","","","","","","","","","","","","","","",""
"","","","","","html-button-response","4","74358","0.0-2.0-1.0-1.0-0.0","632f8a93e8ab0c12e145a101","C3","batch3","","1633.2000000476837","<p class=block-text> Let's answer a few questions <br>","0","pattern_enter_quiz","","","","","","","","","","","","","","","","","","","","","","","","",""
"","","","","","html-button-response","5","77275","0.0-2.0-1.0-1.0-1.0","632f8a93e8ab0c12e145a101","C3","batch3","","2915.100000023842","<p class = block-text>True or False: You will have as much time as you want to make each choice. <br></p>","1","pattern_quiz","true","","","","","","","","","","","","","","","","","","","","","","","",""
"","","","","","html-button-response","6","79720","0.0-2.0-1.0-1.0-2.0","632f8a93e8ab0c12e145a101","C3","batch3","","2443.600000023842","<p class = block-text>Correct! You should make your choice <strong> as fast as you can</strong>.</p>","0","pattern_quiz_feedback","","","","","","","","","","","","","","","","","","","","","","","","",""
"","","","","","html-button-response","7","86156","0.0-2.0-1.0-1.0-3.0","632f8a93e8ab0c12e145a101","C3","batch3","","6434.200000047684","<p class = block-text>True or False: You will look for 4 pieces in black or white color connected in a row either horizontally, vertically or diagonally. <br></p>","0","pattern_quiz","true","","","","","","","","","","","","","","","","","","","","","","","",""
"","","","","","html-button-response","8","87639","0.0-2.0-1.0-1.0-4.0","632f8a93e8ab0c12e145a101","C3","batch3","","1482.8000000715256","<p class = block-text>Correct! </p>","0","pattern_quiz_feedback","","","","","","","","","","","","","","","","","","","","","","","","",""
"","","","","","html-button-response","9","91240","0.0-2.0-2.0","632f8a93e8ab0c12e145a101","C3","batch3","","3599.600000023842","<p class=block-text> Now that you've understood the game, let's do a few practice trials before we start!<br> <br>","0","pattern_enter_practice","","","","","","","","","","","","","","","","","","","","","","","","",""
"","","","","","image-keyboard-response","10","93099","0.0-2.0-3.0-0.0","632f8a93e8ab0c12e145a101","C3","batch3","","1853.6000000238419","stim/prac_no_18_1.png","j","pattern_practice","true","j","","","","","","","","","","","","","","","","","","","","","","",""
"","","","","","html-keyboard-response","11","94126","0.0-2.0-3.0-1.0","632f8a93e8ab0c12e145a101","C3","batch3","","null","<p style=""font-size:30px;color:green;"">Correct!</p>","null","pattern_feedback","","","","","","","","","","","","","","","","","","","","","","","","",""
"","","","","","image-keyboard-response","12","94967","0.0-2.0-3.0-0.1","632f8a93e8ab0c12e145a101","C3","batch3","","839.6000000238419","stim/prac_yes_18_hor_w1.png","f","pattern_practice","true","f","","","","","","","","","","","","","","","","","","","","","","",""
"","","","","","html-keyboard-response","13","95992","0.0-2.0-3.0-1.1","632f8a93e8ab0c12e145a101","C3","batch3","","null","<p style=""font-size:30px;color:green;"">Correct!</p>","null","pattern_feedback","","","","","","","","","","","","","","","","","","","","","","","","",""
"","","","","","image-keyboard-response","14","97679","0.0-2.0-3.0-0.2","632f8a93e8ab0c12e145a101","C3","batch3","","1684.5","stim/prac_yes_20_dia_b1.png","f","pattern_practice","true","f","","","","","","","","","","","","","","","","","","","","","","",""
"","","","","","html-keyboard-response","15","98711","0.0-2.0-3.0-1.2","632f8a93e8ab0c12e145a101","C3","batch3","","null","<p style=""font-size:30px;color:green;"">Correct!</p>","null","pattern_feedback","","","","","","","","","","","","","","","","","","","","","","","","",""
"","","","","","image-keyboard-response","16","99797","0.0-2.0-3.0-0.3","632f8a93e8ab0c12e145a101","C3","batch3","","1082.8000000715256","stim/prac_yes_16_ver_w1.png","f","pattern_practice","true","f","","","","","","","","","","","","","","","","","","","","","","",""
"","","","","","html-keyboard-response","17","100815","0.0-2.0-3.0-1.3","632f8a93e8ab0c12e145a101","C3","batch3","","null","<p style=""font-size:30px;color:green;"">Correct!</p>","null","pattern_feedback","","","","","","","","","","","","","","","","","","","","","","","","",""
"","","","","","image-keyboard-response","18","101697","0.0-2.0-3.0-0.4","632f8a93e8ab0c12e145a101","C3","batch3","","879.3999999761581","stim/prac_no_16_1.png","f","pattern_practice","false","j","","","","","","","","","","","","","","","","","","","","","","",""
"","","","","","html-keyboard-response","19","102729","0.0-2.0-3.0-1.4","632f8a93e8ab0c12e145a101","C3","batch3","","null","<p style=""font-size:30px;color:red;"">Wrong.</p>","null","pattern_feedback","","","","","","","","","","","","","","","","","","","","","","","","",""
"","","","","","html-button-response","20","107201","0.0-2.0-4.0","632f8a93e8ab0c12e145a101","C3","batch3","","4470.200000047684","<p class=block-text> Good job! You are done with practice trials!<br>
        You responded correctly on 80% of the trials.<br>
        Press the button below to start official trials. Now you won't see any feedback about your response</p>","0","pattern_enter_official_trials","","","","","","","","","","","","","","","","","","","","","","","","",""
"","","","","","html-keyboard-response","21","108015","0.0-2.0-5.0-0.0","632f8a93e8ab0c12e145a101","C3","batch3","","null","<p class=block-text>Trial 1 out of 78</p>","null","pattern_show_trial_num","","","","","","","","","","","","","","","","","","","","","","","","",""
"","","","","","image-keyboard-response","22","108907","0.0-2.0-5.0-1.0","632f8a93e8ab0c12e145a101","C3","batch3","","887.7999999523163","stim/yes_39_hor_w1_w.png","f","pattern_response","true","f","pattern_62","887.7999999523163","true","1","","","","","","","","","","","","","","","","","","",""
"","","","","","html-keyboard-response","23","110235","0.0-2.0-5.0-0.1","632f8a93e8ab0c12e145a101","C3","batch3","","null","<p class=block-text>Trial 2 out of 78</p>","null","pattern_show_trial_num","","","","","","","","","","","","","","","","","","","","","","","","",""
"","","","","","image-keyboard-response","24","112398","0.0-2.0-5.0-1.1","632f8a93e8ab0c12e145a101","C3","batch3","","2160","stim/no_51_1.png","j","pattern_response","true","j","pattern_31","2160","true","2","","","","","","","","","","","","","","","","","","",""
"","","","","","html-keyboard-response","25","113707","0.0-2.0-5.0-0.2","632f8a93e8ab0c12e145a101","C3","batch3","","null","<p class=block-text>Trial 3 out of 78</p>","null","pattern_show_trial_num","","","","","","","","","","","","","","","","","","","","","","","","",""
"","","","","","image-keyboard-response","26","116669","0.0-2.0-5.0-1.2","632f8a93e8ab0c12e145a101","C3","batch3","","2958.3000000715256","stim/no_33_1_b.png","j","pattern_response","true","j","pattern_15","2958.3000000715256","true","3","","","","","","","","","","","","","","","","","","",""
"","","","","","html-keyboard-response","27","117988","0.0-2.0-5.0-0.3","632f8a93e8ab0c12e145a101","C3","batch3","","null","<p class=block-text>Trial 4 out of 78</p>","null","pattern_show_trial_num","","","","","","","","","","","","","","","","","","","","","","","","",""
"","","","","","image-keyboard-response","28","121417","0.0-2.0-5.0-1.3","632f8a93e8ab0c12e145a101","C3","batch3","","3425.2000000476837","stim/yes_51_dia_b1.png","f","pattern_response","true","f","pattern_72","3425.2000000476837","true","4","","","","","","","","","","","","","","","","","","",""
"","","","","","html-keyboard-response","29","122740","0.0-2.0-5.0-0.4","632f8a93e8ab0c12e145a101","C3","batch3","","null","<p class=block-text>Trial 5 out of 78</p>","null","pattern_show_trial_num","","","","","","","","","","","","","","","","","","","","","","","","",""
"","","","","","image-keyboard-response","30","124171","0.0-2.0-5.0-1.4","632f8a93e8ab0c12e145a101","C3","batch3","","1427.1000000238419","stim/yes_23_ver_b1.png","f","pattern_response","true","f","pattern_48","1427.1000000238419","true","5","","","","","","","","","","","","","","","","","","",""
"","","","","","html-keyboard-response","31","125489","0.0-2.0-5.0-0.5","632f8a93e8ab0c12e145a101","C3","batch3","","null","<p class=block-text>Trial 6 out of 78</p>","null","pattern_show_trial_num","","","","","","","","","","","","","","","","","","","","","","","","",""
"","","","","","image-keyboard-response","32","127408","0.0-2.0-5.0-1.5","632f8a93e8ab0c12e145a101","C3","batch3","","1916.2000000476837","stim/yes_37_hor_w1_w.png","f","pattern_response","true","f","pattern_60","1916.2000000476837","true","6","","","","","","","","","","","","","","","","","","",""
"","","","","","html-keyboard-response","33","128728","0.0-2.0-5.0-0.6","632f8a93e8ab0c12e145a101","C3","batch3","","null","<p class=block-text>Trial 7 out of 78</p>","null","pattern_show_trial_num","","","","","","","","","","","","","","","","","","","","","","","","",""
"","","","","","image-keyboard-response","34","133652","0.0-2.0-5.0-1.6","632f8a93e8ab0c12e145a101","C3","batch3","","4920.600000023842","stim/no_53_1_b.png","j","pattern_response","true","j","pattern_33","4920.600000023842","true","7","","","","","","","","","","","","","","","","","","",""
"","","","","","html-keyboard-response","35","134981","0.0-2.0-5.0-0.7","632f8a93e8ab0c12e145a101","C3","batch3","","null","<p class=block-text>Trial 8 out of 78</p>","null","pattern_show_trial_num","","","","","","","","","","","","","","","","","","","","","","","","",""
"","","","","","image-keyboard-response","36","136569","0.0-2.0-5.0-1.7","632f8a93e8ab0c12e145a101","C3","batch3","","1584.6000000238419","stim/yes_12_hor_w1_w.png","f","pattern_response","true","f","pattern_42","1584.6000000238419","true","8","","","","","","","","","","","","","","","","","","",""
"","","","","","html-keyboard-response","37","137896","0.0-2.0-5.0-0.8","632f8a93e8ab0c12e145a101","C3","batch3","","null","<p class=block-text>Trial 9 out of 78</p>","null","pattern_show_trial_num","","","","","","","","","","","","","","","","","","","","","","","","",""
"","","","","","image-keyboard-response","38","139420","0.0-2.0-5.0-1.8","632f8a93e8ab0c12e145a101","C3","batch3","","1520.8999999761581","stim/yes_70_ver_b1.png","f","pattern_response","true","f","pattern_80","1520.8999999761581","true","9","","","","","","","","","","","","","","","","","","",""
"","","","","","html-keyboard-response","39","140735","0.0-2.0-5.0-0.9","632f8a93e8ab0c12e145a101","C3","batch3","","null","<p class=block-text>Trial 10 out of 78</p>","null","pattern_show_trial_num","","","","","","","","","","","","","","","","","","","","","","","","",""
"","","","","","image-keyboard-response","40","141651","0.0-2.0-5.0-1.9","632f8a93e8ab0c12e145a101","C3","batch3","","912.3000000715256","stim/yes_46_ver_b1_b.png","f","pattern_response","true","f","pattern_68","912.3000000715256","true","10","","","","","","","","","","","","","","","","","","",""
"","","","","","html-keyboard-response","41","142970","0.0-2.0-5.0-0.10","632f8a93e8ab0c12e145a101","C3","batch3","","null","<p class=block-text>Trial 11 out of 78</p>","null","pattern_show_trial_num","","","","","","","","","","","","","","","","","","","","","","","","",""
"","","","","","image-keyboard-response","42","144003","0.0-2.0-5.0-1.10","632f8a93e8ab0c12e145a101","C3","batch3","","1030.3999999761581","stim/yes_44_ver_w1_w.png","f","pattern_response","true","f","pattern_66","1030.3999999761581","true","11","","","","","","","","","","","","","","","","","","",""
"","","","","","html-keyboard-response","43","145318","0.0-2.0-5.0-0.11","632f8a93e8ab0c12e145a101","C3","batch3","","null","<p class=block-text>Trial 12 out of 78</p>","null","pattern_show_trial_num","","","","","","","","","","","","","","","","","","","","","","","","",""
"","","","","","image-keyboard-response","44","148449","0.0-2.0-5.0-1.11","632f8a93e8ab0c12e145a101","C3","batch3","","3128.3000000715256","stim/no_28_2.png","j","pattern_response","true","j","pattern_11","3128.3000000715256","true","12","","","","","","","","","","","","","","","","","","",""
"","","","","","html-keyboard-response","45","149770","0.0-2.0-5.0-0.12","632f8a93e8ab0c12e145a101","C3","batch3","","null","<p class=block-text>Trial 13 out of 78</p>","null","pattern_show_trial_num","","","","","","","","","","","","","","","","","","","","","","","","",""
"","","","","","image-keyboard-response","46","152882","0.0-2.0-5.0-1.12","632f8a93e8ab0c12e145a101","C3","batch3","","3109","stim/no_43_2_b.png","j","pattern_response","true","j","pattern_23","3109","true","13","","","","","","","","","","","","","","","","","","",""
"","","","","","html-keyboard-response","47","154206","0.0-2.0-5.0-0.13","632f8a93e8ab0c12e145a101","C3","batch3","","null","<p class=block-text>Trial 14 out of 78</p>","null","pattern_show_trial_num","","","","","","","","","","","","","","","","","","","","","","","","",""
"","","","","","image-keyboard-response","48","156203","0.0-2.0-5.0-1.13","632f8a93e8ab0c12e145a101","C3","batch3","","1993.2000000476837","stim/no_15_1_w.png","j","pattern_response","true","j","pattern_03","1993.2000000476837","true","14","","","","","","","","","","","","","","","","","","",""
"","","","","","html-keyboard-response","49","157511","0.0-2.0-5.0-0.14","632f8a93e8ab0c12e145a101","C3","batch3","","null","<p class=block-text>Trial 15 out of 78</p>","null","pattern_show_trial_num","","","","","","","","","","","","","","","","","","","","","","","","",""
"","","","","","image-keyboard-response","50","158773","0.0-2.0-5.0-1.14","632f8a93e8ab0c12e145a101","C3","batch3","","1257.6999999284744","stim/yes_26_dia_w2_w.png","f","pattern_response","true","f","pattern_50","1257.6999999284744","true","15","","","","","","","","","","","","","","","","","","",""
"","","","","","html-keyboard-response","51","160092","0.0-2.0-5.0-0.15","632f8a93e8ab0c12e145a101","C3","batch3","","null","<p class=block-text>Trial 16 out of 78</p>","null","pattern_show_trial_num","","","","","","","","","","","","","","","","","","","","","","","","",""
"","","","","","image-keyboard-response","52","162497","0.0-2.0-5.0-1.15","632f8a93e8ab0c12e145a101","C3","batch3","","2403.3000000715256","stim/yes_33_dia_w1_w.png","f","pattern_response","true","f","pattern_56","2403.3000000715256","true","16","","","","","","","","","","","","","","","","","","",""
"","","","","","html-keyboard-response","53","163824","0.0-2.0-5.0-0.16","632f8a93e8ab0c12e145a101","C3","batch3","","null","<p class=block-text>Trial 17 out of 78</p>","null","pattern_show_trial_num","","","","","","","","","","","","","","","","","","","","","","","","",""
"","","","","","image-keyboard-response","54","167250","0.0-2.0-5.0-1.16","632f8a93e8ab0c12e145a101","C3","batch3","","3423","stim/no_25_1_b.png","j","pattern_response","true","j","pattern_09","3423","true","17","","","","","","","","","","","","","","","","","","",""
"","","","","","html-keyboard-response","55","168566","0.0-2.0-5.0-0.17","632f8a93e8ab0c12e145a101","C3","batch3","","null","<p class=block-text>Trial 18 out of 78</p>","null","pattern_show_trial_num","","","","","","","","","","","","","","","","","","","","","","","","",""
"","","","","","image-keyboard-response","56","169980","0.0-2.0-5.0-1.17","632f8a93e8ab0c12e145a101","C3","batch3","","1411.8000000715256","stim/yes_49_hor_w1_b.png","f","pattern_response","true","f","pattern_70","1411.8000000715256","true","18","","","","","","","","","","","","","","","","","","",""
"","","","","","html-keyboard-response","57","171296","0.0-2.0-5.0-0.18","632f8a93e8ab0c12e145a101","C3","batch3","","null","<p class=block-text>Trial 19 out of 78</p>","null","pattern_show_trial_num","","","","","","","","","","","","","","","","","","","","","","","","",""
"","","","","","image-keyboard-response","58","174050","0.0-2.0-5.0-1.18","632f8a93e8ab0c12e145a101","C3","batch3","","2752.6999999284744","stim/no_18_1_b.png","j","pattern_response","true","j","pattern_05","2752.6999999284744","true","19","","","","","","","","","","","","","","","","","","",""
"","","","","","html-keyboard-response","59","175381","0.0-2.0-5.0-0.19","632f8a93e8ab0c12e145a101","C3","batch3","","null","<p class=block-text>Trial 20 out of 78</p>","null","pattern_show_trial_num","","","","","","","","","","","","","","","","","","","","","","","","",""
"","","","","","image-keyboard-response","60","176513","0.0-2.0-5.0-1.19","632f8a93e8ab0c12e145a101","C3","batch3","","1128.0999999046326","stim/yes_15_dia_b1u_b.png","f","pattern_response","true","f","pattern_44","1128.0999999046326","true","20","","","","","","","","","","","","","","","","","","",""
"","","","","","html-keyboard-response","61","177841","0.0-2.0-5.0-0.20","632f8a93e8ab0c12e145a101","C3","batch3","","null","<p class=block-text>Trial 21 out of 78</p>","null","pattern_show_trial_num","","","","","","","","","","","","","","","","","","","","","","","","",""
"","","","","","image-keyboard-response","62","181778","0.0-2.0-5.0-1.20","632f8a93e8ab0c12e145a101","C3","batch3","","3934.5","stim/no_67_1.png","j","pattern_response","true","j","pattern_39","3934.5","true","21","","","","","","","","","","","","","","","","","","",""
"","","","","","html-keyboard-response","63","183104","0.0-2.0-5.0-0.21","632f8a93e8ab0c12e145a101","C3","batch3","","null","<p class=block-text>Trial 22 out of 78</p>","null","pattern_show_trial_num","","","","","","","","","","","","","","","","","","","","","","","","",""
"","","","","","image-keyboard-response","64","185319","0.0-2.0-5.0-1.21","632f8a93e8ab0c12e145a101","C3","batch3","","2212.899999976158","stim/no_22_1_b.png","j","pattern_response","true","j","pattern_07","2212.899999976158","true","22","","","","","","","","","","","","","","","","","","",""
"","","","","","html-keyboard-response","65","186637","0.0-2.0-5.0-0.22","632f8a93e8ab0c12e145a101","C3","batch3","","null","<p class=block-text>Trial 23 out of 78</p>","null","pattern_show_trial_num","","","","","","","","","","","","","","","","","","","","","","","","",""
"","","","","","image-keyboard-response","66","190888","0.0-2.0-5.0-1.22","632f8a93e8ab0c12e145a101","C3","batch3","","4248.800000071526","stim/no_47_1_b.png","j","pattern_response","true","j","pattern_27","4248.800000071526","true","23","","","","","","","","","","","","","","","","","","",""
"","","","","","html-keyboard-response","67","192206","0.0-2.0-5.0-0.23","632f8a93e8ab0c12e145a101","C3","batch3","","null","<p class=block-text>Trial 24 out of 78</p>","null","pattern_show_trial_num","","","","","","","","","","","","","","","","","","","","","","","","",""
"","","","","","image-keyboard-response","68","195725","0.0-2.0-5.0-1.23","632f8a93e8ab0c12e145a101","C3","batch3","","3516","stim/no_49_2_b.png","j","pattern_response","true","j","pattern_29","3516","true","24","","","","","","","","","","","","","","","","","","",""
"","","","","","html-keyboard-response","69","197045","0.0-2.0-5.0-0.24","632f8a93e8ab0c12e145a101","C3","batch3","","null","<p class=block-text>Trial 25 out of 78</p>","null","pattern_show_trial_num","","","","","","","","","","","","","","","","","","","","","","","","",""
"","","","","","image-keyboard-response","70","201148","0.0-2.0-5.0-1.24","632f8a93e8ab0c12e145a101","C3","batch3","","4099.5","stim/yes_53_ver_b1_b.png","j","pattern_response","false","f","pattern_74","4099.5","false","24","","","","","","","","","","","","","","","","","","",""
"","","","","","html-keyboard-response","71","202478","0.0-2.0-5.0-0.25","632f8a93e8ab0c12e145a101","C3","batch3","","null","<p class=block-text>Trial 26 out of 78</p>","null","pattern_show_trial_num","","","","","","","","","","","","","","","","","","","","","","","","",""
"","","","","","image-keyboard-response","72","206953","0.0-2.0-5.0-1.25","632f8a93e8ab0c12e145a101","C3","batch3","","4471.899999976158","stim/no_45_1_w.png","j","pattern_response","true","j","pattern_25","4471.899999976158","true","25","","","","","","","","","","","","","","","","","","",""
"","","","","","html-keyboard-response","73","208268","0.0-2.0-5.0-0.26","632f8a93e8ab0c12e145a101","C3","batch3","","null","<p class=block-text>Trial 27 out of 78</p>","null","pattern_show_trial_num","","","","","","","","","","","","","","","","","","","","","","","","",""
"","","","","","image-keyboard-response","74","213819","0.0-2.0-5.0-1.26","632f8a93e8ab0c12e145a101","C3","batch3","","5547.100000023842","stim/no_58_1_w.png","j","pattern_response","true","j","pattern_35","5547.100000023842","true","26","","","","","","","","","","","","","","","","","","",""
"","","","","","html-keyboard-response","75","215143","0.0-2.0-5.0-0.27","632f8a93e8ab0c12e145a101","C3","batch3","","null","<p class=block-text>Trial 28 out of 78</p>","null","pattern_show_trial_num","","","","","","","","","","","","","","","","","","","","","","","","",""
"","","","","","image-keyboard-response","76","216531","0.0-2.0-5.0-1.27","632f8a93e8ab0c12e145a101","C3","batch3","","1383.2000000476837","stim/no_12_1.png","j","pattern_response","true","j","pattern_01","1383.2000000476837","true","27","","","","","","","","","","","","","","","","","","",""
"","","","","","html-keyboard-response","77","217840","0.0-2.0-5.0-0.28","632f8a93e8ab0c12e145a101","C3","batch3","","null","<p class=block-text>Trial 29 out of 78</p>","null","pattern_show_trial_num","","","","","","","","","","","","","","","","","","","","","","","","",""
"","","","","","image-keyboard-response","78","218885","0.0-2.0-5.0-1.28","632f8a93e8ab0c12e145a101","C3","batch3","","1042.6999999284744","stim/yes_17_ver_b1_b.png","f","pattern_response","true","f","pattern_46","1042.6999999284744","true","28","","","","","","","","","","","","","","","","","","",""
"","","","","","html-keyboard-response","79","220204","0.0-2.0-5.0-0.29","632f8a93e8ab0c12e145a101","C3","batch3","","null","<p class=block-text>Trial 30 out of 78</p>","null","pattern_show_trial_num","","","","","","","","","","","","","","","","","","","","","","","","",""
"","","","","","image-keyboard-response","80","224133","0.0-2.0-5.0-1.29","632f8a93e8ab0c12e145a101","C3","batch3","","3926.5","stim/no_30_1_b.png","j","pattern_response","true","j","pattern_13","3926.5","true","29","","","","","","","","","","","","","","","","","","",""
"","","","","","html-keyboard-response","81","225459","0.0-2.0-5.0-0.30","632f8a93e8ab0c12e145a101","C3","batch3","","null","<p class=block-text>Trial 31 out of 78</p>","null","pattern_show_trial_num","","","","","","","","","","","","","","","","","","","","","","","","",""
"","","","","","image-keyboard-response","82","229492","0.0-2.0-5.0-1.30","632f8a93e8ab0c12e145a101","C3","batch3","","4029.399999976158","stim/yes_36_ver_w1_w.png","j","pattern_response","false","f","pattern_58","4029.399999976158","false","29","","","","","","","","","","","","","","","","","","",""
"","","","","","html-keyboard-response","83","230811","0.0-2.0-5.0-0.31","632f8a93e8ab0c12e145a101","C3","batch3","","null","<p class=block-text>Trial 32 out of 78</p>","null","pattern_show_trial_num","","","","","","","","","","","","","","","","","","","","","","","","",""
"","","","","","image-keyboard-response","84","234647","0.0-2.0-5.0-1.31","632f8a93e8ab0c12e145a101","C3","batch3","","3833.5","stim/yes_58_dia_w1_w.png","f","pattern_response","true","f","pattern_76","3833.5","true","30","","","","","","","","","","","","","","","","","","",""
"","","","","","html-keyboard-response","85","235966","0.0-2.0-5.0-0.32","632f8a93e8ab0c12e145a101","C3","batch3","","null","<p class=block-text>Trial 33 out of 78</p>","null","pattern_show_trial_num","","","","","","","","","","","","","","","","","","","","","","","","",""
"","","","","","image-keyboard-response","86","239454","0.0-2.0-5.0-1.32","632f8a93e8ab0c12e145a101","C3","batch3","","3484.399999976158","stim/no_36_1_b.png","j","pattern_response","true","j","pattern_17","3484.399999976158","true","31","","","","","","","","","","","","","","","","","","",""
"","","","","","html-keyboard-response","87","240782","0.0-2.0-5.0-0.33","632f8a93e8ab0c12e145a101","C3","batch3","","null","<p class=block-text>Trial 34 out of 78</p>","null","pattern_show_trial_num","","","","","","","","","","","","","","","","","","","","","","","","",""
"","","","","","image-keyboard-response","88","244754","0.0-2.0-5.0-1.33","632f8a93e8ab0c12e145a101","C3","batch3","","3969","stim/no_37_2_w.png","j","pattern_response","true","j","pattern_19","3969","true","32","","","","","","","","","","","","","","","","","","",""
"","","","","","html-keyboard-response","89","246084","0.0-2.0-5.0-0.34","632f8a93e8ab0c12e145a101","C3","batch3","","null","<p class=block-text>Trial 35 out of 78</p>","null","pattern_show_trial_num","","","","","","","","","","","","","","","","","","","","","","","","",""
"","","","","","image-keyboard-response","90","247328","0.0-2.0-5.0-1.34","632f8a93e8ab0c12e145a101","C3","batch3","","1243","stim/yes_30_ver_b1_b.png","f","pattern_response","true","f","pattern_54","1243","true","33","","","","","","","","","","","","","","","","","","",""
"","","","","","html-keyboard-response","91","248653","0.0-2.0-5.0-0.35","632f8a93e8ab0c12e145a101","C3","batch3","","null","<p class=block-text>Trial 36 out of 78</p>","null","pattern_show_trial_num","","","","","","","","","","","","","","","","","","","","","","","","",""
"","","","","","image-keyboard-response","92","252074","0.0-2.0-5.0-1.35","632f8a93e8ab0c12e145a101","C3","batch3","","3419.7999999523163","stim/yes_42_dia_w1_w.png","f","pattern_response","true","f","pattern_64","3419.7999999523163","true","34","","","","","","","","","","","","","","","","","","",""
"","","","","","html-keyboard-response","93","253391","0.0-2.0-5.0-0.36","632f8a93e8ab0c12e145a101","C3","batch3","","null","<p class=block-text>Trial 37 out of 78</p>","null","pattern_show_trial_num","","","","","","","","","","","","","","","","","","","","","","","","",""
"","","","","","image-keyboard-response","94","255365","0.0-2.0-5.0-1.36","632f8a93e8ab0c12e145a101","C3","batch3","","1969.2000000476837","stim/yes_29_hor_b1_b.png","f","pattern_response","true","f","pattern_52","1969.2000000476837","true","35","","","","","","","","","","","","","","","","","","",""
"","","","","","html-keyboard-response","95","256692","0.0-2.0-5.0-0.37","632f8a93e8ab0c12e145a101","C3","batch3","","null","<p class=block-text>Trial 38 out of 78</p>","null","pattern_show_trial_num","","","","","","","","","","","","","","","","","","","","","","","","",""
"","","","","","image-keyboard-response","96","262559","0.0-2.0-5.0-1.37","632f8a93e8ab0c12e145a101","C3","batch3","","5865.399999976158","stim/yes_63_dia_b1.png","j","pattern_response","false","f","pattern_78","5865.399999976158","false","35","","","","","","","","","","","","","","","","","","",""
"","","","","","html-keyboard-response","97","263878","0.0-2.0-5.0-0.38","632f8a93e8ab0c12e145a101","C3","batch3","","null","<p class=block-text>Trial 39 out of 78</p>","null","pattern_show_trial_num","","","","","","","","","","","","","","","","","","","","","","","","",""
"","","","","","image-keyboard-response","98","267624","0.0-2.0-5.0-1.38","632f8a93e8ab0c12e145a101","C3","batch3","","3742.7999999523163","stim/no_39_1_w.png","j","pattern_response","true","j","pattern_21","3742.7999999523163","true","36","","","","","","","","","","","","","","","","","","",""
"","","","","","image-keyboard-response","99","269897","0.0-2.0-6.0","632f8a93e8ab0c12e145a101","C3","batch3","","1764.8999999761581","stim/empty_board.png","j","attention_check","true","j","","","","","500","[""f"",""j""]","","","","","","","","","","","","","","","","",""
"","","","","","html-keyboard-response","100","270702","0.0-2.0-7.0-0.0","632f8a93e8ab0c12e145a101","C3","batch3","","null","<p class=block-text>Trial 40 out of 78</p>","null","pattern_show_trial_num","","","","","","","","","","","","","","","","","","","","","","","","",""
"","","","","","image-keyboard-response","101","275500","0.0-2.0-7.0-1.0","632f8a93e8ab0c12e145a101","C3","batch3","","4794.700000047684","stim/yes_40_dia_b1_b.png","j","pattern_response","false","f","pattern_63","4794.700000047684","false","36","","","","","","","","","","","","","","","","","","",""
"","","","","","html-keyboard-response","102","276817","0.0-2.0-7.0-0.1","632f8a93e8ab0c12e145a101","C3","batch3","","null","<p class=block-text>Trial 41 out of 78</p>","null","pattern_show_trial_num","","","","","","","","","","","","","","","","","","","","","","","","",""
"","","","","","image-keyboard-response","103","280804","0.0-2.0-7.0-1.1","632f8a93e8ab0c12e145a101","C3","batch3","","3983.5","stim/no_50_1.png","j","pattern_response","true","j","pattern_30","3983.5","true","37","","","","","","","","","","","","","","","","","","",""
"","","","","","html-keyboard-response","104","282127","0.0-2.0-7.0-0.2","632f8a93e8ab0c12e145a101","C3","batch3","","null","<p class=block-text>Trial 42 out of 78</p>","null","pattern_show_trial_num","","","","","","","","","","","","","","","","","","","","","","","","",""
"","","","","","image-keyboard-response","105","286470","0.0-2.0-7.0-1.2","632f8a93e8ab0c12e145a101","C3","batch3","","4340.400000095367","stim/yes_60_ver_b1_b.png","f","pattern_response","true","f","pattern_77","4340.400000095367","true","38","","","","","","","","","","","","","","","","","","",""
"","","","","","html-keyboard-response","106","287788","0.0-2.0-7.0-0.3","632f8a93e8ab0c12e145a101","C3","batch3","","null","<p class=block-text>Trial 43 out of 78</p>","null","pattern_show_trial_num","","","","","","","","","","","","","","","","","","","","","","","","",""
"","","","","","image-keyboard-response","107","292623","0.0-2.0-7.0-1.3","632f8a93e8ab0c12e145a101","C3","batch3","","4831.600000023842","stim/no_70_2.png","j","pattern_response","true","j","pattern_40","4831.600000023842","true","39","","","","","","","","","","","","","","","","","","",""
"","","","","","html-keyboard-response","108","293940","0.0-2.0-7.0-0.4","632f8a93e8ab0c12e145a101","C3","batch3","","null","<p class=block-text>Trial 44 out of 78</p>","null","pattern_show_trial_num","","","","","","","","","","","","","","","","","","","","","","","","",""
"","","","","","image-keyboard-response","109","295070","0.0-2.0-7.0-1.4","632f8a93e8ab0c12e145a101","C3","batch3","","1126.6000000238419","stim/yes_28_ver_b1.png","f","pattern_response","true","f","pattern_51","1126.6000000238419","true","40","","","","","","","","","","","","","","","","","","",""
"","","","","","html-keyboard-response","110","296394","0.0-2.0-7.0-0.5","632f8a93e8ab0c12e145a101","C3","batch3","","null","<p class=block-text>Trial 45 out of 78</p>","null","pattern_show_trial_num","","","","","","","","","","","","","","","","","","","","","","","","",""
"","","","","","image-keyboard-response","111","298055","0.0-2.0-7.0-1.5","632f8a93e8ab0c12e145a101","C3","batch3","","1657.6000000238419","stim/yes_43_ver_w1_w.png","f","pattern_response","true","f","pattern_65","1657.6000000238419","true","41","","","","","","","","","","","","","","","","","","",""
"","","","","","html-keyboard-response","112","299376","0.0-2.0-7.0-0.6","632f8a93e8ab0c12e145a101","C3","batch3","","null","<p class=block-text>Trial 46 out of 78</p>","null","pattern_show_trial_num","","","","","","","","","","","","","","","","","","","","","","","","",""
"","","","","","image-keyboard-response","113","304091","0.0-2.0-7.0-1.6","632f8a93e8ab0c12e145a101","C3","batch3","","4711.300000071526","stim/no_48_1_w.png","j","pattern_response","true","j","pattern_28","4711.300000071526","true","42","","","","","","","","","","","","","","","","","","",""
"","","","","","html-keyboard-response","114","305413","0.0-2.0-7.0-0.7","632f8a93e8ab0c12e145a101","C3","batch3","","null","<p class=block-text>Trial 47 out of 78</p>","null","pattern_show_trial_num","","","","","","","","","","","","","","","","","","","","","","","","",""
"","","","","","image-keyboard-response","115","309400","0.0-2.0-7.0-1.7","632f8a93e8ab0c12e145a101","C3","batch3","","3983.399999976158","stim/no_34_1_b.png","j","pattern_response","true","j","pattern_16","3983.399999976158","true","43","","","","","","","","","","","","","","","","","","",""
"","","","","","html-keyboard-response","116","310717","0.0-2.0-7.0-0.8","632f8a93e8ab0c12e145a101","C3","batch3","","null","<p class=block-text>Trial 48 out of 78</p>","null","pattern_show_trial_num","","","","","","","","","","","","","","","","","","","","","","","","",""
"","","","","","image-keyboard-response","117","312470","0.0-2.0-7.0-1.8","632f8a93e8ab0c12e145a101","C3","batch3","","1749.7000000476837","stim/no_13_2_b.png","j","pattern_response","true","j","pattern_02","1749.7000000476837","true","44","","","","","","","","","","","","","","","","","","",""
"","","","","","html-keyboard-response","118","313800","0.0-2.0-7.0-0.9","632f8a93e8ab0c12e145a101","C3","batch3","","null","<p class=block-text>Trial 49 out of 78</p>","null","pattern_show_trial_num","","","","","","","","","","","","","","","","","","","","","","","","",""
"","","","","","image-keyboard-response","119","314858","0.0-2.0-7.0-1.9","632f8a93e8ab0c12e145a101","C3","batch3","","1055.3999999761581","stim/yes_22_ver_w1.png","f","pattern_response","true","f","pattern_47","1055.3999999761581","true","45","","","","","","","","","","","","","","","","","","",""
"","","","","","html-keyboard-response","120","316174","0.0-2.0-7.0-0.10","632f8a93e8ab0c12e145a101","C3","batch3","","null","<p class=block-text>Trial 50 out of 78</p>","null","pattern_show_trial_num","","","","","","","","","","","","","","","","","","","","","","","","",""
"","","","","","image-keyboard-response","121","320101","0.0-2.0-7.0-1.10","632f8a93e8ab0c12e145a101","C3","batch3","","3924.5","stim/no_20_1_w.png","j","pattern_response","true","j","pattern_06","3924.5","true","46","","","","","","","","","","","","","","","","","","",""
"","","","","","html-keyboard-response","122","321424","0.0-2.0-7.0-0.11","632f8a93e8ab0c12e145a101","C3","batch3","","null","<p class=block-text>Trial 51 out of 78</p>","null","pattern_show_trial_num","","","","","","","","","","","","","","","","","","","","","","","","",""
"","","","","","image-keyboard-response","123","325697","0.0-2.0-7.0-1.11","632f8a93e8ab0c12e145a101","C3","batch3","","4271.399999976158","stim/no_29_1_b.png","j","pattern_response","true","j","pattern_12","4271.399999976158","true","47","","","","","","","","","","","","","","","","","","",""
"","","","","","html-keyboard-response","124","327022","0.0-2.0-7.0-0.12","632f8a93e8ab0c12e145a101","C3","batch3","","null","<p class=block-text>Trial 52 out of 78</p>","null","pattern_show_trial_num","","","","","","","","","","","","","","","","","","","","","","","","",""
"","","","","","image-keyboard-response","125","329925","0.0-2.0-7.0-1.12","632f8a93e8ab0c12e145a101","C3","batch3","","2899.2999999523163","stim/yes_35_dia_b1.png","f","pattern_response","true","f","pattern_57","2899.2999999523163","true","48","","","","","","","","","","","","","","","","","","",""
"","","","","","html-keyboard-response","126","331245","0.0-2.0-7.0-0.13","632f8a93e8ab0c12e145a101","C3","batch3","","null","<p class=block-text>Trial 53 out of 78</p>","null","pattern_show_trial_num","","","","","","","","","","","","","","","","","","","","","","","","",""
"","","","","","image-keyboard-response","127","336957","0.0-2.0-7.0-1.13","632f8a93e8ab0c12e145a101","C3","batch3","","5708.399999976158","stim/yes_48_dia_w1_w.png","f","pattern_response","true","f","pattern_69","5708.399999976158","true","49","","","","","","","","","","","","","","","","","","",""
"","","","","","html-keyboard-response","128","338284","0.0-2.0-7.0-0.14","632f8a93e8ab0c12e145a101","C3","batch3","","null","<p class=block-text>Trial 54 out of 78</p>","null","pattern_show_trial_num","","","","","","","","","","","","","","","","","","","","","","","","",""
"","","","","","image-keyboard-response","129","339285","0.0-2.0-7.0-1.14","632f8a93e8ab0c12e145a101","C3","batch3","","997.1000000238419","stim/yes_14_hor_b1_w.png","f","pattern_response","true","f","pattern_43","997.1000000238419","true","50","","","","","","","","","","","","","","","","","","",""
"","","","","","html-keyboard-response","130","340600","0.0-2.0-7.0-0.15","632f8a93e8ab0c12e145a101","C3","batch3","","null","<p class=block-text>Trial 55 out of 78</p>","null","pattern_show_trial_num","","","","","","","","","","","","","","","","","","","","","","","","",""
"","","","","","image-keyboard-response","131","343618","0.0-2.0-7.0-1.15","632f8a93e8ab0c12e145a101","C3","batch3","","3015.6999999284744","stim/no_23_1.png","j","pattern_response","true","j","pattern_08","3015.6999999284744","true","51","","","","","","","","","","","","","","","","","","",""
"","","","","","html-keyboard-response","132","344932","0.0-2.0-7.0-0.16","632f8a93e8ab0c12e145a101","C3","batch3","","null","<p class=block-text>Trial 56 out of 78</p>","null","pattern_show_trial_num","","","","","","","","","","","","","","","","","","","","","","","","",""
"","","","","","image-keyboard-response","133","352282","0.0-2.0-7.0-1.16","632f8a93e8ab0c12e145a101","C3","batch3","","7346.199999928474","stim/no_62_1_w.png","j","pattern_response","true","j","pattern_36","7346.199999928474","true","52","","","","","","","","","","","","","","","","","","",""
"","","","","","html-keyboard-response","134","353591","0.0-2.0-7.0-0.17","632f8a93e8ab0c12e145a101","C3","batch3","","null","<p class=block-text>Trial 57 out of 78</p>","null","pattern_show_trial_num","","","","","","","","","","","","","","","","","","","","","","","","",""
"","","","","","image-keyboard-response","135","359323","0.0-2.0-7.0-1.17","632f8a93e8ab0c12e145a101","C3","batch3","","5729.200000047684","stim/no_42_1_w.png","j","pattern_response","true","j","pattern_22","5729.200000047684","true","53","","","","","","","","","","","","","","","","","","",""
"","","","","","html-keyboard-response","136","360632","0.0-2.0-7.0-0.18","632f8a93e8ab0c12e145a101","C3","batch3","","null","<p class=block-text>Trial 58 out of 78</p>","null","pattern_show_trial_num","","","","","","","","","","","","","","","","","","","","","","","","",""
"","","","","","image-keyboard-response","137","366352","0.0-2.0-7.0-1.18","632f8a93e8ab0c12e145a101","C3","batch3","","5714.899999976158","stim/no_36_2_w.png","j","pattern_response","true","j","pattern_18","5714.899999976158","true","54","","","","","","","","","","","","","","","","","","",""
"","","","","","html-keyboard-response","138","367681","0.0-2.0-7.0-0.19","632f8a93e8ab0c12e145a101","C3","batch3","","null","<p class=block-text>Trial 59 out of 78</p>","null","pattern_show_trial_num","","","","","","","","","","","","","","","","","","","","","","","","",""
"","","","","","image-keyboard-response","139","371457","0.0-2.0-7.0-1.19","632f8a93e8ab0c12e145a101","C3","batch3","","3772.0999999046326","stim/no_26_1_w.png","j","pattern_response","true","j","pattern_10","3772.0999999046326","true","55","","","","","","","","","","","","","","","","","","",""
"","","","","","html-keyboard-response","140","372783","0.0-2.0-7.0-0.20","632f8a93e8ab0c12e145a101","C3","batch3","","null","<p class=block-text>Trial 60 out of 78</p>","null","pattern_show_trial_num","","","","","","","","","","","","","","","","","","","","","","","","",""
"","","","","","image-keyboard-response","141","374414","0.0-2.0-7.0-1.20","632f8a93e8ab0c12e145a101","C3","batch3","","1627","stim/yes_45_hor_b2_b.png","f","pattern_response","true","f","pattern_67","1627","true","56","","","","","","","","","","","","","","","","","","",""
"","","","","","html-keyboard-response","142","375722","0.0-2.0-7.0-0.21","632f8a93e8ab0c12e145a101","C3","batch3","","null","<p class=block-text>Trial 61 out of 78</p>","null","pattern_show_trial_num","","","","","","","","","","","","","","","","","","","","","","","","",""
"","","","","","image-keyboard-response","143","379934","0.0-2.0-7.0-1.21","632f8a93e8ab0c12e145a101","C3","batch3","","4208.900000095367","stim/yes_52_ver_w1.png","f","pattern_response","true","f","pattern_73","4208.900000095367","true","57","","","","","","","","","","","","","","","","","","",""
"","","","","","html-keyboard-response","144","381256","0.0-2.0-7.0-0.22","632f8a93e8ab0c12e145a101","C3","batch3","","null","<p class=block-text>Trial 62 out of 78</p>","null","pattern_show_trial_num","","","","","","","","","","","","","","","","","","","","","","","","",""
"","","","","","image-keyboard-response","145","382070","0.0-2.0-7.0-1.22","632f8a93e8ab0c12e145a101","C3","batch3","","810.5999999046326","stim/yes_25_hor_b1_b.png","f","pattern_response","true","f","pattern_49","810.5999999046326","true","58","","","","","","","","","","","","","","","","","","",""
"","","","","","html-keyboard-response","146","383374","0.0-2.0-7.0-0.23","632f8a93e8ab0c12e145a101","C3","batch3","","null","<p class=block-text>Trial 63 out of 78</p>","null","pattern_show_trial_num","","","","","","","","","","","","","","","","","","","","","","","","",""
"","","","","","image-keyboard-response","147","389240","0.0-2.0-7.0-1.23","632f8a93e8ab0c12e145a101","C3","batch3","","5863.600000023842","stim/yes_50_dia_w1.png","j","pattern_response","false","f","pattern_71","5863.600000023842","false","58","","","","","","","","","","","","","","","","","","",""
"","","","","","html-keyboard-response","148","390557","0.0-2.0-7.0-0.24","632f8a93e8ab0c12e145a101","C3","batch3","","null","<p class=block-text>Trial 64 out of 78</p>","null","pattern_show_trial_num","","","","","","","","","","","","","","","","","","","","","","","","",""
"","","","","","image-keyboard-response","149","397469","0.0-2.0-7.0-1.24","632f8a93e8ab0c12e145a101","C3","batch3","","6907.800000071526","stim/no_65_1_b.png","j","pattern_response","true","j","pattern_38","6907.800000071526","true","59","","","","","","","","","","","","","","","","","","",""
"","","","","","html-keyboard-response","150","398793","0.0-2.0-7.0-0.25","632f8a93e8ab0c12e145a101","C3","batch3","","null","<p class=block-text>Trial 65 out of 78</p>","null","pattern_show_trial_num","","","","","","","","","","","","","","","","","","","","","","","","",""
"","","","","","image-keyboard-response","151","399954","0.0-2.0-7.0-1.25","632f8a93e8ab0c12e145a101","C3","batch3","","1159.3000000715256","stim/yes_17_dia_w1.png","f","pattern_response","true","f","pattern_45","1159.3000000715256","true","60","","","","","","","","","","","","","","","","","","",""
"","","","","","html-keyboard-response","152","401265","0.0-2.0-7.0-0.26","632f8a93e8ab0c12e145a101","C3","batch3","","null","<p class=block-text>Trial 66 out of 78</p>","null","pattern_show_trial_num","","","","","","","","","","","","","","","","","","","","","","","","",""
"","","","","","image-keyboard-response","153","402721","0.0-2.0-7.0-1.26","632f8a93e8ab0c12e145a101","C3","batch3","","1453","stim/yes_31_hor_b1.png","f","pattern_response","true","f","pattern_55","1453","true","61","","","","","","","","","","","","","","","","","","",""
"","","","","","html-keyboard-response","154","404049","0.0-2.0-7.0-0.27","632f8a93e8ab0c12e145a101","C3","batch3","","null","<p class=block-text>Trial 67 out of 78</p>","null","pattern_show_trial_num","","","","","","","","","","","","","","","","","","","","","","","","",""
"","","","","","image-keyboard-response","155","405360","0.0-2.0-7.0-1.27","632f8a93e8ab0c12e145a101","C3","batch3","","1307.7999999523163","stim/no_17_1_w.png","j","pattern_response","true","j","pattern_04","1307.7999999523163","true","62","","","","","","","","","","","","","","","","","","",""
"","","","","","html-keyboard-response","156","406683","0.0-2.0-7.0-0.28","632f8a93e8ab0c12e145a101","C3","batch3","","null","<p class=block-text>Trial 68 out of 78</p>","null","pattern_show_trial_num","","","","","","","","","","","","","","","","","","","","","","","","",""
"","","","","","image-keyboard-response","157","412453","0.0-2.0-7.0-1.28","632f8a93e8ab0c12e145a101","C3","batch3","","5767.100000023842","stim/no_46_1_b.png","j","pattern_response","true","j","pattern_26","5767.100000023842","true","63","","","","","","","","","","","","","","","","","","",""
"","","","","","html-keyboard-response","158","413771","0.0-2.0-7.0-0.29","632f8a93e8ab0c12e145a101","C3","batch3","","null","<p class=block-text>Trial 69 out of 78</p>","null","pattern_show_trial_num","","","","","","","","","","","","","","","","","","","","","","","","",""
"","","","","","image-keyboard-response","159","416453","0.0-2.0-7.0-1.29","632f8a93e8ab0c12e145a101","C3","batch3","","2678.600000023842","stim/no_32_1_w.png","j","pattern_response","true","j","pattern_14","2678.600000023842","true","64","","","","","","","","","","","","","","","","","","",""
"","","","","","html-keyboard-response","160","417776","0.0-2.0-7.0-0.30","632f8a93e8ab0c12e145a101","C3","batch3","","null","<p class=block-text>Trial 70 out of 78</p>","null","pattern_show_trial_num","","","","","","","","","","","","","","","","","","","","","","","","",""
"","","","","","image-keyboard-response","161","418999","0.0-2.0-7.0-1.30","632f8a93e8ab0c12e145a101","C3","batch3","","1220.2999999523163","stim/yes_67_hor_b1.png","f","pattern_response","true","f","pattern_79","1220.2999999523163","true","65","","","","","","","","","","","","","","","","","","",""
"","","","","","html-keyboard-response","162","420310","0.0-2.0-7.0-0.31","632f8a93e8ab0c12e145a101","C3","batch3","","null","<p class=block-text>Trial 71 out of 78</p>","null","pattern_show_trial_num","","","","","","","","","","","","","","","","","","","","","","","","",""
"","","","","","image-keyboard-response","163","423195","0.0-2.0-7.0-1.31","632f8a93e8ab0c12e145a101","C3","batch3","","2882.1999999284744","stim/yes_38_hor_b1_b.png","f","pattern_response","true","f","pattern_61","2882.1999999284744","true","66","","","","","","","","","","","","","","","","","","",""
"","","","","","html-keyboard-response","164","424511","0.0-2.0-7.0-0.32","632f8a93e8ab0c12e145a101","C3","batch3","","null","<p class=block-text>Trial 72 out of 78</p>","null","pattern_show_trial_num","","","","","","","","","","","","","","","","","","","","","","","","",""
"","","","","","image-keyboard-response","165","427127","0.0-2.0-7.0-1.32","632f8a93e8ab0c12e145a101","C3","batch3","","2612.5","stim/yes_55_hor_w1_w.png","f","pattern_response","true","f","pattern_75","2612.5","true","67","","","","","","","","","","","","","","","","","","",""
"","","","","","html-keyboard-response","166","428443","0.0-2.0-7.0-0.33","632f8a93e8ab0c12e145a101","C3","batch3","","null","<p class=block-text>Trial 73 out of 78</p>","null","pattern_show_trial_num","","","","","","","","","","","","","","","","","","","","","","","","",""
"","","","","","image-keyboard-response","167","434644","0.0-2.0-7.0-1.33","632f8a93e8ab0c12e145a101","C3","batch3","","6197.200000047684","stim/no_55_1_w.png","j","pattern_response","true","j","pattern_34","6197.200000047684","true","68","","","","","","","","","","","","","","","","","","",""
"","","","","","html-keyboard-response","168","435950","0.0-2.0-7.0-0.34","632f8a93e8ab0c12e145a101","C3","batch3","","null","<p class=block-text>Trial 74 out of 78</p>","null","pattern_show_trial_num","","","","","","","","","","","","","","","","","","","","","","","","",""
"","","","","","image-keyboard-response","169","441583","0.0-2.0-7.0-1.34","632f8a93e8ab0c12e145a101","C3","batch3","","5629.600000023842","stim/no_38_1_b.png","j","pattern_response","true","j","pattern_20","5629.600000023842","true","69","","","","","","","","","","","","","","","","","","",""
"","","","","","html-keyboard-response","170","442902","0.0-2.0-7.0-0.35","632f8a93e8ab0c12e145a101","C3","batch3","","null","<p class=block-text>Trial 75 out of 78</p>","null","pattern_show_trial_num","","","","","","","","","","","","","","","","","","","","","","","","",""
"","","","","","image-keyboard-response","171","448877","0.0-2.0-7.0-1.35","632f8a93e8ab0c12e145a101","C3","batch3","","5971.600000023842","stim/no_52_1.png","j","pattern_response","true","j","pattern_32","5971.600000023842","true","70","","","","","","","","","","","","","","","","","","",""
"","","","","","html-keyboard-response","172","450204","0.0-2.0-7.0-0.36","632f8a93e8ab0c12e145a101","C3","batch3","","null","<p class=block-text>Trial 76 out of 78</p>","null","pattern_show_trial_num","","","","","","","","","","","","","","","","","","","","","","","","",""
"","","","","","image-keyboard-response","173","452632","0.0-2.0-7.0-1.36","632f8a93e8ab0c12e145a101","C3","batch3","","2423.5999999046326","stim/yes_29_ver_w1.png","f","pattern_response","true","f","pattern_53","2423.5999999046326","true","71","","","","","","","","","","","","","","","","","","",""
"","","","","","html-keyboard-response","174","453957","0.0-2.0-7.0-0.37","632f8a93e8ab0c12e145a101","C3","batch3","","null","<p class=block-text>Trial 77 out of 78</p>","null","pattern_show_trial_num","","","","","","","","","","","","","","","","","","","","","","","","",""
"","","","","","image-keyboard-response","175","458908","0.0-2.0-7.0-1.37","632f8a93e8ab0c12e145a101","C3","batch3","","4949.400000095367","stim/no_44_1.png","j","pattern_response","true","j","pattern_24","4949.400000095367","true","72","","","","","","","","","","","","","","","","","","",""
"","","","","","html-keyboard-response","176","460223","0.0-2.0-7.0-0.38","632f8a93e8ab0c12e145a101","C3","batch3","","null","<p class=block-text>Trial 78 out of 78</p>","null","pattern_show_trial_num","","","","","","","","","","","","","","","","","","","","","","","","",""
"","","","","","image-keyboard-response","177","464639","0.0-2.0-7.0-1.38","632f8a93e8ab0c12e145a101","C3","batch3","","4412.300000071526","stim/yes_37_dia_w1.png","f","pattern_response","true","f","pattern_59","4412.300000071526","true","73","","","","","","","","","","","","","","","","","","",""
"","","","","","html-button-response","178","479987","0.0-2.0-8.0","632f8a93e8ab0c12e145a101","C3","batch3","","14835.5","<p class = block-text>This concludes the 4-in-a-row detection game.Thank you for your responses!<br>
            You responded correctly on 94% of the trials.<br>
            When you are ready, press ""Continue"" button to continue </p>","0","","","","","","","","","","","","","","","","","","","","","","","","","",""
"true","","","","","fullscreen","179","484552","0.0-3.0-0.0","632f8a93e8ab0c12e145a101","C3","batch3","","","","","spm_fullscreen","","","","","","","","","","","","","","","","","","","","","","","","",""
"","","","","","html-button-response","180","499548","0.0-3.0-1.0","632f8a93e8ab0c12e145a101","C3","batch3","","14992.599999904633","<p class = block-text><b>Instructions</b> <br>This is a widely used intelligence test in research. <br>In this test, a figure with a missing piece will be presented.<br>Below the figure are alternative pieces to complete the figure, only one of which is correct.<br> Different figures might involve different principles for obtaining the missing piece<br>Your job is to select the most logical piece to complete the figure.</p>","0","","","","","","","","","","","","","","","","","","","","","","","","","",""
"","","","","","html-keyboard-response","181","500350","0.0-3.0-2.0-0.0","632f8a93e8ab0c12e145a101","C3","batch3","","null","<p class=block-text>Trial 1 out of 60</p>","null","spm_show_trial_num","","","","","","","","","","","","","","","","","","","","","","","","",""
"","","","","","image-button-response","182","510951","0.0-3.0-2.0-1.0","632f8a93e8ab0c12e145a101","C3","batch3","","10594.300000071526","img/question_1_1.jpeg","3","spm_respsonse","1","4","mat_01","","","","","","1","10594.300000071526","","","","","","","","","","","","","","",""
"","","","","","html-keyboard-response","183","512010","0.0-3.0-2.0-0.1","632f8a93e8ab0c12e145a101","C3","batch3","","null","<p class=block-text>Trial 2 out of 60</p>","null","spm_show_trial_num","","","","","","","","","","","","","","","","","","","","","","","","",""
"","","","","","image-button-response","184","514738","0.0-3.0-2.0-1.1","632f8a93e8ab0c12e145a101","C3","batch3","","2724.100000023842","img/question_1_2.jpeg","4","spm_respsonse","1","5","mat_02","","","","","","1","2724.100000023842","","","","","","","","","","","","","","",""
"","","","","","html-keyboard-response","185","515818","0.0-3.0-2.0-0.2","632f8a93e8ab0c12e145a101","C3","batch3","","null","<p class=block-text>Trial 3 out of 60</p>","null","spm_show_trial_num","","","","","","","","","","","","","","","","","","","","","","","","",""
"","","","","","image-button-response","186","518839","0.0-3.0-2.0-1.2","632f8a93e8ab0c12e145a101","C3","batch3","","3016.9000000953674","img/question_1_3.jpeg","0","spm_respsonse","1","1","mat_03","","","","","","1","3016.9000000953674","","","","","","","","","","","","","","",""
"","","","","","html-keyboard-response","187","519898","0.0-3.0-2.0-0.3","632f8a93e8ab0c12e145a101","C3","batch3","","null","<p class=block-text>Trial 4 out of 60</p>","null","spm_show_trial_num","","","","","","","","","","","","","","","","","","","","","","","","",""
"","","","","","image-button-response","188","527551","0.0-3.0-2.0-1.3","632f8a93e8ab0c12e145a101","C3","batch3","","7649.700000047684","img/question_1_4.jpeg","1","spm_respsonse","1","2","mat_04","","","","","","1","7649.700000047684","","","","","","","","","","","","","","",""
"","","","","","html-keyboard-response","189","528615","0.0-3.0-2.0-0.4","632f8a93e8ab0c12e145a101","C3","batch3","","null","<p class=block-text>Trial 5 out of 60</p>","null","spm_show_trial_num","","","","","","","","","","","","","","","","","","","","","","","","",""
"","","","","","image-button-response","190","537828","0.0-3.0-2.0-1.4","632f8a93e8ab0c12e145a101","C3","batch3","","9208.299999952316","img/question_1_5.jpeg","5","spm_respsonse","1","6","mat_05","","","","","","1","9208.299999952316","","","","","","","","","","","","","","",""
"","","","","","html-keyboard-response","191","538891","0.0-3.0-2.0-0.5","632f8a93e8ab0c12e145a101","C3","batch3","","null","<p class=block-text>Trial 6 out of 60</p>","null","spm_show_trial_num","","","","","","","","","","","","","","","","","","","","","","","","",""
"","","","","","image-button-response","192","542667","0.0-3.0-2.0-1.5","632f8a93e8ab0c12e145a101","C3","batch3","","3773.7999999523163","img/question_1_6.jpeg","2","spm_respsonse","1","3","mat_06","","","","","","1","3773.7999999523163","","","","","","","","","","","","","","",""
"","","","","","html-keyboard-response","193","543728","0.0-3.0-2.0-0.6","632f8a93e8ab0c12e145a101","C3","batch3","","null","<p class=block-text>Trial 7 out of 60</p>","null","spm_show_trial_num","","","","","","","","","","","","","","","","","","","","","","","","",""
"","","","","","image-button-response","194","547980","0.0-3.0-2.0-1.6","632f8a93e8ab0c12e145a101","C3","batch3","","4260.100000023842","img/question_1_7.jpeg","5","spm_respsonse","1","6","mat_07","","","","","","1","4260.100000023842","","","","","","","","","","","","","","",""
"","","","","","html-keyboard-response","195","549046","0.0-3.0-2.0-0.7","632f8a93e8ab0c12e145a101","C3","batch3","","null","<p class=block-text>Trial 8 out of 60</p>","null","spm_show_trial_num","","","","","","","","","","","","","","","","","","","","","","","","",""
"","","","","","image-button-response","196","554445","0.0-3.0-2.0-1.7","632f8a93e8ab0c12e145a101","C3","batch3","","5397","img/question_1_8.jpeg","1","spm_respsonse","1","2","mat_08","","","","","","1","5397","","","","","","","","","","","","","","",""
"","","","","","html-keyboard-response","197","555502","0.0-3.0-2.0-0.8","632f8a93e8ab0c12e145a101","C3","batch3","","null","<p class=block-text>Trial 9 out of 60</p>","null","spm_show_trial_num","","","","","","","","","","","","","","","","","","","","","","","","",""
"","","","","","image-button-response","198","565829","0.0-3.0-2.0-1.8","632f8a93e8ab0c12e145a101","C3","batch3","","10323.300000071526","img/question_1_9.jpeg","0","spm_respsonse","1","1","mat_09","","","","","","1","10323.300000071526","","","","","","","","","","","","","","",""
"","","","","","html-keyboard-response","199","566885","0.0-3.0-2.0-0.9","632f8a93e8ab0c12e145a101","C3","batch3","","null","<p class=block-text>Trial 10 out of 60</p>","null","spm_show_trial_num","","","","","","","","","","","","","","","","","","","","","","","","",""
"","","","","","image-button-response","200","573763","0.0-3.0-2.0-1.9","632f8a93e8ab0c12e145a101","C3","batch3","","6874.899999976158","img/question_1_10.jpeg","2","spm_respsonse","1","3","mat_10","","","","","","1","6874.899999976158","","","","","","","","","","","","","","",""
"","","","","","html-keyboard-response","201","574823","0.0-3.0-2.0-0.10","632f8a93e8ab0c12e145a101","C3","batch3","","null","<p class=block-text>Trial 11 out of 60</p>","null","spm_show_trial_num","","","","","","","","","","","","","","","","","","","","","","","","",""
"","","","","","image-button-response","202","592701","0.0-3.0-2.0-1.10","632f8a93e8ab0c12e145a101","C3","batch3","","17874.199999928474","img/question_1_11.jpeg","3","spm_respsonse","1","4","mat_11","","","","","","1","17874.199999928474","","","","","","","","","","","","","","",""
"","","","","","html-keyboard-response","203","593779","0.0-3.0-2.0-0.11","632f8a93e8ab0c12e145a101","C3","batch3","","null","<p class=block-text>Trial 12 out of 60</p>","null","spm_show_trial_num","","","","","","","","","","","","","","","","","","","","","","","","",""
"","","","","","image-button-response","204","623768","0.0-3.0-2.0-1.11","632f8a93e8ab0c12e145a101","C3","batch3","","29971.799999952316","img/question_1_12.jpeg","4","spm_respsonse","1","5","mat_12","","","","","","1","29971.799999952316","","","","","","","","","","","","","","",""
"","","","","","html-keyboard-response","205","624835","0.0-3.0-2.0-0.12","632f8a93e8ab0c12e145a101","C3","batch3","","null","<p class=block-text>Trial 13 out of 60</p>","null","spm_show_trial_num","","","","","","","","","","","","","","","","","","","","","","","","",""
"","","","","","image-button-response","206","628237","0.0-3.0-2.0-1.12","632f8a93e8ab0c12e145a101","C3","batch3","","3400.2000000476837","img/question_2_1.jpeg","1","spm_respsonse","1","2","mat_13","","","","","","1","3400.2000000476837","","","","","","","","","","","","","","",""
"","","","","","html-keyboard-response","207","629297","0.0-3.0-2.0-0.13","632f8a93e8ab0c12e145a101","C3","batch3","","null","<p class=block-text>Trial 14 out of 60</p>","null","spm_show_trial_num","","","","","","","","","","","","","","","","","","","","","","","","",""
"","","","","","image-button-response","208","641234","0.0-3.0-2.0-1.13","632f8a93e8ab0c12e145a101","C3","batch3","","11932.5","img/question_2_2.jpeg","5","spm_respsonse","1","6","mat_14","","","","","","1","11932.5","","","","","","","","","","","","","","",""
"","","","","","html-keyboard-response","209","642301","0.0-3.0-2.0-0.14","632f8a93e8ab0c12e145a101","C3","batch3","","null","<p class=block-text>Trial 15 out of 60</p>","null","spm_show_trial_num","","","","","","","","","","","","","","","","","","","","","","","","",""
"","","","","","image-button-response","210","647205","0.0-3.0-2.0-1.14","632f8a93e8ab0c12e145a101","C3","batch3","","4899.200000047684","img/question_2_3.jpeg","0","spm_respsonse","1","1","mat_15","","","","","","1","4899.200000047684","","","","","","","","","","","","","","",""
"","","","","","html-keyboard-response","211","648267","0.0-3.0-2.0-0.15","632f8a93e8ab0c12e145a101","C3","batch3","","null","<p class=block-text>Trial 16 out of 60</p>","null","spm_show_trial_num","","","","","","","","","","","","","","","","","","","","","","","","",""
"","","","","","image-button-response","212","653985","0.0-3.0-2.0-1.15","632f8a93e8ab0c12e145a101","C3","batch3","","5715.5","img/question_2_4.jpeg","1","spm_respsonse","1","2","mat_16","","","","","","1","5715.5","","","","","","","","","","","","","","",""
"","","","","","html-keyboard-response","213","655053","0.0-3.0-2.0-0.16","632f8a93e8ab0c12e145a101","C3","batch3","","null","<p class=block-text>Trial 17 out of 60</p>","null","spm_show_trial_num","","","","","","","","","","","","","","","","","","","","","","","","",""
"","","","","","image-button-response","214","662453","0.0-3.0-2.0-1.16","632f8a93e8ab0c12e145a101","C3","batch3","","7395.799999952316","img/question_2_5.jpeg","0","spm_respsonse","1","1","mat_17","","","","","","1","7395.799999952316","","","","","","","","","","","","","","",""
"","","","","","html-keyboard-response","215","663515","0.0-3.0-2.0-0.17","632f8a93e8ab0c12e145a101","C3","batch3","","null","<p class=block-text>Trial 18 out of 60</p>","null","spm_show_trial_num","","","","","","","","","","","","","","","","","","","","","","","","",""
"","","","","","image-button-response","216","676535","0.0-3.0-2.0-1.17","632f8a93e8ab0c12e145a101","C3","batch3","","13016.5","img/question_2_6.jpeg","2","spm_respsonse","1","3","mat_18","","","","","","1","13016.5","","","","","","","","","","","","","","",""
"","","","","","html-keyboard-response","217","677599","0.0-3.0-2.0-0.18","632f8a93e8ab0c12e145a101","C3","batch3","","null","<p class=block-text>Trial 19 out of 60</p>","null","spm_show_trial_num","","","","","","","","","","","","","","","","","","","","","","","","",""
"","","","","","image-button-response","218","696466","0.0-3.0-2.0-1.18","632f8a93e8ab0c12e145a101","C3","batch3","","18862.399999976158","img/question_2_7.jpeg","4","spm_respsonse","1","5","mat_19","","","","","","1","18862.399999976158","","","","","","","","","","","","","","",""
"","","","","","html-keyboard-response","219","697521","0.0-3.0-2.0-0.19","632f8a93e8ab0c12e145a101","C3","batch3","","null","<p class=block-text>Trial 20 out of 60</p>","null","spm_show_trial_num","","","","","","","","","","","","","","","","","","","","","","","","",""
"","","","","","image-button-response","220","711262","0.0-3.0-2.0-1.19","632f8a93e8ab0c12e145a101","C3","batch3","","13737.5","img/question_2_8.jpeg","5","spm_respsonse","1","6","mat_20","","","","","","1","13737.5","","","","","","","","","","","","","","",""
"","","","","","html-keyboard-response","221","712327","0.0-3.0-2.0-0.20","632f8a93e8ab0c12e145a101","C3","batch3","","null","<p class=block-text>Trial 21 out of 60</p>","null","spm_show_trial_num","","","","","","","","","","","","","","","","","","","","","","","","",""
"","","","","","image-button-response","222","725221","0.0-3.0-2.0-1.20","632f8a93e8ab0c12e145a101","C3","batch3","","12889.100000023842","img/question_2_9.jpeg","3","spm_respsonse","1","4","mat_21","","","","","","1","12889.100000023842","","","","","","","","","","","","","","",""
"","","","","","html-keyboard-response","223","726289","0.0-3.0-2.0-0.21","632f8a93e8ab0c12e145a101","C3","batch3","","null","<p class=block-text>Trial 22 out of 60</p>","null","spm_show_trial_num","","","","","","","","","","","","","","","","","","","","","","","","",""
"","","","","","image-button-response","224","731394","0.0-3.0-2.0-1.21","632f8a93e8ab0c12e145a101","C3","batch3","","5099.5","img/question_2_10.jpeg","2","spm_respsonse","1","3","mat_22","","","","","","1","5099.5","","","","","","","","","","","","","","",""
"","","","","","html-keyboard-response","225","732454","0.0-3.0-2.0-0.22","632f8a93e8ab0c12e145a101","C3","batch3","","null","<p class=block-text>Trial 23 out of 60</p>","null","spm_show_trial_num","","","","","","","","","","","","","","","","","","","","","","","","",""
"","","","","","image-button-response","226","737385","0.0-3.0-2.0-1.22","632f8a93e8ab0c12e145a101","C3","batch3","","4928.5","img/question_2_11.jpeg","3","spm_respsonse","1","4","mat_23","","","","","","1","4928.5","","","","","","","","","","","","","","",""
"","","","","","html-keyboard-response","227","738438","0.0-3.0-2.0-0.23","632f8a93e8ab0c12e145a101","C3","batch3","","null","<p class=block-text>Trial 24 out of 60</p>","null","spm_show_trial_num","","","","","","","","","","","","","","","","","","","","","","","","",""
"","","","","","image-button-response","228","754410","0.0-3.0-2.0-1.23","632f8a93e8ab0c12e145a101","C3","batch3","","15967.5","img/question_2_12.jpeg","4","spm_respsonse","1","5","mat_24","","","","","","1","15967.5","","","","","","","","","","","","","","",""
"","","","","","html-button-response","229","756879","0.0-3.0-3.0","632f8a93e8ab0c12e145a101","C3","batch3","","2215.899999976158","<p class = block-text>Attention check: Please choose 1<br></p>","0","attention_check","true","","","","","","","","","","","","","","","","","","","","","","","",""
"","","","","","html-keyboard-response","230","757684","0.0-3.0-4.0-0.0","632f8a93e8ab0c12e145a101","C3","batch3","","null","<p class=block-text>Trial 25 out of 60</p>","null","spm_show_trial_num","","","","","","","","","","","","","","","","","","","","","","","","",""
"","","","","","image-button-response","231","774239","0.0-3.0-4.0-1.0","632f8a93e8ab0c12e145a101","C3","batch3","","16551.100000023842","img/question_3_1.jpeg","7","spm_respsonse","1","8","mat_25","","","","","","1","16551.100000023842","","","","","","","","","","","","","","",""
"","","","","","html-keyboard-response","232","775301","0.0-3.0-4.0-0.1","632f8a93e8ab0c12e145a101","C3","batch3","","null","<p class=block-text>Trial 26 out of 60</p>","null","spm_show_trial_num","","","","","","","","","","","","","","","","","","","","","","","","",""
"","","","","","image-button-response","233","787726","0.0-3.0-4.0-1.1","632f8a93e8ab0c12e145a101","C3","batch3","","12423","img/question_3_2.jpeg","1","spm_respsonse","1","2","mat_26","","","","","","1","12423","","","","","","","","","","","","","","",""
"","","","","","html-keyboard-response","234","788796","0.0-3.0-4.0-0.2","632f8a93e8ab0c12e145a101","C3","batch3","","null","<p class=block-text>Trial 27 out of 60</p>","null","spm_show_trial_num","","","","","","","","","","","","","","","","","","","","","","","","",""
"","","","","","image-button-response","235","804826","0.0-3.0-4.0-1.2","632f8a93e8ab0c12e145a101","C3","batch3","","16025.599999904633","img/question_3_3.jpeg","2","spm_respsonse","1","3","mat_27","","","","","","1","16025.599999904633","","","","","","","","","","","","","","",""
"","","","","","html-keyboard-response","236","805886","0.0-3.0-4.0-0.3","632f8a93e8ab0c12e145a101","C3","batch3","","null","<p class=block-text>Trial 28 out of 60</p>","null","spm_show_trial_num","","","","","","","","","","","","","","","","","","","","","","","","",""
"","","","","","image-button-response","237","817217","0.0-3.0-4.0-1.3","632f8a93e8ab0c12e145a101","C3","batch3","","11326.199999928474","img/question_3_4.jpeg","7","spm_respsonse","1","8","mat_28","","","","","","1","11326.199999928474","","","","","","","","","","","","","","",""
"","","","","","html-keyboard-response","238","818277","0.0-3.0-4.0-0.4","632f8a93e8ab0c12e145a101","C3","batch3","","null","<p class=block-text>Trial 29 out of 60</p>","null","spm_show_trial_num","","","","","","","","","","","","","","","","","","","","","","","","",""
"","","","","","image-button-response","239","842446","0.0-3.0-4.0-1.4","632f8a93e8ab0c12e145a101","C3","batch3","","24165.5","img/question_3_5.jpeg","6","spm_respsonse","1","7","mat_29","","","","","","1","24165.5","","","","","","","","","","","","","","",""
"","","","","","html-keyboard-response","240","843510","0.0-3.0-4.0-0.5","632f8a93e8ab0c12e145a101","C3","batch3","","null","<p class=block-text>Trial 30 out of 60</p>","null","spm_show_trial_num","","","","","","","","","","","","","","","","","","","","","","","","",""
"","","","","","image-button-response","241","855820","0.0-3.0-4.0-1.5","632f8a93e8ab0c12e145a101","C3","batch3","","12306.5","img/question_3_6.jpeg","3","spm_respsonse","1","4","mat_30","","","","","","1","12306.5","","","","","","","","","","","","","","",""
"","","","","","html-keyboard-response","242","856882","0.0-3.0-4.0-0.6","632f8a93e8ab0c12e145a101","C3","batch3","","null","<p class=block-text>Trial 31 out of 60</p>","null","spm_show_trial_num","","","","","","","","","","","","","","","","","","","","","","","","",""
"","","","","","image-button-response","243","869494","0.0-3.0-4.0-1.6","632f8a93e8ab0c12e145a101","C3","batch3","","12607.099999904633","img/question_3_7.jpeg","4","spm_respsonse","1","5","mat_31","","","","","","1","12607.099999904633","","","","","","","","","","","","","","",""
"","","","","","html-keyboard-response","244","870557","0.0-3.0-4.0-0.7","632f8a93e8ab0c12e145a101","C3","batch3","","null","<p class=block-text>Trial 32 out of 60</p>","null","spm_show_trial_num","","","","","","","","","","","","","","","","","","","","","","","","",""
"","","","","","image-button-response","245","897865","0.0-3.0-4.0-1.7","632f8a93e8ab0c12e145a101","C3","batch3","","27304.100000023842","img/question_3_8.jpeg","0","spm_respsonse","1","1","mat_32","","","","","","1","27304.100000023842","","","","","","","","","","","","","","",""
"","","","","","html-keyboard-response","246","898919","0.0-3.0-4.0-0.8","632f8a93e8ab0c12e145a101","C3","batch3","","null","<p class=block-text>Trial 33 out of 60</p>","null","spm_show_trial_num","","","","","","","","","","","","","","","","","","","","","","","","",""
"","","","","","image-button-response","247","907676","0.0-3.0-4.0-1.8","632f8a93e8ab0c12e145a101","C3","batch3","","8753.100000023842","img/question_3_9.jpeg","0","spm_respsonse","0","7","mat_33","","","","","","0","8753.100000023842","","","","","","","","","","","","","","",""
"","","","","","html-keyboard-response","248","908734","0.0-3.0-4.0-0.9","632f8a93e8ab0c12e145a101","C3","batch3","","null","<p class=block-text>Trial 34 out of 60</p>","null","spm_show_trial_num","","","","","","","","","","","","","","","","","","","","","","","","",""
"","","","","","image-button-response","249","958208","0.0-3.0-4.0-1.9","632f8a93e8ab0c12e145a101","C3","batch3","","49471.59999990463","img/question_3_10.jpeg","5","spm_respsonse","1","6","mat_34","","","","","","1","49471.59999990463","","","","","","","","","","","","","","",""
"","","","","","html-keyboard-response","250","959262","0.0-3.0-4.0-0.10","632f8a93e8ab0c12e145a101","C3","batch3","","null","<p class=block-text>Trial 35 out of 60</p>","null","spm_show_trial_num","","","","","","","","","","","","","","","","","","","","","","","","",""
"","","","","","image-button-response","251","989086","0.0-3.0-4.0-1.10","632f8a93e8ab0c12e145a101","C3","batch3","","29819.299999952316","img/question_3_11.jpeg","0","spm_respsonse","1","1","mat_35","","","","","","1","29819.299999952316","","","","","","","","","","","","","","",""
"","","","","","html-keyboard-response","252","990137","0.0-3.0-4.0-0.11","632f8a93e8ab0c12e145a101","C3","batch3","","null","<p class=block-text>Trial 36 out of 60</p>","null","spm_show_trial_num","","","","","","","","","","","","","","","","","","","","","","","","",""
"","","","","","image-button-response","253","1024652","0.0-3.0-4.0-1.11","632f8a93e8ab0c12e145a101","C3","batch3","","34510","img/question_3_12.jpeg","1","spm_respsonse","1","2","mat_36","","","","","","1","34510","","","","","","","","","","","","","","",""
"","","","","","html-keyboard-response","254","1025704","0.0-3.0-4.0-0.12","632f8a93e8ab0c12e145a101","C3","batch3","","null","<p class=block-text>Trial 37 out of 60</p>","null","spm_show_trial_num","","","","","","","","","","","","","","","","","","","","","","","","",""
"","","","","","image-button-response","255","1031254","0.0-3.0-4.0-1.12","632f8a93e8ab0c12e145a101","C3","batch3","","5548.600000023842","img/question_4_1.jpeg","2","spm_respsonse","1","3","mat_37","","","","","","1","5548.600000023842","","","","","","","","","","","","","","",""
"","","","","","html-keyboard-response","256","1032307","0.0-3.0-4.0-0.13","632f8a93e8ab0c12e145a101","C3","batch3","","null","<p class=block-text>Trial 38 out of 60</p>","null","spm_show_trial_num","","","","","","","","","","","","","","","","","","","","","","","","",""
"","","","","","image-button-response","257","1070291","0.0-3.0-4.0-1.13","632f8a93e8ab0c12e145a101","C3","batch3","","37982.89999997616","img/question_4_2.jpeg","3","spm_respsonse","1","4","mat_38","","","","","","1","37982.89999997616","","","","","","","","","","","","","","",""
"","","","","","html-keyboard-response","258","1071355","0.0-3.0-4.0-0.14","632f8a93e8ab0c12e145a101","C3","batch3","","null","<p class=block-text>Trial 39 out of 60</p>","null","spm_show_trial_num","","","","","","","","","","","","","","","","","","","","","","","","",""
"","","","","","image-button-response","259","1090212","0.0-3.0-4.0-1.14","632f8a93e8ab0c12e145a101","C3","batch3","","18854.600000023842","img/question_4_3.jpeg","2","spm_respsonse","1","3","mat_39","","","","","","1","18854.600000023842","","","","","","","","","","","","","","",""
"","","","","","html-keyboard-response","260","1091265","0.0-3.0-4.0-0.15","632f8a93e8ab0c12e145a101","C3","batch3","","null","<p class=block-text>Trial 40 out of 60</p>","null","spm_show_trial_num","","","","","","","","","","","","","","","","","","","","","","","","",""
"","","","","","image-button-response","261","1106158","0.0-3.0-4.0-1.15","632f8a93e8ab0c12e145a101","C3","batch3","","14890.200000047684","img/question_4_4.jpeg","6","spm_respsonse","1","7","mat_40","","","","","","1","14890.200000047684","","","","","","","","","","","","","","",""
"","","","","","html-keyboard-response","262","1107211","0.0-3.0-4.0-0.16","632f8a93e8ab0c12e145a101","C3","batch3","","null","<p class=block-text>Trial 41 out of 60</p>","null","spm_show_trial_num","","","","","","","","","","","","","","","","","","","","","","","","",""
"","","","","","image-button-response","263","1120909","0.0-3.0-4.0-1.16","632f8a93e8ab0c12e145a101","C3","batch3","","13692.800000071526","img/question_4_5.jpeg","3","spm_respsonse","0","8","mat_41","","","","","","0","13692.800000071526","","","","","","","","","","","","","","",""
"","","","","","html-keyboard-response","264","1121973","0.0-3.0-4.0-0.17","632f8a93e8ab0c12e145a101","C3","batch3","","null","<p class=block-text>Trial 42 out of 60</p>","null","spm_show_trial_num","","","","","","","","","","","","","","","","","","","","","","","","",""
"","","","","","image-button-response","265","1137251","0.0-3.0-4.0-1.17","632f8a93e8ab0c12e145a101","C3","batch3","","15273.5","img/question_4_6.jpeg","5","spm_respsonse","1","6","mat_42","","","","","","1","15273.5","","","","","","","","","","","","","","",""
"","","","","","html-keyboard-response","266","1138316","0.0-3.0-4.0-0.18","632f8a93e8ab0c12e145a101","C3","batch3","","null","<p class=block-text>Trial 43 out of 60</p>","null","spm_show_trial_num","","","","","","","","","","","","","","","","","","","","","","","","",""
"","","","","","image-button-response","267","1152266","0.0-3.0-4.0-1.18","632f8a93e8ab0c12e145a101","C3","batch3","","13945.600000023842","img/question_4_7.jpeg","4","spm_respsonse","1","5","mat_43","","","","","","1","13945.600000023842","","","","","","","","","","","","","","",""
"","","","","","html-keyboard-response","268","1153319","0.0-3.0-4.0-0.19","632f8a93e8ab0c12e145a101","C3","batch3","","null","<p class=block-text>Trial 44 out of 60</p>","null","spm_show_trial_num","","","","","","","","","","","","","","","","","","","","","","","","",""
"","","","","","image-button-response","269","1204444","0.0-3.0-4.0-1.19","632f8a93e8ab0c12e145a101","C3","batch3","","51119.5","img/question_4_8.jpeg","3","spm_respsonse","1","4","mat_44","","","","","","1","51119.5","","","","","","","","","","","","","","",""
"","","","","","html-keyboard-response","270","1205505","0.0-3.0-4.0-0.20","632f8a93e8ab0c12e145a101","C3","batch3","","null","<p class=block-text>Trial 45 out of 60</p>","null","spm_show_trial_num","","","","","","","","","","","","","","","","","","","","","","","","",""
"","","","","","image-button-response","271","1254346","0.0-3.0-4.0-1.20","632f8a93e8ab0c12e145a101","C3","batch3","","48837.699999928474","img/question_4_9.jpeg","0","spm_respsonse","1","1","mat_45","","","","","","1","48837.699999928474","","","","","","","","","","","","","","",""
"","","","","","html-keyboard-response","272","1255411","0.0-3.0-4.0-0.21","632f8a93e8ab0c12e145a101","C3","batch3","","null","<p class=block-text>Trial 46 out of 60</p>","null","spm_show_trial_num","","","","","","","","","","","","","","","","","","","","","","","","",""
"","","","","","image-button-response","273","1294994","0.0-3.0-4.0-1.21","632f8a93e8ab0c12e145a101","C3","batch3","","39579","img/question_4_10.jpeg","1","spm_respsonse","1","2","mat_46","","","","","","1","39579","","","","","","","","","","","","","","",""
"","","","","","html-keyboard-response","274","1296047","0.0-3.0-4.0-0.22","632f8a93e8ab0c12e145a101","C3","batch3","","null","<p class=block-text>Trial 47 out of 60</p>","null","spm_show_trial_num","","","","","","","","","","","","","","","","","","","","","","","","",""
"","","","","","image-button-response","275","1360515","0.0-3.0-4.0-1.22","632f8a93e8ab0c12e145a101","C3","batch3","","64463.299999952316","img/question_4_11.jpeg","4","spm_respsonse","1","5","mat_47","","","","","","1","64463.299999952316","","","","","","","","","","","","","","",""
"","","","","","html-keyboard-response","276","1361581","0.0-3.0-4.0-0.23","632f8a93e8ab0c12e145a101","C3","batch3","","null","<p class=block-text>Trial 48 out of 60</p>","null","spm_show_trial_num","","","","","","","","","","","","","","","","","","","","","","","","",""
"","","","","","image-button-response","277","1467055","0.0-3.0-4.0-1.23","632f8a93e8ab0c12e145a101","C3","batch3","","105469.09999990463","img/question_4_12.jpeg","2","spm_respsonse","0","6","mat_48","","","","","","0","105469.09999990463","","","","","","","","","","","","","","",""
"","","","","","html-keyboard-response","278","1468115","0.0-3.0-4.0-0.24","632f8a93e8ab0c12e145a101","C3","batch3","","null","<p class=block-text>Trial 49 out of 60</p>","null","spm_show_trial_num","","","","","","","","","","","","","","","","","","","","","","","","",""
"","","","","","image-button-response","279","1489156","0.0-3.0-4.0-1.24","632f8a93e8ab0c12e145a101","C3","batch3","","21037.899999976158","img/question_5_1.jpeg","6","spm_respsonse","1","7","mat_49","","","","","","1","21037.899999976158","","","","","","","","","","","","","","",""
"","","","","","html-keyboard-response","280","1490209","0.0-3.0-4.0-0.25","632f8a93e8ab0c12e145a101","C3","batch3","","null","<p class=block-text>Trial 50 out of 60</p>","null","spm_show_trial_num","","","","","","","","","","","","","","","","","","","","","","","","",""
"","","","","","image-button-response","281","1520177","0.0-3.0-4.0-1.25","632f8a93e8ab0c12e145a101","C3","batch3","","29964.100000023842","img/question_5_2.jpeg","5","spm_respsonse","1","6","mat_50","","","","","","1","29964.100000023842","","","","","","","","","","","","","","",""
"","","","","","html-keyboard-response","282","1521236","0.0-3.0-4.0-0.26","632f8a93e8ab0c12e145a101","C3","batch3","","null","<p class=block-text>Trial 51 out of 60</p>","null","spm_show_trial_num","","","","","","","","","","","","","","","","","","","","","","","","",""
"","","","","","image-button-response","283","1538155","0.0-3.0-4.0-1.26","632f8a93e8ab0c12e145a101","C3","batch3","","16916.300000071526","img/question_5_3.jpeg","7","spm_respsonse","1","8","mat_51","","","","","","1","16916.300000071526","","","","","","","","","","","","","","",""
"","","","","","html-keyboard-response","284","1539218","0.0-3.0-4.0-0.27","632f8a93e8ab0c12e145a101","C3","batch3","","null","<p class=block-text>Trial 52 out of 60</p>","null","spm_show_trial_num","","","","","","","","","","","","","","","","","","","","","","","","",""
"","","","","","image-button-response","285","1571298","0.0-3.0-4.0-1.27","632f8a93e8ab0c12e145a101","C3","batch3","","32074.699999928474","img/question_5_4.jpeg","1","spm_respsonse","1","2","mat_52","","","","","","1","32074.699999928474","","","","","","","","","","","","","","",""
"","","","","","html-keyboard-response","286","1572351","0.0-3.0-4.0-0.28","632f8a93e8ab0c12e145a101","C3","batch3","","null","<p class=block-text>Trial 53 out of 60</p>","null","spm_show_trial_num","","","","","","","","","","","","","","","","","","","","","","","","",""
"","","","","","image-button-response","287","1638217","0.0-3.0-4.0-1.28","632f8a93e8ab0c12e145a101","C3","batch3","","65868.29999995232","img/question_5_5.jpeg","0","spm_respsonse","1","1","mat_53","","","","","","1","65868.29999995232","","","","","","","","","","","","","","",""
"","","","","","html-keyboard-response","288","1639270","0.0-3.0-4.0-0.29","632f8a93e8ab0c12e145a101","C3","batch3","","null","<p class=block-text>Trial 54 out of 60</p>","null","spm_show_trial_num","","","","","","","","","","","","","","","","","","","","","","","","",""
"","","","","","image-button-response","289","1663868","0.0-3.0-4.0-1.29","632f8a93e8ab0c12e145a101","C3","batch3","","24593.899999976158","img/question_5_6.jpeg","4","spm_respsonse","1","5","mat_54","","","","","","1","24593.899999976158","","","","","","","","","","","","","","",""
"","","","","","html-keyboard-response","290","1664932","0.0-3.0-4.0-0.30","632f8a93e8ab0c12e145a101","C3","batch3","","null","<p class=block-text>Trial 55 out of 60</p>","null","spm_show_trial_num","","","","","","","","","","","","","","","","","","","","","","","","",""
"","","","","","image-button-response","291","1707559","0.0-3.0-4.0-1.30","632f8a93e8ab0c12e145a101","C3","batch3","","42618.40000009537","img/question_5_7.jpeg","0","spm_respsonse","1","1","mat_55","","","","","","1","42618.40000009537","","","","","","","","","","","","","","",""
"","","","","","html-keyboard-response","292","1708612","0.0-3.0-4.0-0.31","632f8a93e8ab0c12e145a101","C3","batch3","","null","<p class=block-text>Trial 56 out of 60</p>","null","spm_show_trial_num","","","","","","","","","","","","","","","","","","","","","","","","",""
"","","","","","image-button-response","293","1845809","0.0-3.0-4.0-1.31","632f8a93e8ab0c12e145a101","C3","batch3","","137194.60000002384","img/question_5_8.jpeg","2","spm_respsonse","0","6","mat_56","","","","","","0","137194.60000002384","","","","","","","","","","","","","","",""
"","","","","","html-keyboard-response","294","1846862","0.0-3.0-4.0-0.32","632f8a93e8ab0c12e145a101","C3","batch3","","null","<p class=block-text>Trial 57 out of 60</p>","null","spm_show_trial_num","","","","","","","","","","","","","","","","","","","","","","","","",""
"","","","","","image-button-response","295","1889758","0.0-3.0-4.0-1.32","632f8a93e8ab0c12e145a101","C3","batch3","","42891.5","img/question_5_9.jpeg","2","spm_respsonse","1","3","mat_57","","","","","","1","42891.5","","","","","","","","","","","","","","",""
"","","","","","html-keyboard-response","296","1890812","0.0-3.0-4.0-0.33","632f8a93e8ab0c12e145a101","C3","batch3","","null","<p class=block-text>Trial 58 out of 60</p>","null","spm_show_trial_num","","","","","","","","","","","","","","","","","","","","","","","","",""
"","","","","","image-button-response","297","2037584","0.0-3.0-4.0-1.33","632f8a93e8ab0c12e145a101","C3","batch3","","146766.79999995232","img/question_5_10.jpeg","5","spm_respsonse","0","2","mat_58","","","","","","0","146766.79999995232","","","","","","","","","","","","","","",""
"","","","","","html-keyboard-response","298","2038641","0.0-3.0-4.0-0.34","632f8a93e8ab0c12e145a101","C3","batch3","","null","<p class=block-text>Trial 59 out of 60</p>","null","spm_show_trial_num","","","","","","","","","","","","","","","","","","","","","","","","",""
"","","","","","image-button-response","299","2318884","0.0-3.0-4.0-1.34","632f8a93e8ab0c12e145a101","C3","batch3","","280237.60000002384","img/question_5_11.jpeg","2","spm_respsonse","0","4","mat_59","","","","","","0","280237.60000002384","","","","","","","","","","","","","","",""
"","","","","","html-keyboard-response","300","2319937","0.0-3.0-4.0-0.35","632f8a93e8ab0c12e145a101","C3","batch3","","null","<p class=block-text>Trial 60 out of 60</p>","null","spm_show_trial_num","","","","","","","","","","","","","","","","","","","","","","","","",""
"","","","","","image-button-response","301","2374384","0.0-3.0-4.0-1.35","632f8a93e8ab0c12e145a101","C3","batch3","","54444.89999997616","img/question_5_12.jpeg","1","spm_respsonse","0","5","mat_60","","","","","","0","54444.89999997616","","","","","","","","","","","","","","",""
"","","","","","html-button-response","302","2376824","0.0-3.0-5.0","632f8a93e8ab0c12e145a101","C3","batch3","","2187.5","<p class= block-text>This concludes the Standard Progressive Matrix game. Thank you for your responses!<br> When you are ready, click the button continue</p>","0","spm_goodbye","","","","","","","","","","","","","","","","","","","","","","","","",""
"true","","","","","fullscreen","303","2381229","0.0-4.0-0.0","632f8a93e8ab0c12e145a101","C3","batch3","","","","","","","","","","","","","","","","","","","","","","","","","","","","","",""
"","","","","","instructions","304","2482236","0.0-4.0-1.0-0.0-0.0","632f8a93e8ab0c12e145a101","C3","batch3","[{""page_index"":0,""viewing_time"":16965.5},{""page_index"":1,""viewing_time"":9074.899999976158},{""page_index"":0,""viewing_time"":11042.100000023842},{""page_index"":1,""viewing_time"":5661.699999928474},{""page_index"":2,""viewing_time"":6428.700000047684},{""page_index"":3,""viewing_time"":11137.799999952316},{""page_index"":4,""viewing_time"":15802.100000023842},{""page_index"":5,""viewing_time"":20092.299999952316},{""page_index"":6,""viewing_time"":4800.100000023842}]","101005.69999992847","","","tol-instructions","","","","","","","","","","","","","","","","","","","","","","","","",""
"","","","","","html-button-response","305","2483714","0.0-4.0-1.0-1.0-0.0","632f8a93e8ab0c12e145a101","C3","batch3","","1476.8999999761581","<p class=block-text> Let's answer a few questions <br>","0","tol_enter_quiz","","","","","","","","","","","","","","","","","","","","","","","","",""
"","","","","","html-button-response","306","2490622","0.0-4.0-1.0-1.0-1.0","632f8a93e8ab0c12e145a101","C3","batch3","","6906.699999928474","<p class = block-text>True or False: You can only move the ball on top of a peg. <br></p>","0","tol_quiz","true","","","","","","","","","","","","","","","","","","","","","","","",""
"","","","","","html-button-response","307","2492030","0.0-4.0-1.0-1.0-2.0","632f8a93e8ab0c12e145a101","C3","batch3","","1406.5","<p class = block-text>Correct! You can only move the ball on top of a peg.</p>","0","tol_quiz_feedback","","","","","","","","","","","","","","","","","","","","","","","","",""
"","","","","","html-button-response","308","2495645","0.0-4.0-1.0-1.0-3.0","632f8a93e8ab0c12e145a101","C3","batch3","","3613.399999976158","<p class = block-text>True or False: You should try to match your board with the target board with fewest moves possible. <br></p>","0","tol_quiz","true","","","","","","","","","","","","","","","","","","","","","","","",""
"","","","","","html-button-response","309","2496656","0.0-4.0-1.0-1.0-4.0","632f8a93e8ab0c12e145a101","C3","batch3","","1011.2999999523163","<p class = block-text>Correct! </p>","0","tol_quiz_feedback","","","","","","","","","","","","","","","","","","","","","","","","",""
"","","","","","html-button-response","310","2498771","0.0-4.0-2.0","632f8a93e8ab0c12e145a101","C3","batch3","","2113.600000023842","<p class=block-text> Now that you've understood the game, let's practice a few easier examples before we start!<br> <br>","0","","","","","","","","","","","","","","","","","","","","","","","","","",""
"","","","","","single-stim-button","311","2505878","0.0-4.0-3.0-0.0","632f8a93e8ab0c12e145a101","C3","batch3","","7105","","","tol_practice","","","","","","","","","","","tol_peg_2","7105","7105","0","[[1,2,0],[0,0],[0]]","1","[[1,2,0],[0,0],[3]]","practice","7105","","","","","",""
"","","","","","single-stim-button","312","2507467","0.0-4.0-3.0-1.0","632f8a93e8ab0c12e145a101","C3","batch3","","1587","","","tol_practice","","","","","","","","","","","tol_peg_3","1587","1587","0","[[1,2,0],[0,0],[3]]","1","[[1,2,0],[0,0],[3]]","practice","1587","","","","","",""
"","","","","","poldrack-single-stim","313","2508470","0.0-4.0-4.0","632f8a93e8ab0c12e145a101","C3","batch3","","-1","","","tol_feedback","true","","","","","","","","","","","1000","1000","500","","","","","","-1","none","true","","0",""
"","","","","","single-stim-button","314","2511795","0.0-4.0-5.0-0.0","632f8a93e8ab0c12e145a101","C3","batch3","","3323","","","tol_practice","","","","","","","","","","","tol_peg_1","3323","3323","0","[[1,0,0],[3,0],[0]]","2","[[0,0,0],[3,1],[2]]","practice","3323","","","","","",""
"","","","","","single-stim-button","315","2513416","0.0-4.0-5.0-1.0","632f8a93e8ab0c12e145a101","C3","batch3","","1620","","","tol_practice","","","","","","","","","","","tol_peg_3","1620","1620","0","[[1,0,0],[3,0],[2]]","2","[[0,0,0],[3,1],[2]]","practice","1620","","","","","",""
"","","","","","single-stim-button","316","2515987","0.0-4.0-5.1-0.1","632f8a93e8ab0c12e145a101","C3","batch3","","2569","","","tol_practice","","","","","","","","","","","tol_peg_1","2569","2569","0","[[0,0,0],[3,0],[2]]","3","[[0,0,0],[3,1],[2]]","practice","2569","","","","","",""
"","","","","","single-stim-button","317","2516947","0.0-4.0-5.1-1.1","632f8a93e8ab0c12e145a101","C3","batch3","","959","","","tol_practice","","","","","","","","","","","tol_peg_2","959","959","0","[[0,0,0],[3,1],[2]]","3","[[0,0,0],[3,1],[2]]","practice","959","","","","","",""
"","","","","","poldrack-single-stim","318","2517949","0.0-4.0-6.0","632f8a93e8ab0c12e145a101","C3","batch3","","-1","","","tol_feedback","true","","","","","","","","","","","1000","1000","500","","","","","","-1","none","true","","0",""
"","","","","","single-stim-button","319","2521365","0.0-4.0-7.0-0.0","632f8a93e8ab0c12e145a101","C3","batch3","","3414","","","tol_practice","","","","","","","","","","","tol_peg_2","3414","3414","0","[[1,2,0],[0,0],[0]]","4","[[1,0,0],[2,0],[3]]","practice","3414","","","","","",""
"","","","","","single-stim-button","320","2522385","0.0-4.0-7.0-1.0","632f8a93e8ab0c12e145a101","C3","batch3","","1020","","","tol_practice","","","","","","","","","","","tol_peg_3","1020","1020","0","[[1,2,0],[0,0],[3]]","4","[[1,0,0],[2,0],[3]]","practice","1020","","","","","",""
"","","","","","single-stim-button","321","2523345","0.0-4.0-7.1-0.1","632f8a93e8ab0c12e145a101","C3","batch3","","958","","","tol_practice","","","","","","","","","","","tol_peg_1","958","958","0","[[1,0,0],[0,0],[3]]","5","[[1,0,0],[2,0],[3]]","practice","958","","","","","",""
"","","","","","single-stim-button","322","2524171","0.0-4.0-7.1-1.1","632f8a93e8ab0c12e145a101","C3","batch3","","825","","","tol_practice","","","","","","","","","","","tol_peg_2","825","825","0","[[1,0,0],[2,0],[3]]","5","[[1,0,0],[2,0],[3]]","practice","825","","","","","",""
"","","","","","poldrack-single-stim","323","2525174","0.0-4.0-8.0","632f8a93e8ab0c12e145a101","C3","batch3","","-1","","","tol_feedback","true","","","","","","","","","","","1000","1000","500","","","","","","-1","none","true","","0",""
"","","","","","html-button-response","324","2526576","0.0-4.0-9.0","632f8a93e8ab0c12e145a101","C3","batch3","","1399.7999999523163","<div class = centerbox><p class = center-block-text>Great job! You are done with practice trials<br>You are about to start official trials.<br> <br> Problem <strong>1</strong> out of 25 problems</p></div>","0","tol_instruction","","","","","","","","","","","","","","","","","","","","","","","","",""
"","","","","","single-stim-button","325","2531766","0.0-4.0-10.0-0.0","632f8a93e8ab0c12e145a101","C3","batch3","","4176","","","tol_tohand","","","","","","","","","","","tol_peg_2","4176","4176","0","[[1,2,0],[0,0],[0]]","1","[[1,3,0],[2,0],[0]]","0","0","","","","","","3"
"","","","","","single-stim-button","326","2532547","0.0-4.0-10.0-1.0","632f8a93e8ab0c12e145a101","C3","batch3","","780","","","tol_toboard","","","","","","","","","","","tol_peg_3","780","780","0","[[1,2,0],[0,0],[3]]","1","[[1,3,0],[2,0],[0]]","0","0","","","","","","3"
"","","","","","single-stim-button","327","2534235","0.0-4.0-10.1-0.1","632f8a93e8ab0c12e145a101","C3","batch3","","1687","","","tol_tohand","","","","","","","","","","","tol_peg_1","1687","1687","0","[[1,0,0],[0,0],[3]]","2","[[1,3,0],[2,0],[0]]","0","0","","","","","","3"
"","","","","","single-stim-button","328","2534908","0.0-4.0-10.1-1.1","632f8a93e8ab0c12e145a101","C3","batch3","","671","","","tol_toboard","","","","","","","","","","","tol_peg_2","671","671","0","[[1,0,0],[2,0],[3]]","2","[[1,3,0],[2,0],[0]]","0","0","","","","","","3"
"","","","","","single-stim-button","329","2536088","0.0-4.0-10.2-0.2","632f8a93e8ab0c12e145a101","C3","batch3","","1179","","","tol_tohand","","","","","","","","","","","tol_peg_3","1179","1179","0","[[1,0,0],[2,0],[0]]","3","[[1,3,0],[2,0],[0]]","0","0","","","","","","3"
"","","","","","single-stim-button","330","2536943","0.0-4.0-10.2-1.2","632f8a93e8ab0c12e145a101","C3","batch3","","855","","","tol_toboard","","","","","","","","","","","tol_peg_1","855","855","0","[[1,3,0],[2,0],[0]]","3","[[1,3,0],[2,0],[0]]","0","0","","","","","","3"
"","","","","","poldrack-single-stim","331","2537946","0.0-4.0-11.0","632f8a93e8ab0c12e145a101","C3","batch3","","-1","","","tol_feedback","true","","","","","","","","","","","1000","1000","500","","","","","","-1","none","true","4176","7042",""
"","","","","","html-button-response","332","2539227","0.0-4.0-12.0","632f8a93e8ab0c12e145a101","C3","batch3","","1279.6000000238419","<div class = centerbox><p class = center-block-text>problem <strong>2</strong> out of 25 problems</p></div>","0","tol_trial_num","","","","","","","","","","","","","","","","","","","","","","","","",""
"","","","","","single-stim-button","333","2544111","0.0-4.0-13.0-0.0","632f8a93e8ab0c12e145a101","C3","batch3","","4883","","","tol_tohand","","","","","","","","","","","tol_peg_2","4883","4883","0","[[1,2,0],[0,0],[0]]","1","[[2,1,3],[0,0],[0]]","1","0","","","","","","5"
"","","","","","single-stim-button","334","2544915","0.0-4.0-13.0-1.0","632f8a93e8ab0c12e145a101","C3","batch3","","804","","","tol_toboard","","","","","","","","","","","tol_peg_3","804","804","0","[[1,2,0],[0,0],[3]]","1","[[2,1,3],[0,0],[0]]","1","0","","","","","","5"
"","","","","","single-stim-button","335","2553551","0.0-4.0-13.1-0.1","632f8a93e8ab0c12e145a101","C3","batch3","","8635","","","tol_tohand","","","","","","","","","","","tol_peg_1","8635","8635","0","[[1,0,0],[0,0],[3]]","2","[[2,1,3],[0,0],[0]]","1","0","","","","","","5"
"","","","","","single-stim-button","336","2555220","0.0-4.0-13.1-1.1","632f8a93e8ab0c12e145a101","C3","batch3","","1668","","","tol_toboard","","","","","","","","","","","tol_peg_2","1668","1668","0","[[1,0,0],[2,0],[3]]","2","[[2,1,3],[0,0],[0]]","1","0","","","","","","5"
"","","","","","single-stim-button","337","2557492","0.0-4.0-13.2-0.2","632f8a93e8ab0c12e145a101","C3","batch3","","2271","","","tol_tohand","","","","","","","","","","","tol_peg_3","2271","2271","0","[[1,0,0],[2,0],[0]]","3","[[2,1,3],[0,0],[0]]","1","0","","","","","","5"
"","","","","","single-stim-button","338","2558160","0.0-4.0-13.2-1.2","632f8a93e8ab0c12e145a101","C3","batch3","","667","","","tol_toboard","","","","","","","","","","","tol_peg_2","667","667","0","[[1,0,0],[2,3],[0]]","3","[[2,1,3],[0,0],[0]]","1","0","","","","","","5"
"","","","","","single-stim-button","339","2560043","0.0-4.0-13.3-0.3","632f8a93e8ab0c12e145a101","C3","batch3","","1882","","","tol_tohand","","","","","","","","","","","tol_peg_1","1882","1882","0","[[0,0,0],[2,3],[0]]","4","[[2,1,3],[0,0],[0]]","1","0","","","","","","5"
"","","","","","single-stim-button","340","2561303","0.0-4.0-13.3-1.3","632f8a93e8ab0c12e145a101","C3","batch3","","1258","","","tol_toboard","","","","","","","","","","","tol_peg_3","1258","1258","0","[[0,0,0],[2,3],[1]]","4","[[2,1,3],[0,0],[0]]","1","0","","","","","","5"
"","","","","","single-stim-button","341","2565248","0.0-4.0-13.4-0.4","632f8a93e8ab0c12e145a101","C3","batch3","","3944","","","tol_tohand","","","","","","","","","","","tol_peg_2","3944","3944","0","[[0,0,0],[2,0],[1]]","5","[[2,1,3],[0,0],[0]]","1","0","","","","","","5"
"","","","","","single-stim-button","342","2571128","0.0-4.0-13.4-1.4","632f8a93e8ab0c12e145a101","C3","batch3","","5879","","","tol_toboard","","","","","","","","","","","tol_peg_2","5879","5879","0","[[0,0,0],[2,3],[1]]","5","[[2,1,3],[0,0],[0]]","1","0","","","","","","5"
"","","","","","single-stim-button","343","2577688","0.0-4.0-13.5-0.5","632f8a93e8ab0c12e145a101","C3","batch3","","6558","","","tol_tohand","","","","","","","","","","","tol_peg_3","6558","6558","0","[[0,0,0],[2,3],[0]]","6","[[2,1,3],[0,0],[0]]","1","0","","","","","","5"
"","","","","","single-stim-button","344","2578380","0.0-4.0-13.5-1.5","632f8a93e8ab0c12e145a101","C3","batch3","","691","","","tol_toboard","","","","","","","","","","","tol_peg_1","691","691","0","[[1,0,0],[2,3],[0]]","6","[[2,1,3],[0,0],[0]]","1","0","","","","","","5"
"","","","","","single-stim-button","345","2579566","0.0-4.0-13.6-0.6","632f8a93e8ab0c12e145a101","C3","batch3","","1186","","","tol_tohand","","","","","","","","","","","tol_peg_2","1186","1186","0","[[1,0,0],[2,0],[0]]","7","[[2,1,3],[0,0],[0]]","1","0","","","","","","5"
"","","","","","single-stim-button","346","2580530","0.0-4.0-13.6-1.6","632f8a93e8ab0c12e145a101","C3","batch3","","963","","","tol_toboard","","","","","","","","","","","tol_peg_3","963","963","0","[[1,0,0],[2,0],[3]]","7","[[2,1,3],[0,0],[0]]","1","0","","","","","","5"
"","","","","","single-stim-button","347","2583225","0.0-4.0-13.7-0.7","632f8a93e8ab0c12e145a101","C3","batch3","","2695","","","tol_tohand","","","","","","","","","","","tol_peg_2","2695","2695","0","[[1,0,0],[0,0],[3]]","8","[[2,1,3],[0,0],[0]]","1","0","","","","","","5"
