"success","timeout","failed_images","failed_audio","failed_video","trial_type","trial_index","time_elapsed","internal_node_id","subject_id","study_id","session_id","view_history","rt","task","stimulus","response","correct","mouse_click","stim_duration","block_duration","timing_post_trial","current_position","tol_num_moves_made","tol_target","tol_problem_id","tol_rt","key_press","possible_responses","tol_correct","preplanning","tol_rt_per_trial","tol_min_moves","item","answer","spm_correct","spm_rt","fiar_detect_rt","fiar_detect_correct","total_correct_fiar_detect","post_trial_gap","choices"
"true","false","[]","[]","[]","preload","0","3581","0.0-0.0","632f7bec7eb646908138c15c","D2","batch4","","","","","","","","","","","","","","","","","","","","","","","","","","","","","",""
"true","","","","","fullscreen","1","12003","0.0-1.0-0.0","632f7bec7eb646908138c15c","D2","batch4","","","","","","","","","","","","","","","","","","","","","","","","","","","","","",""
"true","","","","","fullscreen","2","15399","0.0-2.0-0.0","632f7bec7eb646908138c15c","D2","batch4","","","","","","","","","","","","","","","","","","","","","","","","","","","","","",""
"","","","","","instructions","3","84664","0.0-2.0-1.0-0.0-0.0","632f7bec7eb646908138c15c","D2","batch4","[{""page_index"":0,""viewing_time"":14465.400000095367},{""page_index"":1,""viewing_time"":5463.5},{""page_index"":2,""viewing_time"":8104.299999952316},{""page_index"":3,""viewing_time"":12538},{""page_index"":4,""viewing_time"":9958.200000047684},{""page_index"":5,""viewing_time"":15945.699999928474},{""page_index"":6,""viewing_time"":2787.899999976158}]","69263.30000007153","tol-instructions","","","","","","","","","","","","","","","","","","","","","","","","","","",""
"","","","","","html-button-response","4","86035","0.0-2.0-1.0-1.0-0.0","632f7bec7eb646908138c15c","D2","batch4","","1369.6000000238419","tol_enter_quiz","<p class=block-text> Let's answer a few questions <br>","0","","","","","","","","","","","","","","","","","","","","","","","","",""
"","","","","","html-button-response","5","92178","0.0-2.0-1.0-1.0-1.0","632f7bec7eb646908138c15c","D2","batch4","","6143.200000047684","tol_quiz","<p class = block-text>True or False: You can only move the ball on top of a peg. <br></p>","0","true","","","","","","","","","","","","","","","","","","","","","","","",""
"","","","","","html-button-response","6","93879","0.0-2.0-1.0-1.0-2.0","632f7bec7eb646908138c15c","D2","batch4","","1699","tol_quiz_feedback","<p class = block-text>Correct! You can only move the ball on top of a peg.</p>","0","","","","","","","","","","","","","","","","","","","","","","","","",""
"","","","","","html-button-response","7","97142","0.0-2.0-1.0-1.0-3.0","632f7bec7eb646908138c15c","D2","batch4","","3263.2999999523163","tol_quiz","<p class = block-text>True or False: You should try to match your board with the target board with fewest moves possible. <br></p>","0","true","","","","","","","","","","","","","","","","","","","","","","","",""
"","","","","","html-button-response","8","97956","0.0-2.0-1.0-1.0-4.0","632f7bec7eb646908138c15c","D2","batch4","","813.2999999523163","tol_quiz_feedback","<p class = block-text>Correct! </p>","0","","","","","","","","","","","","","","","","","","","","","","","","",""
"","","","","","html-button-response","9","98918","0.0-2.0-2.0","632f7bec7eb646908138c15c","D2","batch4","","961.2000000476837","","<p class=block-text> Now that you've understood the game, let's practice a few easier examples before we start!<br> <br>","0","","","","","","","","","","","","","","","","","","","","","","","","",""
"","","","","","single-stim-button","10","100797","0.0-2.0-3.0-0.0","632f7bec7eb646908138c15c","D2","batch4","","1878","tol_practice","","","","tol_peg_2","1878","1878","0","[[1,2,0],[0,0],[0]]","1","[[1,2,0],[0,0],[3]]","practice","1878","","","","","","","","","","","","","","",""
"","","","","","single-stim-button","11","101979","0.0-2.0-3.0-1.0","632f7bec7eb646908138c15c","D2","batch4","","1180","tol_practice","","","","tol_peg_3","1180","1180","0","[[1,2,0],[0,0],[3]]","1","[[1,2,0],[0,0],[3]]","practice","1180","","","","","","","","","","","","","","",""
"","","","","","poldrack-single-stim","12","102983","0.0-2.0-4.0","632f7bec7eb646908138c15c","D2","batch4","","-1","tol_feedback","","","true","","1000","1000","500","","","","","","-1","none","true","","0","","","","","","","","","",""
"","","","","","single-stim-button","13","107168","0.0-2.0-5.0-0.0","632f7bec7eb646908138c15c","D2","batch4","","4185","tol_practice","","","","tol_peg_1","4185","4185","0","[[1,0,0],[3,0],[0]]","2","[[0,0,0],[3,1],[2]]","practice","4185","","","","","","","","","","","","","","",""
"","","","","","single-stim-button","14","108555","0.0-2.0-5.0-1.0","632f7bec7eb646908138c15c","D2","batch4","","1386","tol_practice","","","","tol_peg_3","1386","1386","0","[[1,0,0],[3,0],[2]]","2","[[0,0,0],[3,1],[2]]","practice","1386","","","","","","","","","","","","","","",""
"","","","","","single-stim-button","15","109400","0.0-2.0-5.1-0.1","632f7bec7eb646908138c15c","D2","batch4","","845","tol_practice","","","","tol_peg_1","845","845","0","[[0,0,0],[3,0],[2]]","3","[[0,0,0],[3,1],[2]]","practice","845","","","","","","","","","","","","","","",""
"","","","","","single-stim-button","16","110252","0.0-2.0-5.1-1.1","632f7bec7eb646908138c15c","D2","batch4","","851","tol_practice","","","","tol_peg_2","851","851","0","[[0,0,0],[3,1],[2]]","3","[[0,0,0],[3,1],[2]]","practice","851","","","","","","","","","","","","","","",""
"","","","","","poldrack-single-stim","17","111263","0.0-2.0-6.0","632f7bec7eb646908138c15c","D2","batch4","","-1","tol_feedback","","","true","","1000","1000","500","","","","","","-1","none","true","","0","","","","","","","","","",""
"","","","","","single-stim-button","18","114847","0.0-2.0-7.0-0.0","632f7bec7eb646908138c15c","D2","batch4","","3582","tol_practice","","","","tol_peg_2","3582","3582","0","[[1,2,0],[0,0],[0]]","4","[[1,0,0],[2,0],[3]]","practice","3582","","","","","","","","","","","","","","",""
"","","","","","single-stim-button","19","116374","0.0-2.0-7.0-1.0","632f7bec7eb646908138c15c","D2","batch4","","1527","tol_practice","","","","tol_peg_3","1527","1527","0","[[1,2,0],[0,0],[3]]","4","[[1,0,0],[2,0],[3]]","practice","1527","","","","","","","","","","","","","","",""
"","","","","","single-stim-button","20","117038","0.0-2.0-7.1-0.1","632f7bec7eb646908138c15c","D2","batch4","","663","tol_practice","","","","tol_peg_1","663","663","0","[[1,0,0],[0,0],[3]]","5","[[1,0,0],[2,0],[3]]","practice","663","","","","","","","","","","","","","","",""
"","","","","","single-stim-button","21","117994","0.0-2.0-7.1-1.1","632f7bec7eb646908138c15c","D2","batch4","","955","tol_practice","","","","tol_peg_2","955","955","0","[[1,0,0],[2,0],[3]]","5","[[1,0,0],[2,0],[3]]","practice","955","","","","","","","","","","","","","","",""
"","","","","","poldrack-single-stim","22","119007","0.0-2.0-8.0","632f7bec7eb646908138c15c","D2","batch4","","-1","tol_feedback","","","true","","1000","1000","500","","","","","","-1","none","true","","0","","","","","","","","","",""
"","","","","","html-button-response","23","122010","0.0-2.0-9.0","632f7bec7eb646908138c15c","D2","batch4","","3001.899999976158","tol_instruction","<div class = centerbox><p class = center-block-text>Great job! You are done with practice trials<br>You are about to start official trials.<br> <br> Problem <strong>1</strong> out of 25 problems</p></div>","0","","","","","","","","","","","","","","","","","","","","","","","","",""
"","","","","","single-stim-button","24","126204","0.0-2.0-10.0-0.0","632f7bec7eb646908138c15c","D2","batch4","","3179","tol_tohand","","","","tol_peg_2","3179","3179","0","[[1,2,0],[0,0],[0]]","1","[[1,3,0],[2,0],[0]]","0","0","","","","","","3","","","","","","","","",""
"","","","","","single-stim-button","25","129272","0.0-2.0-10.0-1.0","632f7bec7eb646908138c15c","D2","batch4","","3067","tol_toboard","","","","tol_peg_3","3067","3067","0","[[1,2,0],[0,0],[3]]","1","[[1,3,0],[2,0],[0]]","0","0","","","","","","3","","","","","","","","",""
"","","","","","single-stim-button","26","129992","0.0-2.0-10.1-0.1","632f7bec7eb646908138c15c","D2","batch4","","719","tol_tohand","","","","tol_peg_1","719","719","0","[[1,0,0],[0,0],[3]]","2","[[1,3,0],[2,0],[0]]","0","0","","","","","","3","","","","","","","","",""
"","","","","","single-stim-button","27","130908","0.0-2.0-10.1-1.1","632f7bec7eb646908138c15c","D2","batch4","","916","tol_toboard","","","","tol_peg_2","916","916","0","[[1,0,0],[2,0],[3]]","2","[[1,3,0],[2,0],[0]]","0","0","","","","","","3","","","","","","","","",""
"","","","","","single-stim-button","28","131604","0.0-2.0-10.2-0.2","632f7bec7eb646908138c15c","D2","batch4","","695","tol_tohand","","","","tol_peg_3","695","695","0","[[1,0,0],[2,0],[0]]","3","[[1,3,0],[2,0],[0]]","0","0","","","","","","3","","","","","","","","",""
"","","","","","single-stim-button","29","132740","0.0-2.0-10.2-1.2","632f7bec7eb646908138c15c","D2","batch4","","1136","tol_toboard","","","","tol_peg_1","1136","1136","0","[[1,3,0],[2,0],[0]]","3","[[1,3,0],[2,0],[0]]","0","0","","","","","","3","","","","","","","","",""
"","","","","","poldrack-single-stim","30","133746","0.0-2.0-11.0","632f7bec7eb646908138c15c","D2","batch4","","-1","tol_feedback","","","true","","1000","1000","500","","","","","","-1","none","true","3179","4593","","","","","","","","","",""
"","","","","","html-button-response","31","134712","0.0-2.0-12.0","632f7bec7eb646908138c15c","D2","batch4","","964.6000000238419","tol_trial_num","<div class = centerbox><p class = center-block-text>problem <strong>2</strong> out of 25 problems</p></div>","0","","","","","","","","","","","","","","","","","","","","","","","","",""
"","","","","","single-stim-button","32","138632","0.0-2.0-13.0-0.0","632f7bec7eb646908138c15c","D2","batch4","","3919","tol_tohand","","","","tol_peg_1","3919","3919","0","[[1,0,0],[3,0],[0]]","1","[[2,1,3],[0,0],[0]]","1","0","","","","","","5","","","","","","","","",""
"","","","","","single-stim-button","33","141638","0.0-2.0-13.0-1.0","632f7bec7eb646908138c15c","D2","batch4","","3005","tol_toboard","","","","tol_peg_2","3005","3005","0","[[1,0,0],[3,2],[0]]","1","[[2,1,3],[0,0],[0]]","1","0","","","","","","5","","","","","","","","",""
"","","","","","single-stim-button","34","142210","0.0-2.0-13.1-0.1","632f7bec7eb646908138c15c","D2","batch4","","571","tol_tohand","","","","tol_peg_1","571","571","0","[[0,0,0],[3,2],[0]]","2","[[2,1,3],[0,0],[0]]","1","0","","","","","","5","","","","","","","","",""
"","","","","","single-stim-button","35","143236","0.0-2.0-13.1-1.1","632f7bec7eb646908138c15c","D2","batch4","","1025","tol_toboard","","","","tol_peg_3","1025","1025","0","[[0,0,0],[3,2],[1]]","2","[[2,1,3],[0,0],[0]]","1","0","","","","","","5","","","","","","","","",""
"","","","","","single-stim-button","36","144840","0.0-2.0-13.2-0.2","632f7bec7eb646908138c15c","D2","batch4","","1603","tol_tohand","","","","tol_peg_2","1603","1603","0","[[0,0,0],[3,0],[1]]","3","[[2,1,3],[0,0],[0]]","1","0","","","","","","5","","","","","","","","",""
"","","","","","single-stim-button","37","145934","0.0-2.0-13.2-1.2","632f7bec7eb646908138c15c","D2","batch4","","1093","tol_toboard","","","","tol_peg_1","1093","1093","0","[[2,0,0],[3,0],[1]]","3","[[2,1,3],[0,0],[0]]","1","0","","","","","","5","","","","","","","","",""
"","","","","","single-stim-button","38","146796","0.0-2.0-13.3-0.3","632f7bec7eb646908138c15c","D2","batch4","","861","tol_tohand","","","","tol_peg_3","861","861","0","[[2,0,0],[3,0],[0]]","4","[[2,1,3],[0,0],[0]]","1","0","","","","","","5","","","","","","","","",""
"","","","","","single-stim-button","39","147986","0.0-2.0-13.3-1.3","632f7bec7eb646908138c15c","D2","batch4","","1189","tol_toboard","","","","tol_peg_1","1189","1189","0","[[2,1,0],[3,0],[0]]","4","[[2,1,3],[0,0],[0]]","1","0","","","","","","5","","","","","","","","",""
"","","","","","single-stim-button","40","148650","0.0-2.0-13.4-0.4","632f7bec7eb646908138c15c","D2","batch4","","663","tol_tohand","","","","tol_peg_2","663","663","0","[[2,1,0],[0,0],[0]]","5","[[2,1,3],[0,0],[0]]","1","0","","","","","","5","","","","","","","","",""
"","","","","","single-stim-button","41","149684","0.0-2.0-13.4-1.4","632f7bec7eb646908138c15c","D2","batch4","","1034","tol_toboard","","","","tol_peg_1","1034","1034","0","[[2,1,3],[0,0],[0]]","5","[[2,1,3],[0,0],[0]]","1","0","","","","","","5","","","","","","","","",""
"","","","","","poldrack-single-stim","42","150686","0.0-2.0-14.0","632f7bec7eb646908138c15c","D2","batch4","","-1","tol_feedback","","","true","","1000","1000","500","","","","","","-1","none","true","3919","7617","","","","","","","","","",""
"","","","","","html-button-response","43","152132","0.0-2.0-15.0","632f7bec7eb646908138c15c","D2","batch4","","1445.1000000238419","tol_trial_num","<div class = centerbox><p class = center-block-text>problem <strong>3</strong> out of 25 problems</p></div>","0","","","","","","","","","","","","","","","","","","","","","","","","",""
"","","","","","single-stim-button","44","155914","0.0-2.0-16.0-0.0","632f7bec7eb646908138c15c","D2","batch4","","3781","tol_tohand","","","","tol_peg_1","3781","3781","0","[[2,0,0],[0,0],[1]]","1","[[1,2,0],[3,0],[0]]","2","0","","","","","","4","","","","","","","","",""
"","","","","","single-stim-button","45","156822","0.0-2.0-16.0-1.0","632f7bec7eb646908138c15c","D2","batch4","","907","tol_toboard","","","","tol_peg_2","907","907","0","[[2,0,0],[3,0],[1]]","1","[[1,2,0],[3,0],[0]]","2","0","","","","","","4","","","","","","","","",""
"","","","","","single-stim-button","46","159012","0.0-2.0-16.1-0.1","632f7bec7eb646908138c15c","D2","batch4","","2189","tol_tohand","","","","tol_peg_1","2189","2189","0","[[0,0,0],[3,0],[1]]","2","[[1,2,0],[3,0],[0]]","2","0","","","","","","4","","","","","","","","",""
"","","","","","single-stim-button","47","160382","0.0-2.0-16.1-1.1","632f7bec7eb646908138c15c","D2","batch4","","1369","tol_toboard","","","","tol_peg_2","1369","1369","0","[[0,0,0],[3,2],[1]]","2","[[1,2,0],[3,0],[0]]","2","0","","","","","","4","","","","","","","","",""
"","","","","","single-stim-button","48","160976","0.0-2.0-16.2-0.2","632f7bec7eb646908138c15c","D2","batch4","","594","tol_tohand","","","","tol_peg_3","594","594","0","[[0,0,0],[3,2],[0]]","3","[[1,2,0],[3,0],[0]]","2","0","","","","","","4","","","","","","","","",""
"","","","","","single-stim-button","49","162144","0.0-2.0-16.2-1.2","632f7bec7eb646908138c15c","D2","batch4","","1168","tol_toboard","","","","tol_peg_1","1168","1168","0","[[1,0,0],[3,2],[0]]","3","[[1,2,0],[3,0],[0]]","2","0","","","","","","4","","","","","","","","",""
"","","","","","single-stim-button","50","162932","0.0-2.0-16.3-0.3","632f7bec7eb646908138c15c","D2","batch4","","787","tol_tohand","","","","tol_peg_2","787","787","0","[[1,0,0],[3,0],[0]]","4","[[1,2,0],[3,0],[0]]","2","0","","","","","","4","","","","","","","","",""
"","","","","","single-stim-button","51","163574","0.0-2.0-16.3-1.3","632f7bec7eb646908138c15c","D2","batch4","","642","tol_toboard","","","","tol_peg_1","642","642","0","[[1,2,0],[3,0],[0]]","4","[[1,2,0],[3,0],[0]]","2","0","","","","","","4","","","","","","","","",""
"","","","","","poldrack-single-stim","52","164579","0.0-2.0-17.0","632f7bec7eb646908138c15c","D2","batch4","","-1","tol_feedback","","","true","","1000","1000","500","","","","","","-1","none","true","3781","7351","","","","","","","","","",""
"","","","","","html-button-response","53","165876","0.0-2.0-18.0","632f7bec7eb646908138c15c","D2","batch4","","1296.5","tol_trial_num","<div class = centerbox><p class = center-block-text>problem <strong>4</strong> out of 25 problems</p></div>","0","","","","","","","","","","","","","","","","","","","","","","","","",""
"","","","","","single-stim-button","54","169860","0.0-2.0-19.0-0.0","632f7bec7eb646908138c15c","D2","batch4","","3983","tol_tohand","","","","tol_peg_2","3983","3983","0","[[3,0,0],[2,0],[0]]","1","[[3,0,0],[1,0],[2]]","3","0","","","","","","3","","","","","","","","",""
"","","","","","single-stim-button","55","171448","0.0-2.0-19.0-1.0","632f7bec7eb646908138c15c","D2","batch4","","1587","tol_toboard","","","","tol_peg_1","1587","1587","0","[[3,1,0],[2,0],[0]]","1","[[3,0,0],[1,0],[2]]","3","0","","","","","","3","","","","","","","","",""
"","","","","","single-stim-button","56","172176","0.0-2.0-19.1-0.1","632f7bec7eb646908138c15c","D2","batch4","","728","tol_tohand","","","","tol_peg_2","728","728","0","[[3,1,0],[0,0],[0]]","2","[[3,0,0],[1,0],[2]]","3","0","","","","","","3","","","","","","","","",""
"","","","","","single-stim-button","57","173304","0.0-2.0-19.1-1.1","632f7bec7eb646908138c15c","D2","batch4","","1127","tol_toboard","","","","tol_peg_3","1127","1127","0","[[3,1,0],[0,0],[2]]","2","[[3,0,0],[1,0],[2]]","3","0","","","","","","3","","","","","","","","",""
"","","","","","single-stim-button","58","174054","0.0-2.0-19.2-0.2","632f7bec7eb646908138c15c","D2","batch4","","749","tol_tohand","","","","tol_peg_1","749","749","0","[[3,0,0],[0,0],[2]]","3","[[3,0,0],[1,0],[2]]","3","0","","","","","","3","","","","","","","","",""
"","","","","","single-stim-button","59","174995","0.0-2.0-19.2-1.2","632f7bec7eb646908138c15c","D2","batch4","","941","tol_toboard","","","","tol_peg_2","941","941","0","[[3,0,0],[1,0],[2]]","3","[[3,0,0],[1,0],[2]]","3","0","","","","","","3","","","","","","","","",""
"","","","","","poldrack-single-stim","60","176006","0.0-2.0-20.0","632f7bec7eb646908138c15c","D2","batch4","","-1","tol_feedback","","","true","","1000","1000","500","","","","","","-1","none","true","3983","5460","","","","","","","","","",""
"","","","","","html-button-response","61","177256","0.0-2.0-21.0","632f7bec7eb646908138c15c","D2","batch4","","1249","tol_trial_num","<div class = centerbox><p class = center-block-text>problem <strong>5</strong> out of 25 problems</p></div>","0","","","","","","","","","","","","","","","","","","","","","","","","",""
"","","","","","single-stim-button","62","180904","0.0-2.0-22.0-0.0","632f7bec7eb646908138c15c","D2","batch4","","3648","tol_tohand","","","","tol_peg_3","3648","3648","0","[[1,0,0],[2,0],[0]]","1","[[0,0,0],[1,2],[3]]","4","0","","","","","","7","","","","","","","","",""
"","","","","","single-stim-button","63","182030","0.0-2.0-22.0-1.0","632f7bec7eb646908138c15c","D2","batch4","","1125","tol_toboard","","","","tol_peg_1","1125","1125","0","[[1,3,0],[2,0],[0]]","1","[[0,0,0],[1,2],[3]]","4","0","","","","","","7","","","","","","","","",""
"","","","","","single-stim-button","64","184996","0.0-2.0-22.1-0.1","632f7bec7eb646908138c15c","D2","batch4","","2966","tol_tohand","","","","tol_peg_2","2966","2966","0","[[1,3,0],[0,0],[0]]","2","[[0,0,0],[1,2],[3]]","4","0","","","","","","7","","","","","","","","",""
"","","","","","single-stim-button","65","185654","0.0-2.0-22.1-1.1","632f7bec7eb646908138c15c","D2","batch4","","657","tol_toboard","","","","tol_peg_3","657","657","0","[[1,3,0],[0,0],[2]]","2","[[0,0,0],[1,2],[3]]","4","0","","","","","","7","","","","","","","","",""
"","","","","","single-stim-button","66","187854","0.0-2.0-22.2-0.2","632f7bec7eb646908138c15c","D2","batch4","","2200","tol_tohand","","","","tol_peg_1","2200","2200","0","[[1,0,0],[0,0],[2]]","3","[[0,0,0],[1,2],[3]]","4","0","","","","","","7","","","","","","","","",""
"","","","","","single-stim-button","67","192174","0.0-2.0-22.2-1.2","632f7bec7eb646908138c15c","D2","batch4","","4320","tol_toboard","","","","tol_peg_2","4320","4320","0","[[1,0,0],[3,0],[2]]","3","[[0,0,0],[1,2],[3]]","4","0","","","","","","7","","","","","","","","",""
"","","","","","single-stim-button","68","195296","0.0-2.0-22.3-0.3","632f7bec7eb646908138c15c","D2","batch4","","3122","tol_tohand","","","","tol_peg_1","3122","3122","0","[[0,0,0],[3,0],[2]]","4","[[0,0,0],[1,2],[3]]","4","0","","","","","","7","","","","","","","","",""
"","","","","","single-stim-button","69","196830","0.0-2.0-22.3-1.3","632f7bec7eb646908138c15c","D2","batch4","","1534","tol_toboard","","","","tol_peg_2","1534","1534","0","[[0,0,0],[3,1],[2]]","4","[[0,0,0],[1,2],[3]]","4","0","","","","","","7","","","","","","","","",""
"","","","","","single-stim-button","70","197386","0.0-2.0-22.4-0.4","632f7bec7eb646908138c15c","D2","batch4","","556","tol_tohand","","","","tol_peg_3","556","556","0","[[0,0,0],[3,1],[0]]","5","[[0,0,0],[1,2],[3]]","4","0","","","","","","7","","","","","","","","",""
"","","","","","single-stim-button","71","198686","0.0-2.0-22.4-1.4","632f7bec7eb646908138c15c","D2","batch4","","1300","tol_toboard","","","","tol_peg_1","1300","1300","0","[[2,0,0],[3,1],[0]]","5","[[0,0,0],[1,2],[3]]","4","0","","","","","","7","","","","","","","","",""
"","","","","","single-stim-button","72","199312","0.0-2.0-22.5-0.5","632f7bec7eb646908138c15c","D2","batch4","","626","tol_tohand","","","","tol_peg_2","626","626","0","[[2,0,0],[3,0],[0]]","6","[[0,0,0],[1,2],[3]]","4","0","","","","","","7","","","","","","","","",""
"","","","","","single-stim-button","73","201048","0.0-2.0-22.5-1.5","632f7bec7eb646908138c15c","D2","batch4","","1736","tol_toboard","","","","tol_peg_3","1736","1736","0","[[2,0,0],[3,0],[1]]","6","[[0,0,0],[1,2],[3]]","4","0","","","","","","7","","","","","","","","",""
"","","","","","single-stim-button","74","201744","0.0-2.0-22.6-0.6","632f7bec7eb646908138c15c","D2","batch4","","696","tol_tohand","","","","tol_peg_1","696","696","0","[[0,0,0],[3,0],[1]]","7","[[0,0,0],[1,2],[3]]","4","0","","","","","","7","","","","","","","","",""
"","","","","","single-stim-button","75","211607","0.0-2.0-22.6-1.6","632f7bec7eb646908138c15c","D2","batch4","","9863","tol_toboard","","","","tol_peg_1","9863","9863","0","[[2,0,0],[3,0],[1]]","7","[[0,0,0],[1,2],[3]]","4","0","","","","","","7","","","","","","","","",""
"","","","","","single-stim-button","76","212178","0.0-2.0-22.7-0.7","632f7bec7eb646908138c15c","D2","batch4","","570","tol_tohand","","","","tol_peg_2","570","570","0","[[2,0,0],[0,0],[1]]","8","[[0,0,0],[1,2],[3]]","4","0","","","","","","7","","","","","","","","",""
"","","","","","single-stim-button","77","213462","0.0-2.0-22.7-1.7","632f7bec7eb646908138c15c","D2","batch4","","1284","tol_toboard","","","","tol_peg_1","1284","1284","0","[[2,3,0],[0,0],[1]]","8","[[0,0,0],[1,2],[3]]","4","0","","","","","","7","","","","","","","","",""
"","","","","","single-stim-button","78","213994","0.0-2.0-22.8-0.8","632f7bec7eb646908138c15c","D2","batch4","","532","tol_tohand","","","","tol_peg_3","532","532","0","[[2,3,0],[0,0],[0]]","9","[[0,0,0],[1,2],[3]]","4","0","","","","","","7","","","","","","","","",""
"","","","","","single-stim-button","79","215920","0.0-2.0-22.8-1.8","632f7bec7eb646908138c15c","D2","batch4","","1926","tol_toboard","","","","tol_peg_2","1926","1926","0","[[2,3,0],[1,0],[0]]","9","[[0,0,0],[1,2],[3]]","4","0","","","","","","7","","","","","","","","",""
"","","","","","single-stim-button","80","216726","0.0-2.0-22.9-0.9","632f7bec7eb646908138c15c","D2","batch4","","806","tol_tohand","","","","tol_peg_1","806","806","0","[[2,0,0],[1,0],[0]]","10","[[0,0,0],[1,2],[3]]","4","0","","","","","","7","","","","","","","","",""
"","","","","","single-stim-button","81","217728","0.0-2.0-22.9-1.9","632f7bec7eb646908138c15c","D2","batch4","","1002","tol_toboard","","","","tol_peg_3","1002","1002","0","[[2,0,0],[1,0],[3]]","10","[[0,0,0],[1,2],[3]]","4","0","","","","","","7","","","","","","","","",""
"","","","","","single-stim-button","82","218416","0.0-2.0-22.10-0.10","632f7bec7eb646908138c15c","D2","batch4","","688","tol_tohand","","","","tol_peg_1","688","688","0","[[0,0,0],[1,0],[3]]","11","[[0,0,0],[1,2],[3]]","4","0","","","","","","7","","","","","","","","",""
"","","","","","single-stim-button","83","219182","0.0-2.0-22.10-1.10","632f7bec7eb646908138c15c","D2","batch4","","766","tol_toboard","","","","tol_peg_2","766","766","0","[[0,0,0],[1,2],[3]]","11","[[0,0,0],[1,2],[3]]","4","0","","","","","","7","","","","","","","","",""
"","","","","","poldrack-single-stim","84","220184","0.0-2.0-23.0","632f7bec7eb646908138c15c","D2","batch4","","-1","tol_feedback","","","true","","1000","1000","500","","","","","","-1","none","true","3648","16410","","","","","","","","","",""
"","","","","","html-button-response","85","221422","0.0-2.0-24.0","632f7bec7eb646908138c15c","D2","batch4","","1237","tol_trial_num","<div class = centerbox><p class = center-block-text>problem <strong>6</strong> out of 25 problems</p></div>","0","","","","","","","","","","","","","","","","","","","","","","","","",""
"","","","","","single-stim-button","86","224786","0.0-2.0-25.0-0.0","632f7bec7eb646908138c15c","D2","batch4","","3364","tol_tohand","","","","tol_peg_2","3364","3364","0","[[0,0,0],[1,0],[3]]","1","[[1,0,0],[2,3],[0]]","5","0","","","","","","6","","","","","","","","",""
"","","","","","single-stim-button","87","226744","0.0-2.0-25.0-1.0","632f7bec7eb646908138c15c","D2","batch4","","1958","tol_toboard","","","","tol_peg_2","1958","1958","0","[[0,0,0],[1,2],[3]]","1","[[1,0,0],[2,3],[0]]","5","0","","","","","","6","","","","","","","","",""
"","","","","","single-stim-button","88","227370","0.0-2.0-25.1-0.1","632f7bec7eb646908138c15c","D2","batch4","","626","tol_tohand","","","","tol_peg_3","626","626","0","[[0,0,0],[1,2],[0]]","2","[[1,0,0],[2,3],[0]]","5","0","","","","","","6","","","","","","","","",""
"","","","","","single-stim-button","89","229216","0.0-2.0-25.1-1.1","632f7bec7eb646908138c15c","D2","batch4","","1846","tol_toboard","","","","tol_peg_1","1846","1846","0","[[3,0,0],[1,2],[0]]","2","[[1,0,0],[2,3],[0]]","5","0","","","","","","6","","","","","","","","",""
"","","","","","single-stim-button","90","230256","0.0-2.0-25.2-0.2","632f7bec7eb646908138c15c","D2","batch4","","1040","tol_tohand","","","","tol_peg_2","1040","1040","0","[[3,0,0],[1,0],[0]]","3","[[1,0,0],[2,3],[0]]","5","0","","","","","","6","","","","","","","","",""
"","","","","","single-stim-button","91","231548","0.0-2.0-25.2-1.2","632f7bec7eb646908138c15c","D2","batch4","","1292","tol_toboard","","","","tol_peg_3","1292","1292","0","[[3,0,0],[1,0],[2]]","3","[[1,0,0],[2,3],[0]]","5","0","","","","","","6","","","","","","","","",""
"","","","","","single-stim-button","92","234084","0.0-2.0-25.3-0.3","632f7bec7eb646908138c15c","D2","batch4","","2536","tol_tohand","","","","tol_peg_2","2536","2536","0","[[3,0,0],[0,0],[2]]","4","[[1,0,0],[2,3],[0]]","5","0","","","","","","6","","","","","","","","",""
"","","","","","single-stim-button","93","235194","0.0-2.0-25.3-1.3","632f7bec7eb646908138c15c","D2","batch4","","1110","tol_toboard","","","","tol_peg_1","1110","1110","0","[[3,1,0],[0,0],[2]]","4","[[1,0,0],[2,3],[0]]","5","0","","","","","","6","","","","","","","","",""
"","","","","","single-stim-button","94","236024","0.0-2.0-25.4-0.4","632f7bec7eb646908138c15c","D2","batch4","","830","tol_tohand","","","","tol_peg_3","830","830","0","[[3,1,0],[0,0],[0]]","5","[[1,0,0],[2,3],[0]]","5","0","","","","","","6","","","","","","","","",""
"","","","","","single-stim-button","95","237386","0.0-2.0-25.4-1.4","632f7bec7eb646908138c15c","D2","batch4","","1362","tol_toboard","","","","tol_peg_2","1362","1362","0","[[3,1,0],[2,0],[0]]","5","[[1,0,0],[2,3],[0]]","5","0","","","","","","6","","","","","","","","",""
"","","","","","single-stim-button","96","238738","0.0-2.0-25.5-0.5","632f7bec7eb646908138c15c","D2","batch4","","1352","tol_tohand","","","","tol_peg_1","1352","1352","0","[[3,0,0],[2,0],[0]]","6","[[1,0,0],[2,3],[0]]","5","0","","","","","","6","","","","","","","","",""
"","","","","","single-stim-button","97","240884","0.0-2.0-25.5-1.5","632f7bec7eb646908138c15c","D2","batch4","","2146","tol_toboard","","","","tol_peg_2","2146","2146","0","[[3,0,0],[2,1],[0]]","6","[[1,0,0],[2,3],[0]]","5","0","","","","","","6","","","","","","","","",""
"","","","","","single-stim-button","98","241580","0.0-2.0-25.6-0.6","632f7bec7eb646908138c15c","D2","batch4","","696","tol_tohand","","","","tol_peg_1","696","696","0","[[0,0,0],[2,1],[0]]","7","[[1,0,0],[2,3],[0]]","5","0","","","","","","6","","","","","","","","",""
"","","","","","single-stim-button","99","242558","0.0-2.0-25.6-1.6","632f7bec7eb646908138c15c","D2","batch4","","978","tol_toboard","","","","tol_peg_3","978","978","0","[[0,0,0],[2,1],[3]]","7","[[1,0,0],[2,3],[0]]","5","0","","","","","","6","","","","","","","","",""
"","","","","","single-stim-button","100","243168","0.0-2.0-25.7-0.7","632f7bec7eb646908138c15c","D2","batch4","","610","tol_tohand","","","","tol_peg_2","610","610","0","[[0,0,0],[2,0],[3]]","8","[[1,0,0],[2,3],[0]]","5","0","","","","","","6","","","","","","","","",""
"","","","","","single-stim-button","101","244788","0.0-2.0-25.7-1.7","632f7bec7eb646908138c15c","D2","batch4","","1620","tol_toboard","","","","tol_peg_1","1620","1620","0","[[1,0,0],[2,0],[3]]","8","[[1,0,0],[2,3],[0]]","5","0","","","","","","6","","","","","","","","",""
"","","","","","single-stim-button","102","245344","0.0-2.0-25.8-0.8","632f7bec7eb646908138c15c","D2","batch4","","556","tol_tohand","","","","tol_peg_3","556","556","0","[[1,0,0],[2,0],[0]]","9","[[1,0,0],[2,3],[0]]","5","0","","","","","","6","","","","","","","","",""
"","","","","","single-stim-button","103","246040","0.0-2.0-25.8-1.8","632f7bec7eb646908138c15c","D2","batch4","","696","tol_toboard","","","","tol_peg_2","696","696","0","[[1,0,0],[2,3],[0]]","9","[[1,0,0],[2,3],[0]]","5","0","","","","","","6","","","","","","","","",""
"","","","","","poldrack-single-stim","104","247045","0.0-2.0-26.0","632f7bec7eb646908138c15c","D2","batch4","","-1","tol_feedback","","","true","","1000","1000","500","","","","","","-1","none","true","3364","11610","","","","","","","","","",""
"","","","","","html-button-response","105","247966","0.0-2.0-27.0","632f7bec7eb646908138c15c","D2","batch4","","920.5","tol_trial_num","<div class = centerbox><p class = center-block-text>problem <strong>7</strong> out of 25 problems</p></div>","0","","","","","","","","","","","","","","","","","","","","","","","","",""
"","","","","","single-stim-button","106","255604","0.0-2.0-28.0-0.0","632f7bec7eb646908138c15c","D2","batch4","","7638","tol_tohand","","","","tol_peg_1","7638","7638","0","[[2,0,0],[0,0],[3]]","1","[[1,2,0],[3,0],[0]]","6","0","","","","","","5","","","","","","","","",""
"","","","","","single-stim-button","107","256944","0.0-2.0-28.0-1.0","632f7bec7eb646908138c15c","D2","batch4","","1340","tol_toboard","","","","tol_peg_2","1340","1340","0","[[2,0,0],[1,0],[3]]","1","[[1,2,0],[3,0],[0]]","6","0","","","","","","5","","","","","","","","",""
"","","","","","single-stim-button","108","257444","0.0-2.0-28.1-0.1","632f7bec7eb646908138c15c","D2","batch4","","500","tol_tohand","","","","tol_peg_1","500","500","0","[[0,0,0],[1,0],[3]]","2","[[1,2,0],[3,0],[0]]","6","0","","","","","","5","","","","","","","","",""
"","","","","","single-stim-button","109","257906","0.0-2.0-28.1-1.1","632f7bec7eb646908138c15c","D2","batch4","","462","tol_toboard","","","","tol_peg_2","462","462","0","[[0,0,0],[1,2],[3]]","2","[[1,2,0],[3,0],[0]]","6","0","","","","","","5","","","","","","","","",""
"","","","","","single-stim-button","110","261780","0.0-2.0-28.2-0.2","632f7bec7eb646908138c15c","D2","batch4","","3874","tol_tohand","","","","tol_peg_3","3874","3874","0","[[0,0,0],[1,2],[0]]","3","[[1,2,0],[3,0],[0]]","6","0","","","","","","5","","","","","","","","",""
"","","","","","single-stim-button","111","263354","0.0-2.0-28.2-1.2","632f7bec7eb646908138c15c","D2","batch4","","1574","tol_toboard","","","","tol_peg_1","1574","1574","0","[[3,0,0],[1,2],[0]]","3","[[1,2,0],[3,0],[0]]","6","0","","","","","","5","","","","","","","","",""
"","","","","","single-stim-button","112","263784","0.0-2.0-28.3-0.3","632f7bec7eb646908138c15c","D2","batch4","","430","tol_tohand","","","","tol_peg_2","430","430","0","[[3,0,0],[1,0],[0]]","4","[[1,2,0],[3,0],[0]]","6","0","","","","","","5","","","","","","","","",""
"","","","","","single-stim-button","113","264816","0.0-2.0-28.3-1.3","632f7bec7eb646908138c15c","D2","batch4","","1032","tol_toboard","","","","tol_peg_3","1032","1032","0","[[3,0,0],[1,0],[2]]","4","[[1,2,0],[3,0],[0]]","6","0","","","","","","5","","","","","","","","",""
"","","","","","single-stim-button","114","266500","0.0-2.0-28.4-0.4","632f7bec7eb646908138c15c","D2","batch4","","1684","tol_tohand","","","","tol_peg_1","1684","1684","0","[[0,0,0],[1,0],[2]]","5","[[1,2,0],[3,0],[0]]","6","0","","","","","","5","","","","","","","","",""
"","","","","","single-stim-button","115","268126","0.0-2.0-28.4-1.4","632f7bec7eb646908138c15c","D2","batch4","","1626","tol_toboard","","","","tol_peg_2","1626","1626","0","[[0,0,0],[1,3],[2]]","5","[[1,2,0],[3,0],[0]]","6","0","","","","","","5","","","","","","","","",""
"","","","","","single-stim-button","116","274460","0.0-2.0-28.5-0.5","632f7bec7eb646908138c15c","D2","batch4","","6334","tol_tohand","","","","tol_peg_3","6334","6334","0","[[0,0,0],[1,3],[0]]","6","[[1,2,0],[3,0],[0]]","6","0","","","","","","5","","","","","","","","",""
"","","","","","single-stim-button","117","275868","0.0-2.0-28.5-1.5","632f7bec7eb646908138c15c","D2","batch4","","1408","tol_toboard","","","","tol_peg_1","1408","1408","0","[[2,0,0],[1,3],[0]]","6","[[1,2,0],[3,0],[0]]","6","0","","","","","","5","","","","","","","","",""
"","","","","","single-stim-button","118","276526","0.0-2.0-28.6-0.6","632f7bec7eb646908138c15c","D2","batch4","","658","tol_tohand","","","","tol_peg_2","658","658","0","[[2,0,0],[1,0],[0]]","7","[[1,2,0],[3,0],[0]]","6","0","","","","","","5","","","","","","","","",""
"","","","","","single-stim-button","119","277308","0.0-2.0-28.6-1.6","632f7bec7eb646908138c15c","D2","batch4","","782","tol_toboard","","","","tol_peg_3","782","782","0","[[2,0,0],[1,0],[3]]","7","[[1,2,0],[3,0],[0]]","6","0","","","","","","5","","","","","","","","",""
"","","","","","single-stim-button","120","278028","0.0-2.0-28.7-0.7","632f7bec7eb646908138c15c","D2","batch4","","720","tol_tohand","","","","tol_peg_1","720","720","0","[[0,0,0],[1,0],[3]]","8","[[1,2,0],[3,0],[0]]","6","0","","","","","","5","","","","","","","","",""
"","","","","","single-stim-button","121","282684","0.0-2.0-28.7-1.7","632f7bec7eb646908138c15c","D2","batch4","","4656","tol_toboard","","","","tol_peg_1","4656","4656","0","[[2,0,0],[1,0],[3]]","8","[[1,2,0],[3,0],[0]]","6","0","","","","","","5","","","","","","","","",""
"","","","","","single-stim-button","122","283248","0.0-2.0-28.8-0.8","632f7bec7eb646908138c15c","D2","batch4","","564","tol_tohand","","","","tol_peg_2","564","564","0","[[2,0,0],[0,0],[3]]","9","[[1,2,0],[3,0],[0]]","6","0","","","","","","5","","","","","","","","",""
"","","","","","single-stim-button","123","284046","0.0-2.0-28.8-1.8","632f7bec7eb646908138c15c","D2","batch4","","798","tol_toboard","","","","tol_peg_1","798","798","0","[[2,1,0],[0,0],[3]]","9","[[1,2,0],[3,0],[0]]","6","0","","","","","","5","","","","","","","","",""
"","","","","","single-stim-button","124","285118","0.0-2.0-28.9-0.9","632f7bec7eb646908138c15c","D2","batch4","","1072","tol_tohand","","","","tol_peg_3","1072","1072","0","[[2,1,0],[0,0],[0]]","10","[[1,2,0],[3,0],[0]]","6","0","","","","","","5","","","","","","","","",""
"","","","","","single-stim-button","125","286056","0.0-2.0-28.9-1.9","632f7bec7eb646908138c15c","D2","batch4","","938","tol_toboard","","","","tol_peg_2","938","938","0","[[2,1,0],[3,0],[0]]","10","[[1,2,0],[3,0],[0]]","6","0","","","","","","5","","","","","","","","",""
"","","","","","single-stim-button","126","288622","0.0-2.0-28.10-0.10","632f7bec7eb646908138c15c","D2","batch4","","2566","tol_tohand","","","","tol_peg_1","2566","2566","0","[[2,0,0],[3,0],[0]]","11","[[1,2,0],[3,0],[0]]","6","0","","","","","","5","","","","","","","","",""
"","","","","","single-stim-button","127","289296","0.0-2.0-28.10-1.10","632f7bec7eb646908138c15c","D2","batch4","","674","tol_toboard","","","","tol_peg_2","674","674","0","[[2,0,0],[3,1],[0]]","11","[[1,2,0],[3,0],[0]]","6","0","","","","","","5","","","","","","","","",""
"","","","","","single-stim-button","128","289820","0.0-2.0-28.11-0.11","632f7bec7eb646908138c15c","D2","batch4","","524","tol_tohand","","","","tol_peg_1","524","524","0","[[0,0,0],[3,1],[0]]","12","[[1,2,0],[3,0],[0]]","6","0","","","","","","5","","","","","","","","",""
"","","","","","single-stim-button","129","291088","0.0-2.0-28.11-1.11","632f7bec7eb646908138c15c","D2","batch4","","1268","tol_toboard","","","","tol_peg_3","1268","1268","0","[[0,0,0],[3,1],[2]]","12","[[1,2,0],[3,0],[0]]","6","0","","","","","","5","","","","","","","","",""
"","","","","","single-stim-button","130","291666","0.0-2.0-28.12-0.12","632f7bec7eb646908138c15c","D2","batch4","","578","tol_tohand","","","","tol_peg_2","578","578","0","[[0,0,0],[3,0],[2]]","13","[[1,2,0],[3,0],[0]]","6","0","","","","","","5","","","","","","","","",""
"","","","","","single-stim-button","131","292644","0.0-2.0-28.12-1.12","632f7bec7eb646908138c15c","D2","batch4","","978","tol_toboard","","","","tol_peg_1","978","978","0","[[1,0,0],[3,0],[2]]","13","[[1,2,0],[3,0],[0]]","6","0","","","","","","5","","","","","","","","",""
"","","","","","single-stim-button","132","293200","0.0-2.0-28.13-0.13","632f7bec7eb646908138c15c","D2","batch4","","556","tol_tohand","","","","tol_peg_3","556","556","0","[[1,0,0],[3,0],[0]]","14","[[1,2,0],[3,0],[0]]","6","0","","","","","","5","","","","","","","","",""
"","","","","","single-stim-button","133","293934","0.0-2.0-28.13-1.13","632f7bec7eb646908138c15c","D2","batch4","","734","tol_toboard","","","","tol_peg_1","734","734","0","[[1,2,0],[3,0],[0]]","14","[[1,2,0],[3,0],[0]]","6","0","","","","","","5","","","","","","","","",""
"","","","","","poldrack-single-stim","134","294936","0.0-2.0-29.0","632f7bec7eb646908138c15c","D2","batch4","","-1","tol_feedback","","","true","","1000","1000","500","","","","","","-1","none","true","7638","27698","","","","","","","","","",""
"","","","","","html-button-response","135","295820","0.0-2.0-30.0","632f7bec7eb646908138c15c","D2","batch4","","883","tol_trial_num","<div class = centerbox><p class = center-block-text>problem <strong>8</strong> out of 25 problems</p></div>","0","","","","","","","","","","","","","","","","","","","","","","","","",""
"","","","","","single-stim-button","136","300572","0.0-2.0-31.0-0.0","632f7bec7eb646908138c15c","D2","batch4","","4752","tol_tohand","","","","tol_peg_3","4752","4752","0","[[0,0,0],[2,3],[0]]","1","[[1,2,0],[3,0],[0]]","7","0","","","","","","4","","","","","","","","",""
"","","","","","single-stim-button","137","301526","0.0-2.0-31.0-1.0","632f7bec7eb646908138c15c","D2","batch4","","954","tol_toboard","","","","tol_peg_1","954","954","0","[[1,0,0],[2,3],[0]]","1","[[1,2,0],[3,0],[0]]","7","0","","","","","","4","","","","","","","","",""
"","","","","","single-stim-button","138","302144","0.0-2.0-31.1-0.1","632f7bec7eb646908138c15c","D2","batch4","","618","tol_tohand","","","","tol_peg_2","618","618","0","[[1,0,0],[2,0],[0]]","2","[[1,2,0],[3,0],[0]]","7","0","","","","","","4","","","","","","","","",""
"","","","","","single-stim-button","139","303208","0.0-2.0-31.1-1.1","632f7bec7eb646908138c15c","D2","batch4","","1064","tol_toboard","","","","tol_peg_3","1064","1064","0","[[1,0,0],[2,0],[3]]","2","[[1,2,0],[3,0],[0]]","7","0","","","","","","4","","","","","","","","",""
"","","","","","single-stim-button","140","303802","0.0-2.0-31.2-0.2","632f7bec7eb646908138c15c","D2","batch4","","594","tol_tohand","","","","tol_peg_2","594","594","0","[[1,0,0],[0,0],[3]]","3","[[1,2,0],[3,0],[0]]","7","0","","","","","","4","","","","","","","","",""
"","","","","","single-stim-button","141","304436","0.0-2.0-31.2-1.2","632f7bec7eb646908138c15c","D2","batch4","","634","tol_toboard","","","","tol_peg_1","634","634","0","[[1,2,0],[0,0],[3]]","3","[[1,2,0],[3,0],[0]]","7","0","","","","","","4","","","","","","","","",""
"","","","","","single-stim-button","142","305696","0.0-2.0-31.3-0.3","632f7bec7eb646908138c15c","D2","batch4","","1260","tol_tohand","","","","tol_peg_3","1260","1260","0","[[1,2,0],[0,0],[0]]","4","[[1,2,0],[3,0],[0]]","7","0","","","","","","4","","","","","","","","",""
"","","","","","single-stim-button","143","306244","0.0-2.0-31.3-1.3","632f7bec7eb646908138c15c","D2","batch4","","547","tol_toboard","","","","tol_peg_2","547","547","0","[[1,2,0],[3,0],[0]]","4","[[1,2,0],[3,0],[0]]","7","0","","","","","","4","","","","","","","","",""
"","","","","","poldrack-single-stim","144","307250","0.0-2.0-32.0","632f7bec7eb646908138c15c","D2","batch4","","-1","tol_feedback","","","true","","1000","1000","500","","","","","","-1","none","true","4752","7224","","","","","","","","","",""
"","","","","","html-button-response","145","322502","0.0-2.0-33.0","632f7bec7eb646908138c15c","D2","batch4","","15251.400000095367","tol_trial_num","<div class = centerbox><p class = center-block-text>problem <strong>9</strong> out of 25 problems</p></div>","0","","","","","","","","","","","","","","","","","","","","","","","","",""
"","","","","","single-stim-button","146","331669","0.0-2.0-34.0-0.0","632f7bec7eb646908138c15c","D2","batch4","","9165","tol_tohand","","","","tol_peg_3","9165","9165","0","[[3,2,0],[0,0],[0]]","1","[[2,1,0],[3,0],[0]]","8","0","","","","","","6","","","","","","","","",""
"","","","","","single-stim-button","147","333092","0.0-2.0-34.0-1.0","632f7bec7eb646908138c15c","D2","batch4","","1423","tol_toboard","","","","tol_peg_2","1423","1423","0","[[3,2,0],[1,0],[0]]","1","[[2,1,0],[3,0],[0]]","8","0","","","","","","6","","","","","","","","",""
"","","","","","single-stim-button","148","334110","0.0-2.0-34.1-0.1","632f7bec7eb646908138c15c","D2","batch4","","1017","tol_tohand","","","","tol_peg_1","1017","1017","0","[[3,0,0],[1,0],[0]]","2","[[2,1,0],[3,0],[0]]","8","0","","","","","","6","","","","","","","","",""
"","","","","","single-stim-button","149","335378","0.0-2.0-34.1-1.1","632f7bec7eb646908138c15c","D2","batch4","","1267","tol_toboard","","","","tol_peg_3","1267","1267","0","[[3,0,0],[1,0],[2]]","2","[[2,1,0],[3,0],[0]]","8","0","","","","","","6","","","","","","","","",""
"","","","","","single-stim-button","150","336536","0.0-2.0-34.2-0.2","632f7bec7eb646908138c15c","D2","batch4","","1157","tol_tohand","","","","tol_peg_1","1157","1157","0","[[0,0,0],[1,0],[2]]","3","[[2,1,0],[3,0],[0]]","8","0","","","","","","6","","","","","","","","",""
"","","","","","single-stim-button","151","337568","0.0-2.0-34.2-1.2","632f7bec7eb646908138c15c","D2","batch4","","1031","tol_toboard","","","","tol_peg_2","1031","1031","0","[[0,0,0],[1,3],[2]]","3","[[2,1,0],[3,0],[0]]","8","0","","","","","","6","","","","","","","","",""
"","","","","","single-stim-button","152","338124","0.0-2.0-34.3-0.3","632f7bec7eb646908138c15c","D2","batch4","","555","tol_tohand","","","","tol_peg_3","555","555","0","[[0,0,0],[1,3],[0]]","4","[[2,1,0],[3,0],[0]]","8","0","","","","","","6","","","","","","","","",""
"","","","","","single-stim-button","153","339250","0.0-2.0-34.3-1.3","632f7bec7eb646908138c15c","D2","batch4","","1125","tol_toboard","","","","tol_peg_1","1125","1125","0","[[2,0,0],[1,3],[0]]","4","[[2,1,0],[3,0],[0]]","8","0","","","","","","6","","","","","","","","",""
"","","","","","single-stim-button","154","339868","0.0-2.0-34.4-0.4","632f7bec7eb646908138c15c","D2","batch4","","617","tol_tohand","","","","tol_peg_2","617","617","0","[[2,0,0],[1,0],[0]]","5","[[2,1,0],[3,0],[0]]","8","0","","","","","","6","","","","","","","","",""
"","","","","","single-stim-button","155","340636","0.0-2.0-34.4-1.4","632f7bec7eb646908138c15c","D2","batch4","","767","tol_toboard","","","","tol_peg_3","767","767","0","[[2,0,0],[1,0],[3]]","5","[[2,1,0],[3,0],[0]]","8","0","","","","","","6","","","","","","","","",""
"","","","","","single-stim-button","156","341324","0.0-2.0-34.5-0.5","632f7bec7eb646908138c15c","D2","batch4","","687","tol_tohand","","","","tol_peg_2","687","687","0","[[2,0,0],[0,0],[3]]","6","[[2,1,0],[3,0],[0]]","8","0","","","","","","6","","","","","","","","",""
"","","","","","single-stim-button","157","342012","0.0-2.0-34.5-1.5","632f7bec7eb646908138c15c","D2","batch4","","687","tol_toboard","","","","tol_peg_1","687","687","0","[[2,1,0],[0,0],[3]]","6","[[2,1,0],[3,0],[0]]","8","0","","","","","","6","","","","","","","","",""
"","","","","","single-stim-button","158","342740","0.0-2.0-34.6-0.6","632f7bec7eb646908138c15c","D2","batch4","","727","tol_tohand","","","","tol_peg_3","727","727","0","[[2,1,0],[0,0],[0]]","7","[[2,1,0],[3,0],[0]]","8","0","","","","","","6","","","","","","","","",""
"","","","","","single-stim-button","159","343380","0.0-2.0-34.6-1.6","632f7bec7eb646908138c15c","D2","batch4","","639","tol_toboard","","","","tol_peg_2","639","639","0","[[2,1,0],[3,0],[0]]","7","[[2,1,0],[3,0],[0]]","8","0","","","","","","6","","","","","","","","",""
"","","","","","poldrack-single-stim","160","344382","0.0-2.0-35.0","632f7bec7eb646908138c15c","D2","batch4","","-1","tol_feedback","","","true","","1000","1000","500","","","","","","-1","none","true","9165","13925","","","","","","","","","",""
"","","","","","html-button-response","161","345954","0.0-2.0-36.0","632f7bec7eb646908138c15c","D2","batch4","","1571","tol_trial_num","<div class = centerbox><p class = center-block-text>problem <strong>10</strong> out of 25 problems</p></div>","0","","","","","","","","","","","","","","","","","","","","","","","","",""
"","","","","","single-stim-button","162","351214","0.0-2.0-37.0-0.0","632f7bec7eb646908138c15c","D2","batch4","","5259","tol_tohand","","","","tol_peg_2","5259","5259","0","[[3,0,0],[0,0],[2]]","1","[[3,0,0],[2,1],[0]]","9","0","","","","","","3","","","","","","","","",""
"","","","","","single-stim-button","163","352138","0.0-2.0-37.0-1.0","632f7bec7eb646908138c15c","D2","batch4","","923","tol_toboard","","","","tol_peg_1","923","923","0","[[3,1,0],[0,0],[2]]","1","[[3,0,0],[2,1],[0]]","9","0","","","","","","3","","","","","","","","",""
"","","","","","single-stim-button","164","353100","0.0-2.0-37.1-0.1","632f7bec7eb646908138c15c","D2","batch4","","961","tol_tohand","","","","tol_peg_3","961","961","0","[[3,1,0],[0,0],[0]]","2","[[3,0,0],[2,1],[0]]","9","0","","","","","","3","","","","","","","","",""
"","","","","","single-stim-button","165","354202","0.0-2.0-37.1-1.1","632f7bec7eb646908138c15c","D2","batch4","","1101","tol_toboard","","","","tol_peg_2","1101","1101","0","[[3,1,0],[2,0],[0]]","2","[[3,0,0],[2,1],[0]]","9","0","","","","","","3","","","","","","","","",""
"","","","","","single-stim-button","166","354766","0.0-2.0-37.2-0.2","632f7bec7eb646908138c15c","D2","batch4","","563","tol_tohand","","","","tol_peg_1","563","563","0","[[3,0,0],[2,0],[0]]","3","[[3,0,0],[2,1],[0]]","9","0","","","","","","3","","","","","","","","",""
"","","","","","single-stim-button","167","355728","0.0-2.0-37.2-1.2","632f7bec7eb646908138c15c","D2","batch4","","962","tol_toboard","","","","tol_peg_2","962","962","0","[[3,0,0],[2,1],[0]]","3","[[3,0,0],[2,1],[0]]","9","0","","","","","","3","","","","","","","","",""
"","","","","","poldrack-single-stim","168","356735","0.0-2.0-38.0","632f7bec7eb646908138c15c","D2","batch4","","-1","tol_feedback","","","true","","1000","1000","500","","","","","","-1","none","true","5259","6783","","","","","","","","","",""
"","","","","","html-button-response","169","358014","0.0-2.0-39.0","632f7bec7eb646908138c15c","D2","batch4","","1278","tol_trial_num","<div class = centerbox><p class = center-block-text>problem <strong>11</strong> out of 25 problems</p></div>","0","","","","","","","","","","","","","","","","","","","","","","","","",""
"","","","","","single-stim-button","170","363836","0.0-2.0-40.0-0.0","632f7bec7eb646908138c15c","D2","batch4","","5821","tol_tohand","","","","tol_peg_1","5821","5821","0","[[1,0,0],[3,0],[0]]","1","[[2,0,0],[1,3],[0]]","10","0","","","","","","6","","","","","","","","",""
"","","","","","single-stim-button","171","364766","0.0-2.0-40.0-1.0","632f7bec7eb646908138c15c","D2","batch4","","929","tol_toboard","","","","tol_peg_2","929","929","0","[[1,0,0],[3,2],[0]]","1","[[2,0,0],[1,3],[0]]","10","0","","","","","","6","","","","","","","","",""
"","","","","","single-stim-button","172","365393","0.0-2.0-40.1-0.1","632f7bec7eb646908138c15c","D2","batch4","","625","tol_tohand","","","","tol_peg_1","625","625","0","[[0,0,0],[3,2],[0]]","2","[[2,0,0],[1,3],[0]]","10","0","","","","","","6","","","","","","","","",""
"","","","","","single-stim-button","173","366615","0.0-2.0-40.1-1.1","632f7bec7eb646908138c15c","D2","batch4","","1221","tol_toboard","","","","tol_peg_3","1221","1221","0","[[0,0,0],[3,2],[1]]","2","[[2,0,0],[1,3],[0]]","10","0","","","","","","6","","","","","","","","",""
"","","","","","single-stim-button","174","367405","0.0-2.0-40.2-0.2","632f7bec7eb646908138c15c","D2","batch4","","789","tol_tohand","","","","tol_peg_2","789","789","0","[[0,0,0],[3,0],[1]]","3","[[2,0,0],[1,3],[0]]","10","0","","","","","","6","","","","","","","","",""
"","","","","","single-stim-button","175","368547","0.0-2.0-40.2-1.2","632f7bec7eb646908138c15c","D2","batch4","","1141","tol_toboard","","","","tol_peg_1","1141","1141","0","[[2,0,0],[3,0],[1]]","3","[[2,0,0],[1,3],[0]]","10","0","","","","","","6","","","","","","","","",""
"","","","","","single-stim-button","176","369525","0.0-2.0-40.3-0.3","632f7bec7eb646908138c15c","D2","batch4","","977","tol_tohand","","","","tol_peg_2","977","977","0","[[2,0,0],[0,0],[1]]","4","[[2,0,0],[1,3],[0]]","10","0","","","","","","6","","","","","","","","",""
"","","","","","single-stim-button","177","370293","0.0-2.0-40.3-1.3","632f7bec7eb646908138c15c","D2","batch4","","767","tol_toboard","","","","tol_peg_1","767","767","0","[[2,3,0],[0,0],[1]]","4","[[2,0,0],[1,3],[0]]","10","0","","","","","","6","","","","","","","","",""
"","","","","","single-stim-button","178","371051","0.0-2.0-40.4-0.4","632f7bec7eb646908138c15c","D2","batch4","","757","tol_tohand","","","","tol_peg_3","757","757","0","[[2,3,0],[0,0],[0]]","5","[[2,0,0],[1,3],[0]]","10","0","","","","","","6","","","","","","","","",""
"","","","","","single-stim-button","179","372005","0.0-2.0-40.4-1.4","632f7bec7eb646908138c15c","D2","batch4","","953","tol_toboard","","","","tol_peg_2","953","953","0","[[2,3,0],[1,0],[0]]","5","[[2,0,0],[1,3],[0]]","10","0","","","","","","6","","","","","","","","",""
"","","","","","single-stim-button","180","372725","0.0-2.0-40.5-0.5","632f7bec7eb646908138c15c","D2","batch4","","719","tol_tohand","","","","tol_peg_1","719","719","0","[[2,0,0],[1,0],[0]]","6","[[2,0,0],[1,3],[0]]","10","0","","","","","","6","","","","","","","","",""
"","","","","","single-stim-button","181","373555","0.0-2.0-40.5-1.5","632f7bec7eb646908138c15c","D2","batch4","","829","tol_toboard","","","","tol_peg_2","829","829","0","[[2,0,0],[1,3],[0]]","6","[[2,0,0],[1,3],[0]]","10","0","","","","","","6","","","","","","","","",""
"","","","","","poldrack-single-stim","182","374556","0.0-2.0-41.0","632f7bec7eb646908138c15c","D2","batch4","","-1","tol_feedback","","","true","","1000","1000","500","","","","","","-1","none","true","5821","9688","","","","","","","","","",""
"","","","","","html-button-response","183","375441","0.0-2.0-42.0","632f7bec7eb646908138c15c","D2","batch4","","883.4000000953674","tol_trial_num","<div class = centerbox><p class = center-block-text>problem <strong>12</strong> out of 25 problems</p></div>","0","","","","","","","","","","","","","","","","","","","","","","","","",""
"","","","","","single-stim-button","184","379753","0.0-2.0-43.0-0.0","632f7bec7eb646908138c15c","D2","batch4","","4311","tol_tohand","","","","tol_peg_1","4311","4311","0","[[1,0,0],[3,0],[0]]","1","[[2,3,0],[0,0],[1]]","11","0","","","","","","4","","","","","","","","",""
"","","","","","single-stim-button","185","380567","0.0-2.0-43.0-1.0","632f7bec7eb646908138c15c","D2","batch4","","813","tol_toboard","","","","tol_peg_2","813","813","0","[[1,0,0],[3,2],[0]]","1","[[2,3,0],[0,0],[1]]","11","0","","","","","","4","","","","","","","","",""
"","","","","","single-stim-button","186","381115","0.0-2.0-43.1-0.1","632f7bec7eb646908138c15c","D2","batch4","","547","tol_tohand","","","","tol_peg_1","547","547","0","[[0,0,0],[3,2],[0]]","2","[[2,3,0],[0,0],[1]]","11","0","","","","","","4","","","","","","","","",""
"","","","","","single-stim-button","187","382467","0.0-2.0-43.1-1.1","632f7bec7eb646908138c15c","D2","batch4","","1351","tol_toboard","","","","tol_peg_3","1351","1351","0","[[0,0,0],[3,2],[1]]","2","[[2,3,0],[0,0],[1]]","11","0","","","","","","4","","","","","","","","",""
"","","","","","single-stim-button","188","383235","0.0-2.0-43.2-0.2","632f7bec7eb646908138c15c","D2","batch4","","767","tol_tohand","","","","tol_peg_2","767","767","0","[[0,0,0],[3,0],[1]]","3","[[2,3,0],[0,0],[1]]","11","0","","","","","","4","","","","","","","","",""
"","","","","","single-stim-button","189","384049","0.0-2.0-43.2-1.2","632f7bec7eb646908138c15c","D2","batch4","","813","tol_toboard","","","","tol_peg_1","813","813","0","[[2,0,0],[3,0],[1]]","3","[[2,3,0],[0,0],[1]]","11","0","","","","","","4","","","","","","","","",""
"","","","","","single-stim-button","190","384979","0.0-2.0-43.3-0.3","632f7bec7eb646908138c15c","D2","batch4","","929","tol_tohand","","","","tol_peg_2","929","929","0","[[2,0,0],[0,0],[1]]","4","[[2,3,0],[0,0],[1]]","11","0","","","","","","4","","","","","","","","",""
"","","","","","single-stim-button","191","385949","0.0-2.0-43.3-1.3","632f7bec7eb646908138c15c","D2","batch4","","969","tol_toboard","","","","tol_peg_1","969","969","0","[[2,3,0],[0,0],[1]]","4","[[2,3,0],[0,0],[1]]","11","0","","","","","","4","","","","","","","","",""
"","","","","","poldrack-single-stim","192","386965","0.0-2.0-44.0","632f7bec7eb646908138c15c","D2","batch4","","-1","tol_feedback","","","true","","1000","1000","500","","","","","","-1","none","true","4311","6554","","","","","","","","","",""
"","","","","","html-button-response","193","401603","0.0-2.0-45.0","632f7bec7eb646908138c15c","D2","batch4","","14636.800000071526","tol_trial_num","<div class = centerbox><p class = center-block-text>problem <strong>13</strong> out of 25 problems</p></div>","0","","","","","","","","","","","","","","","","","","","","","","","","",""
"","","","","","single-stim-button","194","405484","0.0-2.0-46.0-0.0","632f7bec7eb646908138c15c","D2","batch4","","3881","tol_tohand","","","","tol_peg_1","3881","3881","0","[[1,0,0],[3,0],[0]]","1","[[0,0,0],[2,3],[1]]","12","0","","","","","","4","","","","","","","","",""
"","","","","","single-stim-button","195","406674","0.0-2.0-46.0-1.0","632f7bec7eb646908138c15c","D2","batch4","","1189","tol_toboard","","","","tol_peg_3","1189","1189","0","[[1,0,0],[3,0],[2]]","1","[[0,0,0],[2,3],[1]]","12","0","","","","","","4","","","","","","","","",""
"","","","","","single-stim-button","196","407567","0.0-2.0-46.1-0.1","632f7bec7eb646908138c15c","D2","batch4","","891","tol_tohand","","","","tol_peg_2","891","891","0","[[1,0,0],[0,0],[2]]","2","[[0,0,0],[2,3],[1]]","12","0","","","","","","4","","","","","","","","",""
"","","","","","single-stim-button","197","408905","0.0-2.0-46.1-1.1","632f7bec7eb646908138c15c","D2","batch4","","1337","tol_toboard","","","","tol_peg_1","1337","1337","0","[[1,3,0],[0,0],[2]]","2","[[0,0,0],[2,3],[1]]","12","0","","","","","","4","","","","","","","","",""
"","","","","","single-stim-button","198","409641","0.0-2.0-46.2-0.2","632f7bec7eb646908138c15c","D2","batch4","","735","tol_tohand","","","","tol_peg_3","735","735","0","[[1,3,0],[0,0],[0]]","3","[[0,0,0],[2,3],[1]]","12","0","","","","","","4","","","","","","","","",""
"","","","","","single-stim-button","199","411245","0.0-2.0-46.2-1.2","632f7bec7eb646908138c15c","D2","batch4","","1603","tol_toboard","","","","tol_peg_2","1603","1603","0","[[1,3,0],[2,0],[0]]","3","[[0,0,0],[2,3],[1]]","12","0","","","","","","4","","","","","","","","",""
"","","","","","single-stim-button","200","412082","0.0-2.0-46.3-0.3","632f7bec7eb646908138c15c","D2","batch4","","837","tol_tohand","","","","tol_peg_1","837","837","0","[[1,0,0],[2,0],[0]]","4","[[0,0,0],[2,3],[1]]","12","0","","","","","","4","","","","","","","","",""
"","","","","","single-stim-button","201","412731","0.0-2.0-46.3-1.3","632f7bec7eb646908138c15c","D2","batch4","","647","tol_toboard","","","","tol_peg_2","647","647","0","[[1,0,0],[2,3],[0]]","4","[[0,0,0],[2,3],[1]]","12","0","","","","","","4","","","","","","","","",""
"","","","","","single-stim-button","202","413224","0.0-2.0-46.4-0.4","632f7bec7eb646908138c15c","D2","batch4","","493","tol_tohand","","","","tol_peg_1","493","493","0","[[0,0,0],[2,3],[0]]","5","[[0,0,0],[2,3],[1]]","12","0","","","","","","4","","","","","","","","",""
"","","","","","single-stim-button","203","414241","0.0-2.0-46.4-1.4","632f7bec7eb646908138c15c","D2","batch4","","1015","tol_toboard","","","","tol_peg_3","1015","1015","0","[[0,0,0],[2,3],[1]]","5","[[0,0,0],[2,3],[1]]","12","0","","","","","","4","","","","","","","","",""
"","","","","","poldrack-single-stim","204","415254","0.0-2.0-47.0","632f7bec7eb646908138c15c","D2","batch4","","-1","tol_feedback","","","true","","1000","1000","500","","","","","","-1","none","true","3881","6837","","","","","","","","","",""
"","","","","","html-button-response","205","418327","0.0-2.0-48.0","632f7bec7eb646908138c15c","D2","batch4","","3071.600000023842","attention_check","<p class = block-text>How many balls are in your board<br></p>","1","true","","","","","","","","","","","","","","","","","","","","","","","",""
"","","","","","html-button-response","206","419148","0.0-2.0-49.0","632f7bec7eb646908138c15c","D2","batch4","","821.3999999761581","tol_trial_num","<div class = centerbox><p class = center-block-text>problem <strong>14</strong> out of 25 problems</p></div>","0","","","","","","","","","","","","","","","","","","","","","","","","",""
"","","","","","single-stim-button","207","423383","0.0-2.0-50.0-0.0","632f7bec7eb646908138c15c","D2","batch4","","4233","tol_tohand","","","","tol_peg_1","4233","4233","0","[[2,0,0],[3,0],[0]]","1","[[1,2,0],[3,0],[0]]","13","0","","","","","","4","","","","","","","","",""
"","","","","","single-stim-button","208","424390","0.0-2.0-50.0-1.0","632f7bec7eb646908138c15c","D2","batch4","","1007","tol_toboard","","","","tol_peg_2","1007","1007","0","[[2,0,0],[3,1],[0]]","1","[[1,2,0],[3,0],[0]]","13","0","","","","","","4","","","","","","","","",""
"","","","","","single-stim-button","209","425000","0.0-2.0-50.1-0.1","632f7bec7eb646908138c15c","D2","batch4","","609","tol_tohand","","","","tol_peg_1","609","609","0","[[0,0,0],[3,1],[0]]","2","[[1,2,0],[3,0],[0]]","13","0","","","","","","4","","","","","","","","",""
"","","","","","single-stim-button","210","425760","0.0-2.0-50.1-1.1","632f7bec7eb646908138c15c","D2","batch4","","759","tol_toboard","","","","tol_peg_3","759","759","0","[[0,0,0],[3,1],[2]]","2","[[1,2,0],[3,0],[0]]","13","0","","","","","","4","","","","","","","","",""
"","","","","","single-stim-button","211","426330","0.0-2.0-50.2-0.2","632f7bec7eb646908138c15c","D2","batch4","","570","tol_tohand","","","","tol_peg_2","570","570","0","[[0,0,0],[3,0],[2]]","3","[[1,2,0],[3,0],[0]]","13","0","","","","","","4","","","","","","","","",""
"","","","","","single-stim-button","212","427144","0.0-2.0-50.2-1.2","632f7bec7eb646908138c15c","D2","batch4","","814","tol_toboard","","","","tol_peg_1","814","814","0","[[1,0,0],[3,0],[2]]","3","[[1,2,0],[3,0],[0]]","13","0","","","","","","4","","","","","","","","",""
"","","","","","single-stim-button","213","427904","0.0-2.0-50.3-0.3","632f7bec7eb646908138c15c","D2","batch4","","760","tol_tohand","","","","tol_peg_3","760","760","0","[[1,0,0],[3,0],[0]]","4","[[1,2,0],[3,0],[0]]","13","0","","","","","","4","","","","","","","","",""
"","","","","","single-stim-button","214","428928","0.0-2.0-50.3-1.3","632f7bec7eb646908138c15c","D2","batch4","","1024","tol_toboard","","","","tol_peg_1","1024","1024","0","[[1,2,0],[3,0],[0]]","4","[[1,2,0],[3,0],[0]]","13","0","","","","","","4","","","","","","","","",""
"","","","","","poldrack-single-stim","215","429941","0.0-2.0-51.0","632f7bec7eb646908138c15c","D2","batch4","","-1","tol_feedback","","","true","","1000","1000","500","","","","","","-1","none","true","4233","6172","","","","","","","","","",""
"","","","","","html-button-response","216","430964","0.0-2.0-52.0","632f7bec7eb646908138c15c","D2","batch4","","1021.5","tol_trial_num","<div class = centerbox><p class = center-block-text>problem <strong>15</strong> out of 25 problems</p></div>","0","","","","","","","","","","","","","","","","","","","","","","","","",""
"","","","","","single-stim-button","217","434868","0.0-2.0-53.0-0.0","632f7bec7eb646908138c15c","D2","batch4","","3904","tol_tohand","","","","tol_peg_1","3904","3904","0","[[1,0,0],[3,0],[0]]","1","[[2,0,0],[3,0],[1]]","14","0","","","","","","3","","","","","","","","",""
"","","","","","single-stim-button","218","436982","0.0-2.0-53.0-1.0","632f7bec7eb646908138c15c","D2","batch4","","2114","tol_toboard","","","","tol_peg_3","2114","2114","0","[[1,0,0],[3,0],[2]]","1","[[2,0,0],[3,0],[1]]","14","0","","","","","","3","","","","","","","","",""
"","","","","","single-stim-button","219","437528","0.0-2.0-53.1-0.1","632f7bec7eb646908138c15c","D2","batch4","","546","tol_tohand","","","","tol_peg_1","546","546","0","[[0,0,0],[3,0],[2]]","2","[[2,0,0],[3,0],[1]]","14","0","","","","","","3","","","","","","","","",""
"","","","","","single-stim-button","220","438710","0.0-2.0-53.1-1.1","632f7bec7eb646908138c15c","D2","batch4","","1182","tol_toboard","","","","tol_peg_2","1182","1182","0","[[0,0,0],[3,1],[2]]","2","[[2,0,0],[3,0],[1]]","14","0","","","","","","3","","","","","","","","",""
"","","","","","single-stim-button","221","439234","0.0-2.0-53.2-0.2","632f7bec7eb646908138c15c","D2","batch4","","524","tol_tohand","","","","tol_peg_3","524","524","0","[[0,0,0],[3,1],[0]]","3","[[2,0,0],[3,0],[1]]","14","0","","","","","","3","","","","","","","","",""
"","","","","","single-stim-button","222","440298","0.0-2.0-53.2-1.2","632f7bec7eb646908138c15c","D2","batch4","","1064","tol_toboard","","","","tol_peg_1","1064","1064","0","[[2,0,0],[3,1],[0]]","3","[[2,0,0],[3,0],[1]]","14","0","","","","","","3","","","","","","","","",""
"","","","","","single-stim-button","223","440776","0.0-2.0-53.3-0.3","632f7bec7eb646908138c15c","D2","batch4","","478","tol_tohand","","","","tol_peg_2","478","478","0","[[2,0,0],[3,0],[0]]","4","[[2,0,0],[3,0],[1]]","14","0","","","","","","3","","","","","","","","",""
"","","","","","single-stim-button","224","441434","0.0-2.0-53.3-1.3","632f7bec7eb646908138c15c","D2","batch4","","658","tol_toboard","","","","tol_peg_3","658","658","0","[[2,0,0],[3,0],[1]]","4","[[2,0,0],[3,0],[1]]","14","0","","","","","","3","","","","","","","","",""
"","","","","","poldrack-single-stim","225","442449","0.0-2.0-54.0","632f7bec7eb646908138c15c","D2","batch4","","-1","tol_feedback","","","true","","1000","1000","500","","","","","","-1","none","true","3904","5452","","","","","","","","","",""
"","","","","","html-button-response","226","448242","0.0-2.0-55.0","632f7bec7eb646908138c15c","D2","batch4","","5791.399999976158","tol_trial_num","<div class = centerbox><p class = center-block-text>problem <strong>16</strong> out of 25 problems</p></div>","0","","","","","","","","","","","","","","","","","","","","","","","","",""
"","","","","","single-stim-button","227","454706","0.0-2.0-56.0-0.0","632f7bec7eb646908138c15c","D2","batch4","","6464","tol_tohand","","","","tol_peg_3","6464","6464","0","[[0,0,0],[2,3],[0]]","1","[[2,3,0],[1,0],[0]]","15","0","","","","","","7","","","","","","","","",""
"","","","","","single-stim-button","228","456052","0.0-2.0-56.0-1.0","632f7bec7eb646908138c15c","D2","batch4","","1346","tol_toboard","","","","tol_peg_1","1346","1346","0","[[1,0,0],[2,3],[0]]","1","[[2,3,0],[1,0],[0]]","15","0","","","","","","7","","","","","","","","",""
"","","","","","single-stim-button","229","456544","0.0-2.0-56.1-0.1","632f7bec7eb646908138c15c","D2","batch4","","492","tol_tohand","","","","tol_peg_2","492","492","0","[[1,0,0],[2,0],[0]]","2","[[2,3,0],[1,0],[0]]","15","0","","","","","","7","","","","","","","","",""
"","","","","","single-stim-button","230","457726","0.0-2.0-56.1-1.1","632f7bec7eb646908138c15c","D2","batch4","","1182","tol_toboard","","","","tol_peg_3","1182","1182","0","[[1,0,0],[2,0],[3]]","2","[[2,3,0],[1,0],[0]]","15","0","","","","","","7","","","","","","","","",""
"","","","","","single-stim-button","231","465130","0.0-2.0-56.2-0.2","632f7bec7eb646908138c15c","D2","batch4","","7404","tol_tohand","","","","tol_peg_3","7404","7404","0","[[1,0,0],[2,0],[0]]","3","[[2,3,0],[1,0],[0]]","15","0","","","","","","7","","","","","","","","",""
"","","","","","single-stim-button","232","465998","0.0-2.0-56.2-1.2","632f7bec7eb646908138c15c","D2","batch4","","868","tol_toboard","","","","tol_peg_1","868","868","0","[[1,3,0],[2,0],[0]]","3","[[2,3,0],[1,0],[0]]","15","0","","","","","","7","","","","","","","","",""
"","","","","","single-stim-button","233","466524","0.0-2.0-56.3-0.3","632f7bec7eb646908138c15c","D2","batch4","","526","tol_tohand","","","","tol_peg_2","526","526","0","[[1,3,0],[0,0],[0]]","4","[[2,3,0],[1,0],[0]]","15","0","","","","","","7","","","","","","","","",""
"","","","","","single-stim-button","234","467776","0.0-2.0-56.3-1.3","632f7bec7eb646908138c15c","D2","batch4","","1252","tol_toboard","","","","tol_peg_3","1252","1252","0","[[1,3,0],[0,0],[2]]","4","[[2,3,0],[1,0],[0]]","15","0","","","","","","7","","","","","","","","",""
"","","","","","single-stim-button","235","470788","0.0-2.0-56.4-0.4","632f7bec7eb646908138c15c","D2","batch4","","3012","tol_tohand","","","","tol_peg_1","3012","3012","0","[[1,0,0],[0,0],[2]]","5","[[2,3,0],[1,0],[0]]","15","0","","","","","","7","","","","","","","","",""
"","","","","","single-stim-button","236","472048","0.0-2.0-56.4-1.4","632f7bec7eb646908138c15c","D2","batch4","","1260","tol_toboard","","","","tol_peg_2","1260","1260","0","[[1,0,0],[3,0],[2]]","5","[[2,3,0],[1,0],[0]]","15","0","","","","","","7","","","","","","","","",""
"","","","","","single-stim-button","237","472878","0.0-2.0-56.5-0.5","632f7bec7eb646908138c15c","D2","batch4","","830","tol_tohand","","","","tol_peg_1","830","830","0","[[0,0,0],[3,0],[2]]","6","[[2,3,0],[1,0],[0]]","15","0","","","","","","7","","","","","","","","",""
"","","","","","single-stim-button","238","473848","0.0-2.0-56.5-1.5","632f7bec7eb646908138c15c","D2","batch4","","970","tol_toboard","","","","tol_peg_2","970","970","0","[[0,0,0],[3,1],[2]]","6","[[2,3,0],[1,0],[0]]","15","0","","","","","","7","","","","","","","","",""
"","","","","","single-stim-button","239","474334","0.0-2.0-56.6-0.6","632f7bec7eb646908138c15c","D2","batch4","","486","tol_tohand","","","","tol_peg_3","486","486","0","[[0,0,0],[3,1],[0]]","7","[[2,3,0],[1,0],[0]]","15","0","","","","","","7","","","","","","","","",""
"","","","","","single-stim-button","240","475146","0.0-2.0-56.6-1.6","632f7bec7eb646908138c15c","D2","batch4","","812","tol_toboard","","","","tol_peg_1","812","812","0","[[2,0,0],[3,1],[0]]","7","[[2,3,0],[1,0],[0]]","15","0","","","","","","7","","","","","","","","",""
"","","","","","single-stim-button","241","476516","0.0-2.0-56.7-0.7","632f7bec7eb646908138c15c","D2","batch4","","1370","tol_tohand","","","","tol_peg_2","1370","1370","0","[[2,0,0],[3,0],[0]]","8","[[2,3,0],[1,0],[0]]","15","0","","","","","","7","","","","","","","","",""
"","","","","","single-stim-button","242","478238","0.0-2.0-56.7-1.7","632f7bec7eb646908138c15c","D2","batch4","","1722","tol_toboard","","","","tol_peg_1","1722","1722","0","[[2,1,0],[3,0],[0]]","8","[[2,3,0],[1,0],[0]]","15","0","","","","","","7","","","","","","","","",""
"","","","","","single-stim-button","243","479702","0.0-2.0-56.8-0.8","632f7bec7eb646908138c15c","D2","batch4","","1464","tol_tohand","","","","tol_peg_2","1464","1464","0","[[2,1,0],[0,0],[0]]","9","[[2,3,0],[1,0],[0]]","15","0","","","","","","7","","","","","","","","",""
"","","","","","single-stim-button","244","480978","0.0-2.0-56.8-1.8","632f7bec7eb646908138c15c","D2","batch4","","1276","tol_toboard","","","","tol_peg_3","1276","1276","0","[[2,1,0],[0,0],[3]]","9","[[2,3,0],[1,0],[0]]","15","0","","","","","","7","","","","","","","","",""
"","","","","","single-stim-button","245","481502","0.0-2.0-56.9-0.9","632f7bec7eb646908138c15c","D2","batch4","","524","tol_tohand","","","","tol_peg_1","524","524","0","[[2,0,0],[0,0],[3]]","10","[[2,3,0],[1,0],[0]]","15","0","","","","","","7","","","","","","","","",""
"","","","","","single-stim-button","246","482628","0.0-2.0-56.9-1.9","632f7bec7eb646908138c15c","D2","batch4","","1126","tol_toboard","","","","tol_peg_2","1126","1126","0","[[2,0,0],[1,0],[3]]","10","[[2,3,0],[1,0],[0]]","15","0","","","","","","7","","","","","","","","",""
"","","","","","single-stim-button","247","483200","0.0-2.0-56.10-0.10","632f7bec7eb646908138c15c","D2","batch4","","572","tol_tohand","","","","tol_peg_3","572","572","0","[[2,0,0],[1,0],[0]]","11","[[2,3,0],[1,0],[0]]","15","0","","","","","","7","","","","","","","","",""
"","","","","","single-stim-button","248","483756","0.0-2.0-56.10-1.10","632f7bec7eb646908138c15c","D2","batch4","","556","tol_toboard","","","","tol_peg_1","556","556","0","[[2,3,0],[1,0],[0]]","11","[[2,3,0],[1,0],[0]]","15","0","","","","","","7","","","","","","","","",""
"","","","","","poldrack-single-stim","249","484758","0.0-2.0-57.0","632f7bec7eb646908138c15c","D2","batch4","","-1","tol_feedback","","","true","","1000","1000","500","","","","","","-1","none","true","6464","23144","","","","","","","","","",""
"","","","","","html-button-response","250","485774","0.0-2.0-58.0","632f7bec7eb646908138c15c","D2","batch4","","1014.7999999523163","tol_trial_num","<div class = centerbox><p class = center-block-text>problem <strong>17</strong> out of 25 problems</p></div>","0","","","","","","","","","","","","","","","","","","","","","","","","",""
"","","","","","single-stim-button","251","494018","0.0-2.0-59.0-0.0","632f7bec7eb646908138c15c","D2","batch4","","8244","tol_tohand","","","","tol_peg_1","8244","8244","0","[[1,0,0],[3,0],[0]]","1","[[3,1,0],[2,0],[0]]","16","0","","","","","","5","","","","","","","","",""
"","","","","","single-stim-button","252","495622","0.0-2.0-59.0-1.0","632f7bec7eb646908138c15c","D2","batch4","","1603","tol_toboard","","","","tol_peg_2","1603","1603","0","[[1,0,0],[3,2],[0]]","1","[[3,1,0],[2,0],[0]]","16","0","","","","","","5","","","","","","","","",""
"","","","","","single-stim-button","253","498698","0.0-2.0-59.1-0.1","632f7bec7eb646908138c15c","D2","batch4","","3076","tol_tohand","","","","tol_peg_2","3076","3076","0","[[1,0,0],[3,0],[0]]","2","[[3,1,0],[2,0],[0]]","16","0","","","","","","5","","","","","","","","",""
"","","","","","single-stim-button","254","499246","0.0-2.0-59.1-1.1","632f7bec7eb646908138c15c","D2","batch4","","548","tol_toboard","","","","tol_peg_1","548","548","0","[[1,2,0],[3,0],[0]]","2","[[3,1,0],[2,0],[0]]","16","0","","","","","","5","","","","","","","","",""
"","","","","","single-stim-button","255","499638","0.0-2.0-59.2-0.2","632f7bec7eb646908138c15c","D2","batch4","","391","tol_tohand","","","","tol_peg_1","391","391","0","[[1,0,0],[3,0],[0]]","3","[[3,1,0],[2,0],[0]]","16","0","","","","","","5","","","","","","","","",""
"","","","","","single-stim-button","256","500842","0.0-2.0-59.2-1.2","632f7bec7eb646908138c15c","D2","batch4","","1204","tol_toboard","","","","tol_peg_3","1204","1204","0","[[1,0,0],[3,0],[2]]","3","[[3,1,0],[2,0],[0]]","16","0","","","","","","5","","","","","","","","",""
"","","","","","single-stim-button","257","503496","0.0-2.0-59.3-0.3","632f7bec7eb646908138c15c","D2","batch4","","2654","tol_tohand","","","","tol_peg_2","2654","2654","0","[[1,0,0],[0,0],[2]]","4","[[3,1,0],[2,0],[0]]","16","0","","","","","","5","","","","","","","","",""
"","","","","","single-stim-button","258","504576","0.0-2.0-59.3-1.3","632f7bec7eb646908138c15c","D2","batch4","","1080","tol_toboard","","","","tol_peg_1","1080","1080","0","[[1,3,0],[0,0],[2]]","4","[[3,1,0],[2,0],[0]]","16","0","","","","","","5","","","","","","","","",""
"","","","","","single-stim-button","259","505100","0.0-2.0-59.4-0.4","632f7bec7eb646908138c15c","D2","batch4","","524","tol_tohand","","","","tol_peg_3","524","524","0","[[1,3,0],[0,0],[0]]","5","[[3,1,0],[2,0],[0]]","16","0","","","","","","5","","","","","","","","",""
"","","","","","single-stim-button","260","506164","0.0-2.0-59.4-1.4","632f7bec7eb646908138c15c","D2","batch4","","1064","tol_toboard","","","","tol_peg_2","1064","1064","0","[[1,3,0],[2,0],[0]]","5","[[3,1,0],[2,0],[0]]","16","0","","","","","","5","","","","","","","","",""
"","","","","","single-stim-button","261","506790","0.0-2.0-59.5-0.5","632f7bec7eb646908138c15c","D2","batch4","","626","tol_tohand","","","","tol_peg_1","626","626","0","[[1,0,0],[2,0],[0]]","6","[[3,1,0],[2,0],[0]]","16","0","","","","","","5","","","","","","","","",""
"","","","","","single-stim-button","262","507636","0.0-2.0-59.5-1.5","632f7bec7eb646908138c15c","D2","batch4","","846","tol_toboard","","","","tol_peg_2","846","846","0","[[1,0,0],[2,3],[0]]","6","[[3,1,0],[2,0],[0]]","16","0","","","","","","5","","","","","","","","",""
"","","","","","single-stim-button","263","508208","0.0-2.0-59.6-0.6","632f7bec7eb646908138c15c","D2","batch4","","572","tol_tohand","","","","tol_peg_1","572","572","0","[[0,0,0],[2,3],[0]]","7","[[3,1,0],[2,0],[0]]","16","0","","","","","","5","","","","","","","","",""
"","","","","","single-stim-button","264","509154","0.0-2.0-59.6-1.6","632f7bec7eb646908138c15c","D2","batch4","","946","tol_toboard","","","","tol_peg_3","946","946","0","[[0,0,0],[2,3],[1]]","7","[[3,1,0],[2,0],[0]]","16","0","","","","","","5","","","","","","","","",""
"","","","","","single-stim-button","265","509656","0.0-2.0-59.7-0.7","632f7bec7eb646908138c15c","D2","batch4","","502","tol_tohand","","","","tol_peg_2","502","502","0","[[0,0,0],[2,0],[1]]","8","[[3,1,0],[2,0],[0]]","16","0","","","","","","5","","","","","","","","",""
"","","","","","single-stim-button","266","510406","0.0-2.0-59.7-1.7","632f7bec7eb646908138c15c","D2","batch4","","750","tol_toboard","","","","tol_peg_1","750","750","0","[[3,0,0],[2,0],[1]]","8","[[3,1,0],[2,0],[0]]","16","0","","","","","","5","","","","","","","","",""
"","","","","","single-stim-button","267","510932","0.0-2.0-59.8-0.8","632f7bec7eb646908138c15c","D2","batch4","","526","tol_tohand","","","","tol_peg_3","526","526","0","[[3,0,0],[2,0],[0]]","9","[[3,1,0],[2,0],[0]]","16","0","","","","","","5","","","","","","","","",""
"","","","","","single-stim-button","268","512818","0.0-2.0-59.8-1.8","632f7bec7eb646908138c15c","D2","batch4","","1886","tol_toboard","","","","tol_peg_1","1886","1886","0","[[3,1,0],[2,0],[0]]","9","[[3,1,0],[2,0],[0]]","16","0","","","","","","5","","","","","","","","",""
"","","","","","poldrack-single-stim","269","513827","0.0-2.0-60.0","632f7bec7eb646908138c15c","D2","batch4","","-1","tol_feedback","","","true","","1000","1000","500","","","","","","-1","none","true","8244","17115","","","","","","","","","",""
"","","","","","html-button-response","270","514830","0.0-2.0-61.0","632f7bec7eb646908138c15c","D2","batch4","","1001.2999999523163","tol_trial_num","<div class = centerbox><p class = center-block-text>problem <strong>18</strong> out of 25 problems</p></div>","0","","","","","","","","","","","","","","","","","","","","","","","","",""
"","","","","","single-stim-button","271","519730","0.0-2.0-62.0-0.0","632f7bec7eb646908138c15c","D2","batch4","","4900","tol_tohand","","","","tol_peg_1","4900","4900","0","[[1,0,0],[3,0],[0]]","1","[[3,0,0],[2,0],[1]]","17","0","","","","","","5","","","","","","","","",""
"","","","","","single-stim-button","272","521404","0.0-2.0-62.0-1.0","632f7bec7eb646908138c15c","D2","batch4","","1674","tol_toboard","","","","tol_peg_3","1674","1674","0","[[1,0,0],[3,0],[2]]","1","[[3,0,0],[2,0],[1]]","17","0","","","","","","5","","","","","","","","",""
"","","","","","single-stim-button","273","521936","0.0-2.0-62.1-0.1","632f7bec7eb646908138c15c","D2","batch4","","532","tol_tohand","","","","tol_peg_2","532","532","0","[[1,0,0],[0,0],[2]]","2","[[3,0,0],[2,0],[1]]","17","0","","","","","","5","","","","","","","","",""
"","","","","","single-stim-button","274","523088","0.0-2.0-62.1-1.1","632f7bec7eb646908138c15c","D2","batch4","","1152","tol_toboard","","","","tol_peg_1","1152","1152","0","[[1,3,0],[0,0],[2]]","2","[[3,0,0],[2,0],[1]]","17","0","","","","","","5","","","","","","","","",""
"","","","","","single-stim-button","275","523674","0.0-2.0-62.2-0.2","632f7bec7eb646908138c15c","D2","batch4","","586","tol_tohand","","","","tol_peg_3","586","586","0","[[1,3,0],[0,0],[0]]","3","[[3,0,0],[2,0],[1]]","17","0","","","","","","5","","","","","","","","",""
"","","","","","single-stim-button","276","524566","0.0-2.0-62.2-1.2","632f7bec7eb646908138c15c","D2","batch4","","892","tol_toboard","","","","tol_peg_2","892","892","0","[[1,3,0],[2,0],[0]]","3","[[3,0,0],[2,0],[1]]","17","0","","","","","","5","","","","","","","","",""
"","","","","","single-stim-button","277","525278","0.0-2.0-62.3-0.3","632f7bec7eb646908138c15c","D2","batch4","","712","tol_tohand","","","","tol_peg_1","712","712","0","[[1,0,0],[2,0],[0]]","4","[[3,0,0],[2,0],[1]]","17","0","","","","","","5","","","","","","","","",""
"","","","","","single-stim-button","278","525952","0.0-2.0-62.3-1.3","632f7bec7eb646908138c15c","D2","batch4","","674","tol_toboard","","","","tol_peg_2","674","674","0","[[1,0,0],[2,3],[0]]","4","[[3,0,0],[2,0],[1]]","17","0","","","","","","5","","","","","","","","",""
"","","","","","single-stim-button","279","526532","0.0-2.0-62.4-0.4","632f7bec7eb646908138c15c","D2","batch4","","580","tol_tohand","","","","tol_peg_1","580","580","0","[[0,0,0],[2,3],[0]]","5","[[3,0,0],[2,0],[1]]","17","0","","","","","","5","","","","","","","","",""
"","","","","","single-stim-button","280","527502","0.0-2.0-62.4-1.4","632f7bec7eb646908138c15c","D2","batch4","","970","tol_toboard","","","","tol_peg_3","970","970","0","[[0,0,0],[2,3],[1]]","5","[[3,0,0],[2,0],[1]]","17","0","","","","","","5","","","","","","","","",""
"","","","","","single-stim-button","281","528120","0.0-2.0-62.5-0.5","632f7bec7eb646908138c15c","D2","batch4","","618","tol_tohand","","","","tol_peg_2","618","618","0","[[0,0,0],[2,0],[1]]","6","[[3,0,0],[2,0],[1]]","17","0","","","","","","5","","","","","","","","",""
"","","","","","single-stim-button","282","528676","0.0-2.0-62.5-1.5","632f7bec7eb646908138c15c","D2","batch4","","556","tol_toboard","","","","tol_peg_1","556","556","0","[[3,0,0],[2,0],[1]]","6","[[3,0,0],[2,0],[1]]","17","0","","","","","","5","","","","","","","","",""
"","","","","","poldrack-single-stim","283","529683","0.0-2.0-63.0","632f7bec7eb646908138c15c","D2","batch4","","-1","tol_feedback","","","true","","1000","1000","500","","","","","","-1","none","true","4900","7928","","","","","","","","","",""
"","","","","","html-button-response","284","530656","0.0-2.0-64.0","632f7bec7eb646908138c15c","D2","batch4","","972.2999999523163","tol_trial_num","<div class = centerbox><p class = center-block-text>problem <strong>19</strong> out of 25 problems</p></div>","0","","","","","","","","","","","","","","","","","","","","","","","","",""
"","","","","","single-stim-button","285","537576","0.0-2.0-65.0-0.0","632f7bec7eb646908138c15c","D2","batch4","","6920","tol_tohand","","","","tol_peg_1","6920","6920","0","[[1,0,0],[3,0],[0]]","1","[[0,0,0],[1,2],[3]]","18","0","","","","","","7","","","","","","","","",""
"","","","","","single-stim-button","286","539188","0.0-2.0-65.0-1.0","632f7bec7eb646908138c15c","D2","batch4","","1612","tol_toboard","","","","tol_peg_3","1612","1612","0","[[1,0,0],[3,0],[2]]","1","[[0,0,0],[1,2],[3]]","18","0","","","","","","7","","","","","","","","",""
"","","","","","single-stim-button","287","540636","0.0-2.0-65.1-0.1","632f7bec7eb646908138c15c","D2","batch4","","1448","tol_tohand","","","","tol_peg_1","1448","1448","0","[[0,0,0],[3,0],[2]]","2","[[0,0,0],[1,2],[3]]","18","0","","","","","","7","","","","","","","","",""
"","","","","","single-stim-button","288","543140","0.0-2.0-65.1-1.1","632f7bec7eb646908138c15c","D2","batch4","","2504","tol_toboard","","","","tol_peg_2","2504","2504","0","[[0,0,0],[3,1],[2]]","2","[[0,0,0],[1,2],[3]]","18","0","","","","","","7","","","","","","","","",""
"","","","","","single-stim-button","289","543766","0.0-2.0-65.2-0.2","632f7bec7eb646908138c15c","D2","batch4","","626","tol_tohand","","","","tol_peg_3","626","626","0","[[0,0,0],[3,1],[0]]","3","[[0,0,0],[1,2],[3]]","18","0","","","","","","7","","","","","","","","",""
"","","","","","single-stim-button","290","545050","0.0-2.0-65.2-1.2","632f7bec7eb646908138c15c","D2","batch4","","1284","tol_toboard","","","","tol_peg_1","1284","1284","0","[[2,0,0],[3,1],[0]]","3","[[0,0,0],[1,2],[3]]","18","0","","","","","","7","","","","","","","","",""
"","","","","","single-stim-button","291","546184","0.0-2.0-65.3-0.3","632f7bec7eb646908138c15c","D2","batch4","","1134","tol_tohand","","","","tol_peg_2","1134","1134","0","[[2,0,0],[3,0],[0]]","4","[[0,0,0],[1,2],[3]]","18","0","","","","","","7","","","","","","","","",""
"","","","","","single-stim-button","292","547162","0.0-2.0-65.3-1.3","632f7bec7eb646908138c15c","D2","batch4","","978","tol_toboard","","","","tol_peg_1","978","978","0","[[2,1,0],[3,0],[0]]","4","[[0,0,0],[1,2],[3]]","18","0","","","","","","7","","","","","","","","",""
"","","","","","single-stim-button","293","547710","0.0-2.0-65.4-0.4","632f7bec7eb646908138c15c","D2","batch4","","548","tol_tohand","","","","tol_peg_2","548","548","0","[[2,1,0],[0,0],[0]]","5","[[0,0,0],[1,2],[3]]","18","0","","","","","","7","","","","","","","","",""
"","","","","","single-stim-button","294","548548","0.0-2.0-65.4-1.4","632f7bec7eb646908138c15c","D2","batch4","","838","tol_toboard","","","","tol_peg_3","838","838","0","[[2,1,0],[0,0],[3]]","5","[[0,0,0],[1,2],[3]]","18","0","","","","","","7","","","","","","","","",""
"","","","","","single-stim-button","295","549080","0.0-2.0-65.5-0.5","632f7bec7eb646908138c15c","D2","batch4","","531","tol_tohand","","","","tol_peg_1","531","531","0","[[2,0,0],[0,0],[3]]","6","[[0,0,0],[1,2],[3]]","18","0","","","","","","7","","","","","","","","",""
"","","","","","single-stim-button","296","549690","0.0-2.0-65.5-1.5","632f7bec7eb646908138c15c","D2","batch4","","610","tol_toboard","","","","tol_peg_2","610","610","0","[[2,0,0],[1,0],[3]]","6","[[0,0,0],[1,2],[3]]","18","0","","","","","","7","","","","","","","","",""
"","","","","","single-stim-button","297","550246","0.0-2.0-65.6-0.6","632f7bec7eb646908138c15c","D2","batch4","","556","tol_tohand","","","","tol_peg_1","556","556","0","[[0,0,0],[1,0],[3]]","7","[[0,0,0],[1,2],[3]]","18","0","","","","","","7","","","","","","","","",""
"","","","","","single-stim-button","298","551020","0.0-2.0-65.6-1.6","632f7bec7eb646908138c15c","D2","batch4","","774","tol_toboard","","","","tol_peg_2","774","774","0","[[0,0,0],[1,2],[3]]","7","[[0,0,0],[1,2],[3]]","18","0","","","","","","7","","","","","","","","",""
"","","","","","poldrack-single-stim","299","552028","0.0-2.0-66.0","632f7bec7eb646908138c15c","D2","batch4","","-1","tol_feedback","","","true","","1000","1000","500","","","","","","-1","none","true","6920","11763","","","","","","","","","",""
"","","","","","html-button-response","300","553064","0.0-2.0-67.0","632f7bec7eb646908138c15c","D2","batch4","","1034.7999999523163","tol_trial_num","<div class = centerbox><p class = center-block-text>problem <strong>20</strong> out of 25 problems</p></div>","0","","","","","","","","","","","","","","","","","","","","","","","","",""
"","","","","","single-stim-button","301","563206","0.0-2.0-68.0-0.0","632f7bec7eb646908138c15c","D2","batch4","","10142","tol_tohand","","","","tol_peg_1","10142","10142","0","[[1,0,0],[3,0],[0]]","1","[[2,1,0],[0,0],[3]]","19","0","","","","","","5","","","","","","","","",""
"","","","","","single-stim-button","302","564162","0.0-2.0-68.0-1.0","632f7bec7eb646908138c15c","D2","batch4","","956","tol_toboard","","","","tol_peg_2","956","956","0","[[1,0,0],[3,2],[0]]","1","[[2,1,0],[0,0],[3]]","19","0","","","","","","5","","","","","","","","",""
"","","","","","single-stim-button","303","566932","0.0-2.0-68.1-0.1","632f7bec7eb646908138c15c","D2","batch4","","2769","tol_tohand","","","","tol_peg_1","2769","2769","0","[[0,0,0],[3,2],[0]]","2","[[2,1,0],[0,0],[3]]","19","0","","","","","","5","","","","","","","","",""
"","","","","","single-stim-button","304","567958","0.0-2.0-68.1-1.1","632f7bec7eb646908138c15c","D2","batch4","","1026","tol_toboard","","","","tol_peg_3","1026","1026","0","[[0,0,0],[3,2],[1]]","2","[[2,1,0],[0,0],[3]]","19","0","","","","","","5","","","","","","","","",""
"","","","","","single-stim-button","305","568694","0.0-2.0-68.2-0.2","632f7bec7eb646908138c15c","D2","batch4","","736","tol_tohand","","","","tol_peg_2","736","736","0","[[0,0,0],[3,0],[1]]","3","[[2,1,0],[0,0],[3]]","19","0","","","","","","5","","","","","","","","",""
"","","","","","single-stim-button","306","569420","0.0-2.0-68.2-1.2","632f7bec7eb646908138c15c","D2","batch4","","726","tol_toboard","","","","tol_peg_1","726","726","0","[[2,0,0],[3,0],[1]]","3","[[2,1,0],[0,0],[3]]","19","0","","","","","","5","","","","","","","","",""
"","","","","","single-stim-button","307","570156","0.0-2.0-68.3-0.3","632f7bec7eb646908138c15c","D2","batch4","","736","tol_tohand","","","","tol_peg_3","736","736","0","[[2,0,0],[3,0],[0]]","4","[[2,1,0],[0,0],[3]]","19","0","","","","","","5","","","","","","","","",""
"","","","","","single-stim-button","308","571190","0.0-2.0-68.3-1.3","632f7bec7eb646908138c15c","D2","batch4","","1034","tol_toboard","","","","tol_peg_1","1034","1034","0","[[2,1,0],[3,0],[0]]","4","[[2,1,0],[0,0],[3]]","19","0","","","","","","5","","","","","","","","",""
"","","","","","single-stim-button","309","572192","0.0-2.0-68.4-0.4","632f7bec7eb646908138c15c","D2","batch4","","1002","tol_tohand","","","","tol_peg_2","1002","1002","0","[[2,1,0],[0,0],[0]]","5","[[2,1,0],[0,0],[3]]","19","0","","","","","","5","","","","","","","","",""
"","","","","","single-stim-button","310","573028","0.0-2.0-68.4-1.4","632f7bec7eb646908138c15c","D2","batch4","","836","tol_toboard","","","","tol_peg_3","836","836","0","[[2,1,0],[0,0],[3]]","5","[[2,1,0],[0,0],[3]]","19","0","","","","","","5","","","","","","","","",""
"","","","","","poldrack-single-stim","311","574030","0.0-2.0-69.0","632f7bec7eb646908138c15c","D2","batch4","","-1","tol_feedback","","","true","","1000","1000","500","","","","","","-1","none","true","10142","15385","","","","","","","","","",""
"","","","","","html-button-response","312","574978","0.0-2.0-70.0","632f7bec7eb646908138c15c","D2","batch4","","947.0999999046326","tol_trial_num","<div class = centerbox><p class = center-block-text>problem <strong>21</strong> out of 25 problems</p></div>","0","","","","","","","","","","","","","","","","","","","","","","","","",""
"","","","","","single-stim-button","313","580950","0.0-2.0-71.0-0.0","632f7bec7eb646908138c15c","D2","batch4","","5972","tol_tohand","","","","tol_peg_1","5972","5972","0","[[1,0,0],[3,0],[0]]","1","[[3,2,0],[0,0],[1]]","20","0","","","","","","6","","","","","","","","",""
"","","","","","single-stim-button","314","581552","0.0-2.0-71.0-1.0","632f7bec7eb646908138c15c","D2","batch4","","602","tol_toboard","","","","tol_peg_2","602","602","0","[[1,0,0],[3,2],[0]]","1","[[3,2,0],[0,0],[1]]","20","0","","","","","","6","","","","","","","","",""
"","","","","","single-stim-button","315","582108","0.0-2.0-71.1-0.1","632f7bec7eb646908138c15c","D2","batch4","","556","tol_tohand","","","","tol_peg_1","556","556","0","[[0,0,0],[3,2],[0]]","2","[[3,2,0],[0,0],[1]]","20","0","","","","","","6","","","","","","","","",""
"","","","","","single-stim-button","316","582866","0.0-2.0-71.1-1.1","632f7bec7eb646908138c15c","D2","batch4","","758","tol_toboard","","","","tol_peg_3","758","758","0","[[0,0,0],[3,2],[1]]","2","[[3,2,0],[0,0],[1]]","20","0","","","","","","6","","","","","","","","",""
"","","","","","single-stim-button","317","583392","0.0-2.0-71.2-0.2","632f7bec7eb646908138c15c","D2","batch4","","526","tol_tohand","","","","tol_peg_2","526","526","0","[[0,0,0],[3,0],[1]]","3","[[3,2,0],[0,0],[1]]","20","0","","","","","","6","","","","","","","","",""
"","","","","","single-stim-button","318","586506","0.0-2.0-71.2-1.2","632f7bec7eb646908138c15c","D2","batch4","","3114","tol_toboard","","","","tol_peg_1","3114","3114","0","[[2,0,0],[3,0],[1]]","3","[[3,2,0],[0,0],[1]]","20","0","","","","","","6","","","","","","","","",""
"","","","","","single-stim-button","319","587766","0.0-2.0-71.3-0.3","632f7bec7eb646908138c15c","D2","batch4","","1260","tol_tohand","","","","tol_peg_2","1260","1260","0","[[2,0,0],[0,0],[1]]","4","[[3,2,0],[0,0],[1]]","20","0","","","","","","6","","","","","","","","",""
"","","","","","single-stim-button","320","588994","0.0-2.0-71.3-1.3","632f7bec7eb646908138c15c","D2","batch4","","1228","tol_toboard","","","","tol_peg_1","1228","1228","0","[[2,3,0],[0,0],[1]]","4","[[3,2,0],[0,0],[1]]","20","0","","","","","","6","","","","","","","","",""
"","","","","","single-stim-button","321","590356","0.0-2.0-71.4-0.4","632f7bec7eb646908138c15c","D2","batch4","","1361","tol_tohand","","","","tol_peg_3","1361","1361","0","[[2,3,0],[0,0],[0]]","5","[[3,2,0],[0,0],[1]]","20","0","","","","","","6","","","","","","","","",""
"","","","","","single-stim-button","322","591132","0.0-2.0-71.4-1.4","632f7bec7eb646908138c15c","D2","batch4","","776","tol_toboard","","","","tol_peg_2","776","776","0","[[2,3,0],[1,0],[0]]","5","[[3,2,0],[0,0],[1]]","20","0","","","","","","6","","","","","","","","",""
"","","","","","single-stim-button","323","591772","0.0-2.0-71.5-0.5","632f7bec7eb646908138c15c","D2","batch4","","640","tol_tohand","","","","tol_peg_1","640","640","0","[[2,0,0],[1,0],[0]]","6","[[3,2,0],[0,0],[1]]","20","0","","","","","","6","","","","","","","","",""
"","","","","","single-stim-button","324","593886","0.0-2.0-71.5-1.5","632f7bec7eb646908138c15c","D2","batch4","","2113","tol_toboard","","","","tol_peg_3","2113","2113","0","[[2,0,0],[1,0],[3]]","6","[[3,2,0],[0,0],[1]]","20","0","","","","","","6","","","","","","","","",""
"","","","","","single-stim-button","325","594598","0.0-2.0-71.6-0.6","632f7bec7eb646908138c15c","D2","batch4","","712","tol_tohand","","","","tol_peg_1","712","712","0","[[0,0,0],[1,0],[3]]","7","[[3,2,0],[0,0],[1]]","20","0","","","","","","6","","","","","","","","",""
"","","","","","single-stim-button","326","595192","0.0-2.0-71.6-1.6","632f7bec7eb646908138c15c","D2","batch4","","594","tol_toboard","","","","tol_peg_2","594","594","0","[[0,0,0],[1,2],[3]]","7","[[3,2,0],[0,0],[1]]","20","0","","","","","","6","","","","","","","","",""
"","","","","","single-stim-button","327","595732","0.0-2.0-71.7-0.7","632f7bec7eb646908138c15c","D2","batch4","","540","tol_tohand","","","","tol_peg_3","540","540","0","[[0,0,0],[1,2],[0]]","8","[[3,2,0],[0,0],[1]]","20","0","","","","","","6","","","","","","","","",""
"","","","","","single-stim-button","328","596820","0.0-2.0-71.7-1.7","632f7bec7eb646908138c15c","D2","batch4","","1088","tol_toboard","","","","tol_peg_1","1088","1088","0","[[3,0,0],[1,2],[0]]","8","[[3,2,0],[0,0],[1]]","20","0","","","","","","6","","","","","","","","",""
"","","","","","single-stim-button","329","598002","0.0-2.0-71.8-0.8","632f7bec7eb646908138c15c","D2","batch4","","1182","tol_tohand","","","","tol_peg_2","1182","1182","0","[[3,0,0],[1,0],[0]]","9","[[3,2,0],[0,0],[1]]","20","0","","","","","","6","","","","","","","","",""
"","","","","","single-stim-button","330","598924","0.0-2.0-71.8-1.8","632f7bec7eb646908138c15c","D2","batch4","","922","tol_toboard","","","","tol_peg_1","922","922","0","[[3,2,0],[1,0],[0]]","9","[[3,2,0],[0,0],[1]]","20","0","","","","","","6","","","","","","","","",""
"","","","","","single-stim-button","331","599354","0.0-2.0-71.9-0.9","632f7bec7eb646908138c15c","D2","batch4","","429","tol_tohand","","","","tol_peg_2","429","429","0","[[3,2,0],[0,0],[0]]","10","[[3,2,0],[0,0],[1]]","20","0","","","","","","6","","","","","","","","",""
"","","","","","single-stim-button","332","599872","0.0-2.0-71.9-1.9","632f7bec7eb646908138c15c","D2","batch4","","517","tol_toboard","","","","tol_peg_3","517","517","0","[[3,2,0],[0,0],[1]]","10","[[3,2,0],[0,0],[1]]","20","0","","","","","","6","","","","","","","","",""
"","","","","","poldrack-single-stim","333","600877","0.0-2.0-72.0","632f7bec7eb646908138c15c","D2","batch4","","-1","tol_feedback","","","true","","1000","1000","500","","","","","","-1","none","true","5972","13178","","","","","","","","","",""
"","","","","","html-button-response","334","601882","0.0-2.0-73.0","632f7bec7eb646908138c15c","D2","batch4","","1003.8999999761581","tol_trial_num","<div class = centerbox><p class = center-block-text>problem <strong>22</strong> out of 25 problems</p></div>","0","","","","","","","","","","","","","","","","","","","","","","","","",""
"","","","","","single-stim-button","335","607077","0.0-2.0-74.0-0.0","632f7bec7eb646908138c15c","D2","batch4","","5195","tol_tohand","","","","tol_peg_1","5195","5195","0","[[0,0,0],[2,3],[0]]","1","[[0,0,0],[1,2],[3]]","21","0","","","","","","6","","","","","","","","",""
"","","","","","single-stim-button","336","608330","0.0-2.0-74.0-1.0","632f7bec7eb646908138c15c","D2","batch4","","1251","tol_toboard","","","","tol_peg_3","1251","1251","0","[[0,0,0],[2,3],[1]]","1","[[0,0,0],[1,2],[3]]","21","0","","","","","","6","","","","","","","","",""
"","","","","","single-stim-button","337","608823","0.0-2.0-74.1-0.1","632f7bec7eb646908138c15c","D2","batch4","","493","tol_tohand","","","","tol_peg_2","493","493","0","[[0,0,0],[2,0],[1]]","2","[[0,0,0],[1,2],[3]]","21","0","","","","","","6","","","","","","","","",""
"","","","","","single-stim-button","338","609762","0.0-2.0-74.1-1.1","632f7bec7eb646908138c15c","D2","batch4","","937","tol_toboard","","","","tol_peg_1","937","937","0","[[3,0,0],[2,0],[1]]","2","[[0,0,0],[1,2],[3]]","21","0","","","","","","6","","","","","","","","",""
"","","","","","single-stim-button","339","614694","0.0-2.0-74.2-0.2","632f7bec7eb646908138c15c","D2","batch4","","4931","tol_tohand","","","","tol_peg_3","4931","4931","0","[[3,0,0],[2,0],[0]]","3","[[0,0,0],[1,2],[3]]","21","0","","","","","","6","","","","","","","","",""
"","","","","","single-stim-button","340","615922","0.0-2.0-74.2-1.2","632f7bec7eb646908138c15c","D2","batch4","","1227","tol_toboard","","","","tol_peg_1","1227","1227","0","[[3,1,0],[2,0],[0]]","3","[[0,0,0],[1,2],[3]]","21","0","","","","","","6","","","","","","","","",""
"","","","","","single-stim-button","341","616572","0.0-2.0-74.3-0.3","632f7bec7eb646908138c15c","D2","batch4","","649","tol_tohand","","","","tol_peg_2","649","649","0","[[3,1,0],[0,0],[0]]","4","[[0,0,0],[1,2],[3]]","21","0","","","","","","6","","","","","","","","",""
"","","","","","single-stim-button","342","617604","0.0-2.0-74.3-1.3","632f7bec7eb646908138c15c","D2","batch4","","1031","tol_toboard","","","","tol_peg_3","1031","1031","0","[[3,1,0],[0,0],[2]]","4","[[0,0,0],[1,2],[3]]","21","0","","","","","","6","","","","","","","","",""
"","","","","","single-stim-button","343","618176","0.0-2.0-74.4-0.4","632f7bec7eb646908138c15c","D2","batch4","","571","tol_tohand","","","","tol_peg_1","571","571","0","[[3,0,0],[0,0],[2]]","5","[[0,0,0],[1,2],[3]]","21","0","","","","","","6","","","","","","","","",""
"","","","","","single-stim-button","344","619184","0.0-2.0-74.4-1.4","632f7bec7eb646908138c15c","D2","batch4","","1007","tol_toboard","","","","tol_peg_2","1007","1007","0","[[3,0,0],[1,0],[2]]","5","[[0,0,0],[1,2],[3]]","21","0","","","","","","6","","","","","","","","",""
"","","","","","single-stim-button","345","619552","0.0-2.0-74.5-0.5","632f7bec7eb646908138c15c","D2","batch4","","367","tol_tohand","","","","tol_peg_3","367","367","0","[[3,0,0],[1,0],[0]]","6","[[0,0,0],[1,2],[3]]","21","0","","","","","","6","","","","","","","","",""
"","","","","","single-stim-button","346","620328","0.0-2.0-74.5-1.5","632f7bec7eb646908138c15c","D2","batch4","","775","tol_toboard","","","","tol_peg_2","775","775","0","[[3,0,0],[1,2],[0]]","6","[[0,0,0],[1,2],[3]]","21","0","","","","","","6","","","","","","","","",""
"","","","","","single-stim-button","347","620954","0.0-2.0-74.6-0.6","632f7bec7eb646908138c15c","D2","batch4","","625","tol_tohand","","","","tol_peg_1","625","625","0","[[0,0,0],[1,2],[0]]","7","[[0,0,0],[1,2],[3]]","21","0","","","","","","6","","","","","","","","",""
"","","","","","single-stim-button","348","622221","0.0-2.0-74.6-1.6","632f7bec7eb646908138c15c","D2","batch4","","1267","tol_toboard","","","","tol_peg_3","1267","1267","0","[[0,0,0],[1,2],[3]]","7","[[0,0,0],[1,2],[3]]","21","0","","","","","","6","","","","","","","","",""
"","","","","","poldrack-single-stim","349","623226","0.0-2.0-75.0","632f7bec7eb646908138c15c","D2","batch4","","-1","tol_feedback","","","true","","1000","1000","500","","","","","","-1","none","true","5195","12831","","","","","","","","","",""
"","","","","","html-button-response","350","624019","0.0-2.0-76.0","632f7bec7eb646908138c15c","D2","batch4","","792.2000000476837","tol_trial_num","<div class = centerbox><p class = center-block-text>problem <strong>23</strong> out of 25 problems</p></div>","0","","","","","","","","","","","","","","","","","","","","","","","","",""
"","","","","","single-stim-button","351","627901","0.0-2.0-77.0-0.0","632f7bec7eb646908138c15c","D2","batch4","","3881","tol_tohand","","","","tol_peg_1","3881","3881","0","[[1,0,0],[3,0],[0]]","1","[[1,3,2],[0,0],[0]]","22","0","","","","","","3","","","","","","","","",""
"","","","","","single-stim-button","352","628927","0.0-2.0-77.0-1.0","632f7bec7eb646908138c15c","D2","batch4","","1025","tol_toboard","","","","tol_peg_3","1025","1025","0","[[1,0,0],[3,0],[2]]","1","[[1,3,2],[0,0],[0]]","22","0","","","","","","3","","","","","","","","",""
"","","","","","single-stim-button","353","629428","0.0-2.0-77.1-0.1","632f7bec7eb646908138c15c","D2","batch4","","499","tol_tohand","","","","tol_peg_2","499","499","0","[[1,0,0],[0,0],[2]]","2","[[1,3,2],[0,0],[0]]","22","0","","","","","","3","","","","","","","","",""
"","","","","","single-stim-button","354","630656","0.0-2.0-77.1-1.1","632f7bec7eb646908138c15c","D2","batch4","","1228","tol_toboard","","","","tol_peg_1","1228","1228","0","[[1,3,0],[0,0],[2]]","2","[[1,3,2],[0,0],[0]]","22","0","","","","","","3","","","","","","","","",""
"","","","","","single-stim-button","355","631182","0.0-2.0-77.2-0.2","632f7bec7eb646908138c15c","D2","batch4","","525","tol_tohand","","","","tol_peg_3","525","525","0","[[1,3,0],[0,0],[0]]","3","[[1,3,2],[0,0],[0]]","22","0","","","","","","3","","","","","","","","",""
