"success","timeout","failed_images","failed_audio","failed_video","trial_type","trial_index","time_elapsed","internal_node_id","subject_id","study_id","session_id","task","rt","stimulus","response","item","answer","correct","spm_correct","spm_rt","view_history","mouse_click","stim_duration","block_duration","timing_post_trial","current_position","tol_num_moves_made","tol_target","tol_problem_id","tol_rt","key_press","possible_responses","tol_correct","preplanning","tol_rt_per_trial","tol_min_moves","fiar_detect_rt","fiar_detect_correct","total_correct_fiar_detect","post_trial_gap","choices"
"true","false","[]","[]","[]","preload","0","5564","0.0-0.0","6333103245619932bba4c8f6","E1","batch5","","","","","","","","","","","","","","","","","","","","","","","","","","","","","",""
"true","","","","","fullscreen","1","17366","0.0-1.0-0.0","6333103245619932bba4c8f6","E1","batch5","","","","","","","","","","","","","","","","","","","","","","","","","","","","","",""
"true","","","","","fullscreen","2","20551","0.0-2.0-0.0","6333103245619932bba4c8f6","E1","batch5","spm_fullscreen","","","","","","","","","","","","","","","","","","","","","","","","","","","","",""
"","","","","","html-button-response","3","29015","0.0-2.0-1.0","6333103245619932bba4c8f6","E1","batch5","","8462.40000000596","<p class = block-text><b>Instructions</b> <br>This is a widely used intelligence test in research. <br>In this test, a figure with a missing piece will be presented.<br>Below the figure are alternative pieces to complete the figure, only one of which is correct.<br> Different figures might involve different principles for obtaining the missing piece<br>Your job is to select the most logical piece to complete the figure.</p>","0","","","","","","","","","","","","","","","","","","","","","","","","","",""
"","","","","","html-keyboard-response","4","29832","0.0-2.0-2.0-0.0","6333103245619932bba4c8f6","E1","batch5","spm_show_trial_num","null","<p class=block-text>Trial 1 out of 60</p>","null","","","","","","","","","","","","","","","","","","","","","","","","","",""
"","","","","","image-button-response","5","37847","0.0-2.0-2.0-1.0","6333103245619932bba4c8f6","E1","batch5","spm_respsonse","8010.200000017881","img/question_1_1.jpeg","3","mat_01","4","1","1","8010.200000017881","","","","","","","","","","","","","","","","","","","","",""
"","","","","","html-keyboard-response","6","38913","0.0-2.0-2.0-0.1","6333103245619932bba4c8f6","E1","batch5","spm_show_trial_num","null","<p class=block-text>Trial 2 out of 60</p>","null","","","","","","","","","","","","","","","","","","","","","","","","","",""
"","","","","","image-button-response","7","42406","0.0-2.0-2.0-1.1","6333103245619932bba4c8f6","E1","batch5","spm_respsonse","3490.699999988079","img/question_1_2.jpeg","4","mat_02","5","1","1","3490.699999988079","","","","","","","","","","","","","","","","","","","","",""
"","","","","","html-keyboard-response","8","43483","0.0-2.0-2.0-0.2","6333103245619932bba4c8f6","E1","batch5","spm_show_trial_num","null","<p class=block-text>Trial 3 out of 60</p>","null","","","","","","","","","","","","","","","","","","","","","","","","","",""
"","","","","","image-button-response","9","49831","0.0-2.0-2.0-1.2","6333103245619932bba4c8f6","E1","batch5","spm_respsonse","6346.0999999940395","img/question_1_3.jpeg","0","mat_03","1","1","1","6346.0999999940395","","","","","","","","","","","","","","","","","","","","",""
"","","","","","html-keyboard-response","10","50896","0.0-2.0-2.0-0.3","6333103245619932bba4c8f6","E1","batch5","spm_show_trial_num","null","<p class=block-text>Trial 4 out of 60</p>","null","","","","","","","","","","","","","","","","","","","","","","","","","",""
"","","","","","image-button-response","11","55319","0.0-2.0-2.0-1.3","6333103245619932bba4c8f6","E1","batch5","spm_respsonse","4420","img/question_1_4.jpeg","1","mat_04","2","1","1","4420","","","","","","","","","","","","","","","","","","","","",""
"","","","","","html-keyboard-response","12","56383","0.0-2.0-2.0-0.4","6333103245619932bba4c8f6","E1","batch5","spm_show_trial_num","null","<p class=block-text>Trial 5 out of 60</p>","null","","","","","","","","","","","","","","","","","","","","","","","","","",""
"","","","","","image-button-response","13","62751","0.0-2.0-2.0-1.4","6333103245619932bba4c8f6","E1","batch5","spm_respsonse","6365.200000017881","img/question_1_5.jpeg","5","mat_05","6","1","1","6365.200000017881","","","","","","","","","","","","","","","","","","","","",""
"","","","","","html-keyboard-response","14","63807","0.0-2.0-2.0-0.5","6333103245619932bba4c8f6","E1","batch5","spm_show_trial_num","null","<p class=block-text>Trial 6 out of 60</p>","null","","","","","","","","","","","","","","","","","","","","","","","","","",""
"","","","","","image-button-response","15","68479","0.0-2.0-2.0-1.5","6333103245619932bba4c8f6","E1","batch5","spm_respsonse","4669.699999988079","img/question_1_6.jpeg","2","mat_06","3","1","1","4669.699999988079","","","","","","","","","","","","","","","","","","","","",""
"","","","","","html-keyboard-response","16","69541","0.0-2.0-2.0-0.6","6333103245619932bba4c8f6","E1","batch5","spm_show_trial_num","null","<p class=block-text>Trial 7 out of 60</p>","null","","","","","","","","","","","","","","","","","","","","","","","","","",""
"","","","","","image-button-response","17","74023","0.0-2.0-2.0-1.6","6333103245619932bba4c8f6","E1","batch5","spm_respsonse","4480.0999999940395","img/question_1_7.jpeg","5","mat_07","6","1","1","4480.0999999940395","","","","","","","","","","","","","","","","","","","","",""
"","","","","","html-keyboard-response","18","75080","0.0-2.0-2.0-0.7","6333103245619932bba4c8f6","E1","batch5","spm_show_trial_num","null","<p class=block-text>Trial 8 out of 60</p>","null","","","","","","","","","","","","","","","","","","","","","","","","","",""
"","","","","","image-button-response","19","81863","0.0-2.0-2.0-1.7","6333103245619932bba4c8f6","E1","batch5","spm_respsonse","6780.800000011921","img/question_1_8.jpeg","1","mat_08","2","1","1","6780.800000011921","","","","","","","","","","","","","","","","","","","","",""
"","","","","","html-keyboard-response","20","82925","0.0-2.0-2.0-0.8","6333103245619932bba4c8f6","E1","batch5","spm_show_trial_num","null","<p class=block-text>Trial 9 out of 60</p>","null","","","","","","","","","","","","","","","","","","","","","","","","","",""
"","","","","","image-button-response","21","88159","0.0-2.0-2.0-1.8","6333103245619932bba4c8f6","E1","batch5","spm_respsonse","5231.5","img/question_1_9.jpeg","0","mat_09","1","1","1","5231.5","","","","","","","","","","","","","","","","","","","","",""
"","","","","","html-keyboard-response","22","89222","0.0-2.0-2.0-0.9","6333103245619932bba4c8f6","E1","batch5","spm_show_trial_num","null","<p class=block-text>Trial 10 out of 60</p>","null","","","","","","","","","","","","","","","","","","","","","","","","","",""
"","","","","","image-button-response","23","97687","0.0-2.0-2.0-1.9","6333103245619932bba4c8f6","E1","batch5","spm_respsonse","8463.300000011921","img/question_1_10.jpeg","2","mat_10","3","1","1","8463.300000011921","","","","","","","","","","","","","","","","","","","","",""
"","","","","","html-keyboard-response","24","98750","0.0-2.0-2.0-0.10","6333103245619932bba4c8f6","E1","batch5","spm_show_trial_num","null","<p class=block-text>Trial 11 out of 60</p>","null","","","","","","","","","","","","","","","","","","","","","","","","","",""
"","","","","","image-button-response","25","116590","0.0-2.0-2.0-1.10","6333103245619932bba4c8f6","E1","batch5","spm_respsonse","17837.30000001192","img/question_1_11.jpeg","4","mat_11","4","0","0","17837.30000001192","","","","","","","","","","","","","","","","","","","","",""
"","","","","","html-keyboard-response","26","117642","0.0-2.0-2.0-0.11","6333103245619932bba4c8f6","E1","batch5","spm_show_trial_num","null","<p class=block-text>Trial 12 out of 60</p>","null","","","","","","","","","","","","","","","","","","","","","","","","","",""
"","","","","","image-button-response","27","131207","0.0-2.0-2.0-1.11","6333103245619932bba4c8f6","E1","batch5","spm_respsonse","13562.59999999404","img/question_1_12.jpeg","0","mat_12","5","0","0","13562.59999999404","","","","","","","","","","","","","","","","","","","","",""
"","","","","","html-keyboard-response","28","132262","0.0-2.0-2.0-0.12","6333103245619932bba4c8f6","E1","batch5","spm_show_trial_num","null","<p class=block-text>Trial 13 out of 60</p>","null","","","","","","","","","","","","","","","","","","","","","","","","","",""
"","","","","","image-button-response","29","134591","0.0-2.0-2.0-1.12","6333103245619932bba4c8f6","E1","batch5","spm_respsonse","2326.9000000059605","img/question_2_1.jpeg","1","mat_13","2","1","1","2326.9000000059605","","","","","","","","","","","","","","","","","","","","",""
"","","","","","html-keyboard-response","30","135652","0.0-2.0-2.0-0.13","6333103245619932bba4c8f6","E1","batch5","spm_show_trial_num","null","<p class=block-text>Trial 14 out of 60</p>","null","","","","","","","","","","","","","","","","","","","","","","","","","",""
"","","","","","image-button-response","31","146543","0.0-2.0-2.0-1.13","6333103245619932bba4c8f6","E1","batch5","spm_respsonse","10888.799999982119","img/question_2_2.jpeg","5","mat_14","6","1","1","10888.799999982119","","","","","","","","","","","","","","","","","","","","",""
"","","","","","html-keyboard-response","32","147612","0.0-2.0-2.0-0.14","6333103245619932bba4c8f6","E1","batch5","spm_show_trial_num","null","<p class=block-text>Trial 15 out of 60</p>","null","","","","","","","","","","","","","","","","","","","","","","","","","",""
"","","","","","image-button-response","33","152247","0.0-2.0-2.0-1.14","6333103245619932bba4c8f6","E1","batch5","spm_respsonse","4632.699999988079","img/question_2_3.jpeg","0","mat_15","1","1","1","4632.699999988079","","","","","","","","","","","","","","","","","","","","",""
"","","","","","html-keyboard-response","34","153306","0.0-2.0-2.0-0.15","6333103245619932bba4c8f6","E1","batch5","spm_show_trial_num","null","<p class=block-text>Trial 16 out of 60</p>","null","","","","","","","","","","","","","","","","","","","","","","","","","",""
"","","","","","image-button-response","35","158503","0.0-2.0-2.0-1.15","6333103245619932bba4c8f6","E1","batch5","spm_respsonse","5194.5","img/question_2_4.jpeg","1","mat_16","2","1","1","5194.5","","","","","","","","","","","","","","","","","","","","",""
"","","","","","html-keyboard-response","36","159563","0.0-2.0-2.0-0.16","6333103245619932bba4c8f6","E1","batch5","spm_show_trial_num","null","<p class=block-text>Trial 17 out of 60</p>","null","","","","","","","","","","","","","","","","","","","","","","","","","",""
"","","","","","image-button-response","37","165783","0.0-2.0-2.0-1.16","6333103245619932bba4c8f6","E1","batch5","spm_respsonse","6217.5","img/question_2_5.jpeg","0","mat_17","1","1","1","6217.5","","","","","","","","","","","","","","","","","","","","",""
"","","","","","html-keyboard-response","38","166838","0.0-2.0-2.0-0.17","6333103245619932bba4c8f6","E1","batch5","spm_show_trial_num","null","<p class=block-text>Trial 18 out of 60</p>","null","","","","","","","","","","","","","","","","","","","","","","","","","",""
"","","","","","image-button-response","39","173310","0.0-2.0-2.0-1.17","6333103245619932bba4c8f6","E1","batch5","spm_respsonse","6470.800000011921","img/question_2_6.jpeg","2","mat_18","3","1","1","6470.800000011921","","","","","","","","","","","","","","","","","","","","",""
"","","","","","html-keyboard-response","40","174374","0.0-2.0-2.0-0.18","6333103245619932bba4c8f6","E1","batch5","spm_show_trial_num","null","<p class=block-text>Trial 19 out of 60</p>","null","","","","","","","","","","","","","","","","","","","","","","","","","",""
"","","","","","image-button-response","41","181630","0.0-2.0-2.0-1.18","6333103245619932bba4c8f6","E1","batch5","spm_respsonse","7262.299999982119","img/question_2_7.jpeg","4","mat_19","5","1","1","7262.299999982119","","","","","","","","","","","","","","","","","","","","",""
"","","","","","html-keyboard-response","42","182697","0.0-2.0-2.0-0.19","6333103245619932bba4c8f6","E1","batch5","spm_show_trial_num","null","<p class=block-text>Trial 20 out of 60</p>","null","","","","","","","","","","","","","","","","","","","","","","","","","",""
"","","","","","image-button-response","43","193454","0.0-2.0-2.0-1.19","6333103245619932bba4c8f6","E1","batch5","spm_respsonse","10754.59999999404","img/question_2_8.jpeg","5","mat_20","6","1","1","10754.59999999404","","","","","","","","","","","","","","","","","","","","",""
"","","","","","html-keyboard-response","44","194510","0.0-2.0-2.0-0.20","6333103245619932bba4c8f6","E1","batch5","spm_show_trial_num","null","<p class=block-text>Trial 21 out of 60</p>","null","","","","","","","","","","","","","","","","","","","","","","","","","",""
"","","","","","image-button-response","45","198638","0.0-2.0-2.0-1.20","6333103245619932bba4c8f6","E1","batch5","spm_respsonse","4126","img/question_2_9.jpeg","3","mat_21","4","1","1","4126","","","","","","","","","","","","","","","","","","","","",""
"","","","","","html-keyboard-response","46","199699","0.0-2.0-2.0-0.21","6333103245619932bba4c8f6","E1","batch5","spm_show_trial_num","null","<p class=block-text>Trial 22 out of 60</p>","null","","","","","","","","","","","","","","","","","","","","","","","","","",""
"","","","","","image-button-response","47","207310","0.0-2.0-2.0-1.21","6333103245619932bba4c8f6","E1","batch5","spm_respsonse","7609","img/question_2_10.jpeg","2","mat_22","3","1","1","7609","","","","","","","","","","","","","","","","","","","","",""
"","","","","","html-keyboard-response","48","208366","0.0-2.0-2.0-0.22","6333103245619932bba4c8f6","E1","batch5","spm_show_trial_num","null","<p class=block-text>Trial 23 out of 60</p>","null","","","","","","","","","","","","","","","","","","","","","","","","","",""
"","","","","","image-button-response","49","214126","0.0-2.0-2.0-1.22","6333103245619932bba4c8f6","E1","batch5","spm_respsonse","5757.699999988079","img/question_2_11.jpeg","3","mat_23","4","1","1","5757.699999988079","","","","","","","","","","","","","","","","","","","","",""
"","","","","","html-keyboard-response","50","215188","0.0-2.0-2.0-0.23","6333103245619932bba4c8f6","E1","batch5","spm_show_trial_num","null","<p class=block-text>Trial 24 out of 60</p>","null","","","","","","","","","","","","","","","","","","","","","","","","","",""
"","","","","","image-button-response","51","228397","0.0-2.0-2.0-1.23","6333103245619932bba4c8f6","E1","batch5","spm_respsonse","13207.100000023842","img/question_2_12.jpeg","4","mat_24","5","1","1","13207.100000023842","","","","","","","","","","","","","","","","","","","","",""
"","","","","","html-button-response","52","230717","0.0-2.0-3.0","6333103245619932bba4c8f6","E1","batch5","attention_check","2062.4000000059605","<p class = block-text>Attention check: Please choose 1<br></p>","0","","","true","","","","","","","","","","","","","","","","","","","","","","",""
"","","","","","html-keyboard-response","53","231534","0.0-2.0-4.0-0.0","6333103245619932bba4c8f6","E1","batch5","spm_show_trial_num","null","<p class=block-text>Trial 25 out of 60</p>","null","","","","","","","","","","","","","","","","","","","","","","","","","",""
"","","","","","image-button-response","54","240582","0.0-2.0-4.0-1.0","6333103245619932bba4c8f6","E1","batch5","spm_respsonse","9045.300000011921","img/question_3_1.jpeg","7","mat_25","8","1","1","9045.300000011921","","","","","","","","","","","","","","","","","","","","",""
"","","","","","html-keyboard-response","55","241655","0.0-2.0-4.0-0.1","6333103245619932bba4c8f6","E1","batch5","spm_show_trial_num","null","<p class=block-text>Trial 26 out of 60</p>","null","","","","","","","","","","","","","","","","","","","","","","","","","",""
"","","","","","image-button-response","56","250814","0.0-2.0-4.0-1.1","6333103245619932bba4c8f6","E1","batch5","spm_respsonse","9156.700000017881","img/question_3_2.jpeg","1","mat_26","2","1","1","9156.700000017881","","","","","","","","","","","","","","","","","","","","",""
"","","","","","html-keyboard-response","57","251877","0.0-2.0-4.0-0.2","6333103245619932bba4c8f6","E1","batch5","spm_show_trial_num","null","<p class=block-text>Trial 27 out of 60</p>","null","","","","","","","","","","","","","","","","","","","","","","","","","",""
"","","","","","image-button-response","58","261917","0.0-2.0-4.0-1.2","6333103245619932bba4c8f6","E1","batch5","spm_respsonse","10038.5","img/question_3_3.jpeg","2","mat_27","3","1","1","10038.5","","","","","","","","","","","","","","","","","","","","",""
"","","","","","html-keyboard-response","59","262975","0.0-2.0-4.0-0.3","6333103245619932bba4c8f6","E1","batch5","spm_show_trial_num","null","<p class=block-text>Trial 28 out of 60</p>","null","","","","","","","","","","","","","","","","","","","","","","","","","",""
"","","","","","image-button-response","60","273902","0.0-2.0-4.0-1.3","6333103245619932bba4c8f6","E1","batch5","spm_respsonse","10925.199999988079","img/question_3_4.jpeg","7","mat_28","8","1","1","10925.199999988079","","","","","","","","","","","","","","","","","","","","",""
"","","","","","html-keyboard-response","61","274976","0.0-2.0-4.0-0.4","6333103245619932bba4c8f6","E1","batch5","spm_show_trial_num","null","<p class=block-text>Trial 29 out of 60</p>","null","","","","","","","","","","","","","","","","","","","","","","","","","",""
"","","","","","image-button-response","62","284484","0.0-2.0-4.0-1.4","6333103245619932bba4c8f6","E1","batch5","spm_respsonse","9506.200000017881","img/question_3_5.jpeg","6","mat_29","7","1","1","9506.200000017881","","","","","","","","","","","","","","","","","","","","",""
"","","","","","html-keyboard-response","63","285547","0.0-2.0-4.0-0.5","6333103245619932bba4c8f6","E1","batch5","spm_show_trial_num","null","<p class=block-text>Trial 30 out of 60</p>","null","","","","","","","","","","","","","","","","","","","","","","","","","",""
"","","","","","image-button-response","64","293126","0.0-2.0-4.0-1.5","6333103245619932bba4c8f6","E1","batch5","spm_respsonse","7576.9000000059605","img/question_3_6.jpeg","3","mat_30","4","1","1","7576.9000000059605","","","","","","","","","","","","","","","","","","","","",""
"","","","","","html-keyboard-response","65","294193","0.0-2.0-4.0-0.6","6333103245619932bba4c8f6","E1","batch5","spm_show_trial_num","null","<p class=block-text>Trial 31 out of 60</p>","null","","","","","","","","","","","","","","","","","","","","","","","","","",""
"","","","","","image-button-response","66","300132","0.0-2.0-4.0-1.6","6333103245619932bba4c8f6","E1","batch5","spm_respsonse","5936","img/question_3_7.jpeg","4","mat_31","5","1","1","5936","","","","","","","","","","","","","","","","","","","","",""
"","","","","","html-keyboard-response","67","301193","0.0-2.0-4.0-0.7","6333103245619932bba4c8f6","E1","batch5","spm_show_trial_num","null","<p class=block-text>Trial 32 out of 60</p>","null","","","","","","","","","","","","","","","","","","","","","","","","","",""
"","","","","","image-button-response","68","315588","0.0-2.0-4.0-1.7","6333103245619932bba4c8f6","E1","batch5","spm_respsonse","14393.200000017881","img/question_3_8.jpeg","0","mat_32","1","1","1","14393.200000017881","","","","","","","","","","","","","","","","","","","","",""
"","","","","","html-keyboard-response","69","316653","0.0-2.0-4.0-0.8","6333103245619932bba4c8f6","E1","batch5","spm_show_trial_num","null","<p class=block-text>Trial 33 out of 60</p>","null","","","","","","","","","","","","","","","","","","","","","","","","","",""
"","","","","","image-button-response","70","322854","0.0-2.0-4.0-1.8","6333103245619932bba4c8f6","E1","batch5","spm_respsonse","6198.9000000059605","img/question_3_9.jpeg","6","mat_33","7","1","1","6198.9000000059605","","","","","","","","","","","","","","","","","","","","",""
"","","","","","html-keyboard-response","71","323919","0.0-2.0-4.0-0.9","6333103245619932bba4c8f6","E1","batch5","spm_show_trial_num","null","<p class=block-text>Trial 34 out of 60</p>","null","","","","","","","","","","","","","","","","","","","","","","","","","",""
"","","","","","image-button-response","72","339429","0.0-2.0-4.0-1.9","6333103245619932bba4c8f6","E1","batch5","spm_respsonse","15507","img/question_3_10.jpeg","5","mat_34","6","1","1","15507","","","","","","","","","","","","","","","","","","","","",""
"","","","","","html-keyboard-response","73","340482","0.0-2.0-4.0-0.10","6333103245619932bba4c8f6","E1","batch5","spm_show_trial_num","null","<p class=block-text>Trial 35 out of 60</p>","null","","","","","","","","","","","","","","","","","","","","","","","","","",""
"","","","","","image-button-response","74","366117","0.0-2.0-4.0-1.10","6333103245619932bba4c8f6","E1","batch5","spm_respsonse","25632.40000000596","img/question_3_11.jpeg","0","mat_35","1","1","1","25632.40000000596","","","","","","","","","","","","","","","","","","","","",""
"","","","","","html-keyboard-response","75","367182","0.0-2.0-4.0-0.11","6333103245619932bba4c8f6","E1","batch5","spm_show_trial_num","null","<p class=block-text>Trial 36 out of 60</p>","null","","","","","","","","","","","","","","","","","","","","","","","","","",""
"","","","","","image-button-response","76","383022","0.0-2.0-4.0-1.11","6333103245619932bba4c8f6","E1","batch5","spm_respsonse","15837.399999976158","img/question_3_12.jpeg","2","mat_36","2","0","0","15837.399999976158","","","","","","","","","","","","","","","","","","","","",""
"","","","","","html-keyboard-response","77","384088","0.0-2.0-4.0-0.12","6333103245619932bba4c8f6","E1","batch5","spm_show_trial_num","null","<p class=block-text>Trial 37 out of 60</p>","null","","","","","","","","","","","","","","","","","","","","","","","","","",""
"","","","","","image-button-response","78","394046","0.0-2.0-4.0-1.12","6333103245619932bba4c8f6","E1","batch5","spm_respsonse","9955.09999999404","img/question_4_1.jpeg","2","mat_37","3","1","1","9955.09999999404","","","","","","","","","","","","","","","","","","","","",""
"","","","","","html-keyboard-response","79","395109","0.0-2.0-4.0-0.13","6333103245619932bba4c8f6","E1","batch5","spm_show_trial_num","null","<p class=block-text>Trial 38 out of 60</p>","null","","","","","","","","","","","","","","","","","","","","","","","","","",""
"","","","","","image-button-response","80","401918","0.0-2.0-4.0-1.13","6333103245619932bba4c8f6","E1","batch5","spm_respsonse","6806.700000017881","img/question_4_2.jpeg","3","mat_38","4","1","1","6806.700000017881","","","","","","","","","","","","","","","","","","","","",""
"","","","","","html-keyboard-response","81","402970","0.0-2.0-4.0-0.14","6333103245619932bba4c8f6","E1","batch5","spm_show_trial_num","null","<p class=block-text>Trial 39 out of 60</p>","null","","","","","","","","","","","","","","","","","","","","","","","","","",""
"","","","","","image-button-response","82","411037","0.0-2.0-4.0-1.14","6333103245619932bba4c8f6","E1","batch5","spm_respsonse","8066","img/question_4_3.jpeg","2","mat_39","3","1","1","8066","","","","","","","","","","","","","","","","","","","","",""
"","","","","","html-keyboard-response","83","412104","0.0-2.0-4.0-0.15","6333103245619932bba4c8f6","E1","batch5","spm_show_trial_num","null","<p class=block-text>Trial 40 out of 60</p>","null","","","","","","","","","","","","","","","","","","","","","","","","","",""
"","","","","","image-button-response","84","423853","0.0-2.0-4.0-1.15","6333103245619932bba4c8f6","E1","batch5","spm_respsonse","11746.200000017881","img/question_4_4.jpeg","6","mat_40","7","1","1","11746.200000017881","","","","","","","","","","","","","","","","","","","","",""
"","","","","","html-keyboard-response","85","424911","0.0-2.0-4.0-0.16","6333103245619932bba4c8f6","E1","batch5","spm_show_trial_num","null","<p class=block-text>Trial 41 out of 60</p>","null","","","","","","","","","","","","","","","","","","","","","","","","","",""
"","","","","","image-button-response","86","434660","0.0-2.0-4.0-1.16","6333103245619932bba4c8f6","E1","batch5","spm_respsonse","9746.90000000596","img/question_4_5.jpeg","7","mat_41","8","1","1","9746.90000000596","","","","","","","","","","","","","","","","","","","","",""
"","","","","","html-keyboard-response","87","435726","0.0-2.0-4.0-0.17","6333103245619932bba4c8f6","E1","batch5","spm_show_trial_num","null","<p class=block-text>Trial 42 out of 60</p>","null","","","","","","","","","","","","","","","","","","","","","","","","","",""
"","","","","","image-button-response","88","451285","0.0-2.0-4.0-1.17","6333103245619932bba4c8f6","E1","batch5","spm_respsonse","15556.799999982119","img/question_4_6.jpeg","5","mat_42","6","1","1","15556.799999982119","","","","","","","","","","","","","","","","","","","","",""
"","","","","","html-keyboard-response","89","452338","0.0-2.0-4.0-0.18","6333103245619932bba4c8f6","E1","batch5","spm_show_trial_num","null","<p class=block-text>Trial 43 out of 60</p>","null","","","","","","","","","","","","","","","","","","","","","","","","","",""
"","","","","","image-button-response","90","460116","0.0-2.0-4.0-1.18","6333103245619932bba4c8f6","E1","batch5","spm_respsonse","7775.799999982119","img/question_4_7.jpeg","1","mat_43","5","0","0","7775.799999982119","","","","","","","","","","","","","","","","","","","","",""
"","","","","","html-keyboard-response","91","461175","0.0-2.0-4.0-0.19","6333103245619932bba4c8f6","E1","batch5","spm_show_trial_num","null","<p class=block-text>Trial 44 out of 60</p>","null","","","","","","","","","","","","","","","","","","","","","","","","","",""
"","","","","","image-button-response","92","473901","0.0-2.0-4.0-1.19","6333103245619932bba4c8f6","E1","batch5","spm_respsonse","12724.199999988079","img/question_4_8.jpeg","3","mat_44","4","1","1","12724.199999988079","","","","","","","","","","","","","","","","","","","","",""
"","","","","","html-keyboard-response","93","474966","0.0-2.0-4.0-0.20","6333103245619932bba4c8f6","E1","batch5","spm_show_trial_num","null","<p class=block-text>Trial 45 out of 60</p>","null","","","","","","","","","","","","","","","","","","","","","","","","","",""
"","","","","","image-button-response","94","495293","0.0-2.0-4.0-1.20","6333103245619932bba4c8f6","E1","batch5","spm_respsonse","20325.59999999404","img/question_4_9.jpeg","0","mat_45","1","1","1","20325.59999999404","","","","","","","","","","","","","","","","","","","","",""
"","","","","","html-keyboard-response","95","496344","0.0-2.0-4.0-0.21","6333103245619932bba4c8f6","E1","batch5","spm_show_trial_num","null","<p class=block-text>Trial 46 out of 60</p>","null","","","","","","","","","","","","","","","","","","","","","","","","","",""
"","","","","","image-button-response","96","516821","0.0-2.0-4.0-1.21","6333103245619932bba4c8f6","E1","batch5","spm_respsonse","20474.79999998212","img/question_4_10.jpeg","1","mat_46","2","1","1","20474.79999998212","","","","","","","","","","","","","","","","","","","","",""
"","","","","","html-keyboard-response","97","517877","0.0-2.0-4.0-0.22","6333103245619932bba4c8f6","E1","batch5","spm_show_trial_num","null","<p class=block-text>Trial 47 out of 60</p>","null","","","","","","","","","","","","","","","","","","","","","","","","","",""
"","","","","","image-button-response","98","555740","0.0-2.0-4.0-1.22","6333103245619932bba4c8f6","E1","batch5","spm_respsonse","37860.20000001788","img/question_4_11.jpeg","4","mat_47","5","1","1","37860.20000001788","","","","","","","","","","","","","","","","","","","","",""
"","","","","","html-keyboard-response","99","556797","0.0-2.0-4.0-0.23","6333103245619932bba4c8f6","E1","batch5","spm_show_trial_num","null","<p class=block-text>Trial 48 out of 60</p>","null","","","","","","","","","","","","","","","","","","","","","","","","","",""
"","","","","","image-button-response","100","599941","0.0-2.0-4.0-1.23","6333103245619932bba4c8f6","E1","batch5","spm_respsonse","43141.40000000596","img/question_4_12.jpeg","5","mat_48","6","1","1","43141.40000000596","","","","","","","","","","","","","","","","","","","","",""
"","","","","","html-keyboard-response","101","601006","0.0-2.0-4.0-0.24","6333103245619932bba4c8f6","E1","batch5","spm_show_trial_num","null","<p class=block-text>Trial 49 out of 60</p>","null","","","","","","","","","","","","","","","","","","","","","","","","","",""
"","","","","","image-button-response","102","613253","0.0-2.0-4.0-1.24","6333103245619932bba4c8f6","E1","batch5","spm_respsonse","12244.700000017881","img/question_5_1.jpeg","6","mat_49","7","1","1","12244.700000017881","","","","","","","","","","","","","","","","","","","","",""
"","","","","","html-keyboard-response","103","614316","0.0-2.0-4.0-0.25","6333103245619932bba4c8f6","E1","batch5","spm_show_trial_num","null","<p class=block-text>Trial 50 out of 60</p>","null","","","","","","","","","","","","","","","","","","","","","","","","","",""
"","","","","","image-button-response","104","640165","0.0-2.0-4.0-1.25","6333103245619932bba4c8f6","E1","batch5","spm_respsonse","25846","img/question_5_2.jpeg","0","mat_50","6","0","0","25846","","","","","","","","","","","","","","","","","","","","",""
"","","","","","html-keyboard-response","105","641221","0.0-2.0-4.0-0.26","6333103245619932bba4c8f6","E1","batch5","spm_show_trial_num","null","<p class=block-text>Trial 51 out of 60</p>","null","","","","","","","","","","","","","","","","","","","","","","","","","",""
"","","","","","image-button-response","106","656395","0.0-2.0-4.0-1.26","6333103245619932bba4c8f6","E1","batch5","spm_respsonse","15172","img/question_5_3.jpeg","1","mat_51","8","0","0","15172","","","","","","","","","","","","","","","","","","","","",""
"","","","","","html-keyboard-response","107","657448","0.0-2.0-4.0-0.27","6333103245619932bba4c8f6","E1","batch5","spm_show_trial_num","null","<p class=block-text>Trial 52 out of 60</p>","null","","","","","","","","","","","","","","","","","","","","","","","","","",""
"","","","","","image-button-response","108","668492","0.0-2.0-4.0-1.27","6333103245619932bba4c8f6","E1","batch5","spm_respsonse","11042.5","img/question_5_4.jpeg","1","mat_52","2","1","1","11042.5","","","","","","","","","","","","","","","","","","","","",""
"","","","","","html-keyboard-response","109","669546","0.0-2.0-4.0-0.28","6333103245619932bba4c8f6","E1","batch5","spm_show_trial_num","null","<p class=block-text>Trial 53 out of 60</p>","null","","","","","","","","","","","","","","","","","","","","","","","","","",""
"","","","","","image-button-response","110","704187","0.0-2.0-4.0-1.28","6333103245619932bba4c8f6","E1","batch5","spm_respsonse","34639.29999998212","img/question_5_5.jpeg","0","mat_53","1","1","1","34639.29999998212","","","","","","","","","","","","","","","","","","","","",""
"","","","","","html-keyboard-response","111","705255","0.0-2.0-4.0-0.29","6333103245619932bba4c8f6","E1","batch5","spm_show_trial_num","null","<p class=block-text>Trial 54 out of 60</p>","null","","","","","","","","","","","","","","","","","","","","","","","","","",""
"","","","","","image-button-response","112","729826","0.0-2.0-4.0-1.29","6333103245619932bba4c8f6","E1","batch5","spm_respsonse","24568.90000000596","img/question_5_6.jpeg","4","mat_54","5","1","1","24568.90000000596","","","","","","","","","","","","","","","","","","","","",""
"","","","","","html-keyboard-response","113","730891","0.0-2.0-4.0-0.30","6333103245619932bba4c8f6","E1","batch5","spm_show_trial_num","null","<p class=block-text>Trial 55 out of 60</p>","null","","","","","","","","","","","","","","","","","","","","","","","","","",""
"","","","","","image-button-response","114","744763","0.0-2.0-4.0-1.30","6333103245619932bba4c8f6","E1","batch5","spm_respsonse","13870.5","img/question_5_7.jpeg","2","mat_55","1","0","0","13870.5","","","","","","","","","","","","","","","","","","","","",""
"","","","","","html-keyboard-response","115","745815","0.0-2.0-4.0-0.31","6333103245619932bba4c8f6","E1","batch5","spm_show_trial_num","null","<p class=block-text>Trial 56 out of 60</p>","null","","","","","","","","","","","","","","","","","","","","","","","","","",""
"","","","","","image-button-response","116","761962","0.0-2.0-4.0-1.31","6333103245619932bba4c8f6","E1","batch5","spm_respsonse","16145.700000017881","img/question_5_8.jpeg","7","mat_56","6","0","0","16145.700000017881","","","","","","","","","","","","","","","","","","","","",""
"","","","","","html-keyboard-response","117","763018","0.0-2.0-4.0-0.32","6333103245619932bba4c8f6","E1","batch5","spm_show_trial_num","null","<p class=block-text>Trial 57 out of 60</p>","null","","","","","","","","","","","","","","","","","","","","","","","","","",""
"","","","","","image-button-response","118","780540","0.0-2.0-4.0-1.32","6333103245619932bba4c8f6","E1","batch5","spm_respsonse","17519.59999999404","img/question_5_9.jpeg","7","mat_57","3","0","0","17519.59999999404","","","","","","","","","","","","","","","","","","","","",""
"","","","","","html-keyboard-response","119","781608","0.0-2.0-4.0-0.33","6333103245619932bba4c8f6","E1","batch5","spm_show_trial_num","null","<p class=block-text>Trial 58 out of 60</p>","null","","","","","","","","","","","","","","","","","","","","","","","","","",""
"","","","","","image-button-response","120","788860","0.0-2.0-4.0-1.33","6333103245619932bba4c8f6","E1","batch5","spm_respsonse","7249.0999999940395","img/question_5_10.jpeg","5","mat_58","2","0","0","7249.0999999940395","","","","","","","","","","","","","","","","","","","","",""
"","","","","","html-keyboard-response","121","789922","0.0-2.0-4.0-0.34","6333103245619932bba4c8f6","E1","batch5","spm_show_trial_num","null","<p class=block-text>Trial 59 out of 60</p>","null","","","","","","","","","","","","","","","","","","","","","","","","","",""
"","","","","","image-button-response","122","800770","0.0-2.0-4.0-1.34","6333103245619932bba4c8f6","E1","batch5","spm_respsonse","10846.09999999404","img/question_5_11.jpeg","1","mat_59","4","0","0","10846.09999999404","","","","","","","","","","","","","","","","","","","","",""
"","","","","","html-keyboard-response","123","801834","0.0-2.0-4.0-0.35","6333103245619932bba4c8f6","E1","batch5","spm_show_trial_num","null","<p class=block-text>Trial 60 out of 60</p>","null","","","","","","","","","","","","","","","","","","","","","","","","","",""
"","","","","","image-button-response","124","809850","0.0-2.0-4.0-1.35","6333103245619932bba4c8f6","E1","batch5","spm_respsonse","8013.700000017881","img/question_5_12.jpeg","6","mat_60","5","0","0","8013.700000017881","","","","","","","","","","","","","","","","","","","","",""
"","","","","","html-button-response","125","812379","0.0-2.0-5.0","6333103245619932bba4c8f6","E1","batch5","spm_goodbye","2270.100000023842","<p class= block-text>This concludes the Standard Progressive Matrix game. Thank you for your responses!<br> When you are ready, click the button continue</p>","0","","","","","","","","","","","","","","","","","","","","","","","","","",""
"true","","","","","fullscreen","126","815557","0.0-3.0-0.0","6333103245619932bba4c8f6","E1","batch5","","","","","","","","","","","","","","","","","","","","","","","","","","","","","",""
"","","","","","instructions","127","875795","0.0-3.0-1.0-0.0-0.0","6333103245619932bba4c8f6","E1","batch5","tol-instructions","60236.30000001192","","","","","","","","[{""page_index"":0,""viewing_time"":21795.600000023842},{""page_index"":1,""viewing_time"":4448.299999982119},{""page_index"":2,""viewing_time"":6815.5},{""page_index"":3,""viewing_time"":11359.200000017881},{""page_index"":4,""viewing_time"":5008.799999982119},{""page_index"":5,""viewing_time"":7648.5999999940395},{""page_index"":6,""viewing_time"":3160}]","","","","","","","","","","","","","","","","","","","",""
"","","","","","html-button-response","128","877810","0.0-3.0-1.0-1.0-0.0","6333103245619932bba4c8f6","E1","batch5","tol_enter_quiz","2014.3999999761581","<p class=block-text> Let's answer a few questions <br>","0","","","","","","","","","","","","","","","","","","","","","","","","","",""
"","","","","","html-button-response","129","881794","0.0-3.0-1.0-1.0-1.0","6333103245619932bba4c8f6","E1","batch5","tol_quiz","3982.5","<p class = block-text>True or False: You can only move the ball on top of a peg. <br></p>","0","","","true","","","","","","","","","","","","","","","","","","","","","","",""
"","","","","","html-button-response","130","883203","0.0-3.0-1.0-1.0-2.0","6333103245619932bba4c8f6","E1","batch5","tol_quiz_feedback","1406.1000000238419","<p class = block-text>Correct! You can only move the ball on top of a peg.</p>","0","","","","","","","","","","","","","","","","","","","","","","","","","",""
"","","","","","html-button-response","131","886801","0.0-3.0-1.0-1.0-3.0","6333103245619932bba4c8f6","E1","batch5","tol_quiz","3597.0999999940395","<p class = block-text>True or False: You should try to match your board with the target board with fewest moves possible. <br></p>","0","","","true","","","","","","","","","","","","","","","","","","","","","","",""
"","","","","","html-button-response","132","887659","0.0-3.0-1.0-1.0-4.0","6333103245619932bba4c8f6","E1","batch5","tol_quiz_feedback","856.6000000238419","<p class = block-text>Correct! </p>","0","","","","","","","","","","","","","","","","","","","","","","","","","",""
"","","","","","html-button-response","133","901754","0.0-3.0-2.0","6333103245619932bba4c8f6","E1","batch5","","14094","<p class=block-text> Now that you've understood the game, let's practice a few easier examples before we start!<br> <br>","0","","","","","","","","","","","","","","","","","","","","","","","","","",""
"","","","","","single-stim-button","134","905332","0.0-3.0-3.0-0.0","6333103245619932bba4c8f6","E1","batch5","tol_practice","3575","","","","","","","","","tol_peg_2","3575","3575","0","[[1,2,0],[0,0],[0]]","1","[[1,2,0],[0,0],[3]]","practice","3575","","","","","","","","","","",""
"","","","","","single-stim-button","135","912299","0.0-3.0-3.0-1.0","6333103245619932bba4c8f6","E1","batch5","tol_practice","6966","","","","","","","","","tol_peg_3","6966","6966","0","[[1,2,0],[0,0],[3]]","1","[[1,2,0],[0,0],[3]]","practice","6966","","","","","","","","","","",""
"","","","","","poldrack-single-stim","136","913301","0.0-3.0-4.0","6333103245619932bba4c8f6","E1","batch5","tol_feedback","-1","","","","","true","","","","","1000","1000","500","","","","","","-1","none","true","","0","","","","","",""
"","","","","","single-stim-button","137","918659","0.0-3.0-5.0-0.0","6333103245619932bba4c8f6","E1","batch5","tol_practice","5357","","","","","","","","","tol_peg_1","5357","5357","0","[[1,0,0],[3,0],[0]]","2","[[0,0,0],[3,1],[2]]","practice","5357","","","","","","","","","","",""
"","","","","","single-stim-button","138","920323","0.0-3.0-5.0-1.0","6333103245619932bba4c8f6","E1","batch5","tol_practice","1664","","","","","","","","","tol_peg_3","1664","1664","0","[[1,0,0],[3,0],[2]]","2","[[0,0,0],[3,1],[2]]","practice","1664","","","","","","","","","","",""
"","","","","","single-stim-button","139","921507","0.0-3.0-5.1-0.1","6333103245619932bba4c8f6","E1","batch5","tol_practice","1183","","","","","","","","","tol_peg_1","1183","1183","0","[[0,0,0],[3,0],[2]]","3","[[0,0,0],[3,1],[2]]","practice","1183","","","","","","","","","","",""
"","","","","","single-stim-button","140","923283","0.0-3.0-5.1-1.1","6333103245619932bba4c8f6","E1","batch5","tol_practice","1775","","","","","","","","","tol_peg_2","1775","1775","0","[[0,0,0],[3,1],[2]]","3","[[0,0,0],[3,1],[2]]","practice","1775","","","","","","","","","","",""
"","","","","","poldrack-single-stim","141","924300","0.0-3.0-6.0","6333103245619932bba4c8f6","E1","batch5","tol_feedback","-1","","","","","true","","","","","1000","1000","500","","","","","","-1","none","true","","0","","","","","",""
"","","","","","single-stim-button","142","929593","0.0-3.0-7.0-0.0","6333103245619932bba4c8f6","E1","batch5","tol_practice","5293","","","","","","","","","tol_peg_2","5293","5293","0","[[1,2,0],[0,0],[0]]","4","[[1,0,0],[2,0],[3]]","practice","5293","","","","","","","","","","",""
"","","","","","single-stim-button","143","930827","0.0-3.0-7.0-1.0","6333103245619932bba4c8f6","E1","batch5","tol_practice","1233","","","","","","","","","tol_peg_3","1233","1233","0","[[1,2,0],[0,0],[3]]","4","[[1,0,0],[2,0],[3]]","practice","1233","","","","","","","","","","",""
"","","","","","single-stim-button","144","931675","0.0-3.0-7.1-0.1","6333103245619932bba4c8f6","E1","batch5","tol_practice","847","","","","","","","","","tol_peg_1","847","847","0","[[1,0,0],[0,0],[3]]","5","[[1,0,0],[2,0],[3]]","practice","847","","","","","","","","","","",""
"","","","","","single-stim-button","145","933323","0.0-3.0-7.1-1.1","6333103245619932bba4c8f6","E1","batch5","tol_practice","1648","","","","","","","","","tol_peg_2","1648","1648","0","[[1,0,0],[2,0],[3]]","5","[[1,0,0],[2,0],[3]]","practice","1648","","","","","","","","","","",""
"","","","","","poldrack-single-stim","146","934333","0.0-3.0-8.0","6333103245619932bba4c8f6","E1","batch5","tol_feedback","-1","","","","","true","","","","","1000","1000","500","","","","","","-1","none","true","","0","","","","","",""
"","","","","","html-button-response","147","937147","0.0-3.0-9.0","6333103245619932bba4c8f6","E1","batch5","tol_instruction","2812.7999999821186","<div class = centerbox><p class = center-block-text>Great job! You are done with practice trials<br>You are about to start official trials.<br> <br> Problem <strong>1</strong> out of 25 problems</p></div>","0","","","","","","","","","","","","","","","","","","","","","","","","","",""
"","","","","","single-stim-button","148","944427","0.0-3.0-10.0-0.0","6333103245619932bba4c8f6","E1","batch5","tol_tohand","6272","","","","","","","","","tol_peg_2","6272","6272","0","[[1,2,0],[0,0],[0]]","1","[[1,3,0],[2,0],[0]]","0","0","","","","","","3","","","","",""
"","","","","","single-stim-button","149","947826","0.0-3.0-10.0-1.0","6333103245619932bba4c8f6","E1","batch5","tol_toboard","3399","","","","","","","","","tol_peg_3","3399","3399","0","[[1,2,0],[0,0],[3]]","1","[[1,3,0],[2,0],[0]]","0","0","","","","","","3","","","","",""
"","","","","","single-stim-button","150","949002","0.0-3.0-10.1-0.1","6333103245619932bba4c8f6","E1","batch5","tol_tohand","1175","","","","","","","","","tol_peg_1","1175","1175","0","[[1,0,0],[0,0],[3]]","2","[[1,3,0],[2,0],[0]]","0","0","","","","","","3","","","","",""
"","","","","","single-stim-button","151","950075","0.0-3.0-10.1-1.1","6333103245619932bba4c8f6","E1","batch5","tol_toboard","1073","","","","","","","","","tol_peg_2","1073","1073","0","[[1,0,0],[2,0],[3]]","2","[[1,3,0],[2,0],[0]]","0","0","","","","","","3","","","","",""
"","","","","","single-stim-button","152","951243","0.0-3.0-10.2-0.2","6333103245619932bba4c8f6","E1","batch5","tol_tohand","1167","","","","","","","","","tol_peg_3","1167","1167","0","[[1,0,0],[2,0],[0]]","3","[[1,3,0],[2,0],[0]]","0","0","","","","","","3","","","","",""
"","","","","","single-stim-button","153","952419","0.0-3.0-10.2-1.2","6333103245619932bba4c8f6","E1","batch5","tol_toboard","1176","","","","","","","","","tol_peg_1","1176","1176","0","[[1,3,0],[2,0],[0]]","3","[[1,3,0],[2,0],[0]]","0","0","","","","","","3","","","","",""
"","","","","","poldrack-single-stim","154","953426","0.0-3.0-11.0","6333103245619932bba4c8f6","E1","batch5","tol_feedback","-1","","","","","true","","","","","1000","1000","500","","","","","","-1","none","true","6272","8614","","","","","",""
"","","","","","html-button-response","155","954578","0.0-3.0-12.0","6333103245619932bba4c8f6","E1","batch5","tol_trial_num","1150.5999999940395","<div class = centerbox><p class = center-block-text>problem <strong>2</strong> out of 25 problems</p></div>","0","","","","","","","","","","","","","","","","","","","","","","","","","",""
"","","","","","single-stim-button","156","963659","0.0-3.0-13.0-0.0","6333103245619932bba4c8f6","E1","batch5","tol_tohand","9080","","","","","","","","","tol_peg_1","9080","9080","0","[[1,0,0],[3,0],[0]]","1","[[2,1,3],[0,0],[0]]","1","0","","","","","","5","","","","",""
"","","","","","single-stim-button","157","964923","0.0-3.0-13.0-1.0","6333103245619932bba4c8f6","E1","batch5","tol_toboard","1262","","","","","","","","","tol_peg_3","1262","1262","0","[[1,0,0],[3,0],[2]]","1","[[2,1,3],[0,0],[0]]","1","0","","","","","","5","","","","",""
"","","","","","single-stim-button","158","965930","0.0-3.0-13.1-0.1","6333103245619932bba4c8f6","E1","batch5","tol_tohand","1007","","","","","","","","","tol_peg_1","1007","1007","0","[[0,0,0],[3,0],[2]]","2","[[2,1,3],[0,0],[0]]","1","0","","","","","","5","","","","",""
"","","","","","single-stim-button","159","967291","0.0-3.0-13.1-1.1","6333103245619932bba4c8f6","E1","batch5","tol_toboard","1360","","","","","","","","","tol_peg_2","1360","1360","0","[[0,0,0],[3,1],[2]]","2","[[2,1,3],[0,0],[0]]","1","0","","","","","","5","","","","",""
"","","","","","single-stim-button","160","968698","0.0-3.0-13.2-0.2","6333103245619932bba4c8f6","E1","batch5","tol_tohand","1407","","","","","","","","","tol_peg_3","1407","1407","0","[[0,0,0],[3,1],[0]]","3","[[2,1,3],[0,0],[0]]","1","0","","","","","","5","","","","",""
"","","","","","single-stim-button","161","970066","0.0-3.0-13.2-1.2","6333103245619932bba4c8f6","E1","batch5","tol_toboard","1367","","","","","","","","","tol_peg_1","1367","1367","0","[[2,0,0],[3,1],[0]]","3","[[2,1,3],[0,0],[0]]","1","0","","","","","","5","","","","",""
"","","","","","single-stim-button","162","970938","0.0-3.0-13.3-0.3","6333103245619932bba4c8f6","E1","batch5","tol_tohand","871","","","","","","","","","tol_peg_2","871","871","0","[[2,0,0],[3,0],[0]]","4","[[2,1,3],[0,0],[0]]","1","0","","","","","","5","","","","",""
"","","","","","single-stim-button","163","971978","0.0-3.0-13.3-1.3","6333103245619932bba4c8f6","E1","batch5","tol_toboard","1039","","","","","","","","","tol_peg_1","1039","1039","0","[[2,1,0],[3,0],[0]]","4","[[2,1,3],[0,0],[0]]","1","0","","","","","","5","","","","",""
"","","","","","single-stim-button","164","972810","0.0-3.0-13.4-0.4","6333103245619932bba4c8f6","E1","batch5","tol_tohand","832","","","","","","","","","tol_peg_2","832","832","0","[[2,1,0],[0,0],[0]]","5","[[2,1,3],[0,0],[0]]","1","0","","","","","","5","","","","",""
"","","","","","single-stim-button","165","976106","0.0-3.0-13.4-1.4","6333103245619932bba4c8f6","E1","batch5","tol_toboard","3295","","","","","","","","","tol_peg_1","3295","3295","0","[[2,1,3],[0,0],[0]]","5","[[2,1,3],[0,0],[0]]","1","0","","","","","","5","","","","",""
"","","","","","poldrack-single-stim","166","977110","0.0-3.0-14.0","6333103245619932bba4c8f6","E1","batch5","tol_feedback","-1","","","","","true","","","","","1000","1000","500","","","","","","-1","none","true","9080","13197","","","","","",""
"","","","","","html-button-response","167","979826","0.0-3.0-15.0","6333103245619932bba4c8f6","E1","batch5","tol_trial_num","2715","<div class = centerbox><p class = center-block-text>problem <strong>3</strong> out of 25 problems</p></div>","0","","","","","","","","","","","","","","","","","","","","","","","","","",""
"","","","","","single-stim-button","168","986403","0.0-3.0-16.0-0.0","6333103245619932bba4c8f6","E1","batch5","tol_tohand","6575","","","","","","","","","tol_peg_1","6575","6575","0","[[2,0,0],[0,0],[1]]","1","[[1,2,0],[3,0],[0]]","2","0","","","","","","4","","","","",""
"","","","","","single-stim-button","169","988370","0.0-3.0-16.0-1.0","6333103245619932bba4c8f6","E1","batch5","tol_toboard","1966","","","","","","","","","tol_peg_2","1966","1966","0","[[2,0,0],[3,0],[1]]","1","[[1,2,0],[3,0],[0]]","2","0","","","","","","4","","","","",""
"","","","","","single-stim-button","170","992818","0.0-3.0-16.1-0.1","6333103245619932bba4c8f6","E1","batch5","tol_tohand","4448","","","","","","","","","tol_peg_3","4448","4448","0","[[2,0,0],[3,0],[0]]","2","[[1,2,0],[3,0],[0]]","2","0","","","","","","4","","","","",""
"","","","","","single-stim-button","171","994282","0.0-3.0-16.1-1.1","6333103245619932bba4c8f6","E1","batch5","tol_toboard","1463","","","","","","","","","tol_peg_2","1463","1463","0","[[2,0,0],[3,1],[0]]","2","[[1,2,0],[3,0],[0]]","2","0","","","","","","4","","","","",""
"","","","","","single-stim-button","172","995114","0.0-3.0-16.2-0.2","6333103245619932bba4c8f6","E1","batch5","tol_tohand","831","","","","","","","","","tol_peg_1","831","831","0","[[0,0,0],[3,1],[0]]","3","[[1,2,0],[3,0],[0]]","2","0","","","","","","4","","","","",""
"","","","","","single-stim-button","173","996666","0.0-3.0-16.2-1.2","6333103245619932bba4c8f6","E1","batch5","tol_toboard","1550","","","","","","","","","tol_peg_3","1550","1550","0","[[0,0,0],[3,1],[2]]","3","[[1,2,0],[3,0],[0]]","2","0","","","","","","4","","","","",""
"","","","","","single-stim-button","174","997274","0.0-3.0-16.3-0.3","6333103245619932bba4c8f6","E1","batch5","tol_tohand","608","","","","","","","","","tol_peg_2","608","608","0","[[0,0,0],[3,0],[2]]","4","[[1,2,0],[3,0],[0]]","2","0","","","","","","4","","","","",""
"","","","","","single-stim-button","175","999842","0.0-3.0-16.3-1.3","6333103245619932bba4c8f6","E1","batch5","tol_toboard","2567","","","","","","","","","tol_peg_1","2567","2567","0","[[1,0,0],[3,0],[2]]","4","[[1,2,0],[3,0],[0]]","2","0","","","","","","4","","","","",""
"","","","","","single-stim-button","176","1001369","0.0-3.0-16.4-0.4","6333103245619932bba4c8f6","E1","batch5","tol_tohand","1526","","","","","","","","","tol_peg_3","1526","1526","0","[[1,0,0],[3,0],[0]]","5","[[1,2,0],[3,0],[0]]","2","0","","","","","","4","","","","",""
"","","","","","single-stim-button","177","1002507","0.0-3.0-16.4-1.4","6333103245619932bba4c8f6","E1","batch5","tol_toboard","1137","","","","","","","","","tol_peg_1","1137","1137","0","[[1,2,0],[3,0],[0]]","5","[[1,2,0],[3,0],[0]]","2","0","","","","","","4","","","","",""
"","","","","","poldrack-single-stim","178","1003509","0.0-3.0-17.0","6333103245619932bba4c8f6","E1","batch5","tol_feedback","-1","","","","","true","","","","","1000","1000","500","","","","","","-1","none","true","6575","13988","","","","","",""
"","","","","","html-button-response","179","1016569","0.0-3.0-18.0","6333103245619932bba4c8f6","E1","batch5","tol_trial_num","13058.700000017881","<div class = centerbox><p class = center-block-text>problem <strong>4</strong> out of 25 problems</p></div>","0","","","","","","","","","","","","","","","","","","","","","","","","","",""
"","","","","","single-stim-button","180","1030829","0.0-3.0-19.0-0.0","6333103245619932bba4c8f6","E1","batch5","tol_tohand","14259","","","","","","","","","tol_peg_2","14259","14259","0","[[3,0,0],[2,0],[0]]","1","[[3,0,0],[1,0],[2]]","3","0","","","","","","3","","","","",""
"","","","","","single-stim-button","181","1035100","0.0-3.0-19.0-1.0","6333103245619932bba4c8f6","E1","batch5","tol_toboard","4271","","","","","","","","","tol_peg_1","4271","4271","0","[[3,1,0],[2,0],[0]]","1","[[3,0,0],[1,0],[2]]","3","0","","","","","","3","","","","",""
"","","","","","single-stim-button","182","1036108","0.0-3.0-19.1-0.1","6333103245619932bba4c8f6","E1","batch5","tol_tohand","1007","","","","","","","","","tol_peg_2","1007","1007","0","[[3,1,0],[0,0],[0]]","2","[[3,0,0],[1,0],[2]]","3","0","","","","","","3","","","","",""
"","","","","","single-stim-button","183","1037365","0.0-3.0-19.1-1.1","6333103245619932bba4c8f6","E1","batch5","tol_toboard","1257","","","","","","","","","tol_peg_3","1257","1257","0","[[3,1,0],[0,0],[2]]","2","[[3,0,0],[1,0],[2]]","3","0","","","","","","3","","","","",""
"","","","","","single-stim-button","184","1038141","0.0-3.0-19.2-0.2","6333103245619932bba4c8f6","E1","batch5","tol_tohand","774","","","","","","","","","tol_peg_1","774","774","0","[[3,0,0],[0,0],[2]]","3","[[3,0,0],[1,0],[2]]","3","0","","","","","","3","","","","",""
"","","","","","single-stim-button","185","1039429","0.0-3.0-19.2-1.2","6333103245619932bba4c8f6","E1","batch5","tol_toboard","1287","","","","","","","","","tol_peg_2","1287","1287","0","[[3,0,0],[1,0],[2]]","3","[[3,0,0],[1,0],[2]]","3","0","","","","","","3","","","","",""
"","","","","","poldrack-single-stim","186","1040435","0.0-3.0-20.0","6333103245619932bba4c8f6","E1","batch5","tol_feedback","-1","","","","","true","","","","","1000","1000","500","","","","","","-1","none","true","14259","16040","","","","","",""
"","","","","","html-button-response","187","1041436","0.0-3.0-21.0","6333103245619932bba4c8f6","E1","batch5","tol_trial_num","1000.5","<div class = centerbox><p class = center-block-text>problem <strong>5</strong> out of 25 problems</p></div>","0","","","","","","","","","","","","","","","","","","","","","","","","","",""
"","","","","","single-stim-button","188","1064781","0.0-3.0-22.0-0.0","6333103245619932bba4c8f6","E1","batch5","tol_tohand","23343","","","","","","","","","tol_peg_3","23343","23343","0","[[1,0,0],[2,0],[0]]","1","[[0,0,0],[1,2],[3]]","4","0","","","","","","7","","","","",""
"","","","","","single-stim-button","189","1068365","0.0-3.0-22.0-1.0","6333103245619932bba4c8f6","E1","batch5","tol_toboard","3583","","","","","","","","","tol_peg_1","3583","3583","0","[[1,3,0],[2,0],[0]]","1","[[0,0,0],[1,2],[3]]","4","0","","","","","","7","","","","",""
"","","","","","single-stim-button","190","1069500","0.0-3.0-22.1-0.1","6333103245619932bba4c8f6","E1","batch5","tol_tohand","1135","","","","","","","","","tol_peg_2","1135","1135","0","[[1,3,0],[0,0],[0]]","2","[[0,0,0],[1,2],[3]]","4","0","","","","","","7","","","","",""
"","","","","","single-stim-button","191","1070532","0.0-3.0-22.1-1.1","6333103245619932bba4c8f6","E1","batch5","tol_toboard","1031","","","","","","","","","tol_peg_3","1031","1031","0","[[1,3,0],[0,0],[2]]","2","[[0,0,0],[1,2],[3]]","4","0","","","","","","7","","","","",""
"","","","","","single-stim-button","192","1072731","0.0-3.0-22.2-0.2","6333103245619932bba4c8f6","E1","batch5","tol_tohand","2198","","","","","","","","","tol_peg_1","2198","2198","0","[[1,0,0],[0,0],[2]]","3","[[0,0,0],[1,2],[3]]","4","0","","","","","","7","","","","",""
"","","","","","single-stim-button","193","1074188","0.0-3.0-22.2-1.2","6333103245619932bba4c8f6","E1","batch5","tol_toboard","1456","","","","","","","","","tol_peg_2","1456","1456","0","[[1,0,0],[3,0],[2]]","3","[[0,0,0],[1,2],[3]]","4","0","","","","","","7","","","","",""
"","","","","","single-stim-button","194","1075124","0.0-3.0-22.3-0.3","6333103245619932bba4c8f6","E1","batch5","tol_tohand","935","","","","","","","","","tol_peg_1","935","935","0","[[0,0,0],[3,0],[2]]","4","[[0,0,0],[1,2],[3]]","4","0","","","","","","7","","","","",""
"","","","","","single-stim-button","195","1079140","0.0-3.0-22.3-1.3","6333103245619932bba4c8f6","E1","batch5","tol_toboard","4016","","","","","","","","","tol_peg_2","4016","4016","0","[[0,0,0],[3,1],[2]]","4","[[0,0,0],[1,2],[3]]","4","0","","","","","","7","","","","",""
"","","","","","single-stim-button","196","1082900","0.0-3.0-22.4-0.4","6333103245619932bba4c8f6","E1","batch5","tol_tohand","3759","","","","","","","","","tol_peg_2","3759","3759","0","[[0,0,0],[3,0],[2]]","5","[[0,0,0],[1,2],[3]]","4","0","","","","","","7","","","","",""
"","","","","","single-stim-button","197","1084499","0.0-3.0-22.4-1.4","6333103245619932bba4c8f6","E1","batch5","tol_toboard","1598","","","","","","","","","tol_peg_1","1598","1598","0","[[1,0,0],[3,0],[2]]","5","[[0,0,0],[1,2],[3]]","4","0","","","","","","7","","","","",""
"","","","","","single-stim-button","198","1087132","0.0-3.0-22.5-0.5","6333103245619932bba4c8f6","E1","batch5","tol_tohand","2633","","","","","","","","","tol_peg_2","2633","2633","0","[[1,0,0],[0,0],[2]]","6","[[0,0,0],[1,2],[3]]","4","0","","","","","","7","","","","",""
"","","","","","single-stim-button","199","1087956","0.0-3.0-22.5-1.5","6333103245619932bba4c8f6","E1","batch5","tol_toboard","823","","","","","","","","","tol_peg_1","823","823","0","[[1,3,0],[0,0],[2]]","6","[[0,0,0],[1,2],[3]]","4","0","","","","","","7","","","","",""
"","","","","","single-stim-button","200","1090260","0.0-3.0-22.6-0.6","6333103245619932bba4c8f6","E1","batch5","tol_tohand","2304","","","","","","","","","tol_peg_3","2304","2304","0","[[1,3,0],[0,0],[0]]","7","[[0,0,0],[1,2],[3]]","4","0","","","","","","7","","","","",""
"","","","","","single-stim-button","201","1093499","0.0-3.0-22.6-1.6","6333103245619932bba4c8f6","E1","batch5","tol_toboard","3237","","","","","","","","","tol_peg_1","3237","3237","0","[[1,3,2],[0,0],[0]]","7","[[0,0,0],[1,2],[3]]","4","0","","","","","","7","","","","",""
"","","","","","single-stim-button","202","1095626","0.0-3.0-22.7-0.7","6333103245619932bba4c8f6","E1","batch5","tol_tohand","2127","","","","","","","","","tol_peg_1","2127","2127","0","[[1,3,0],[0,0],[0]]","8","[[0,0,0],[1,2],[3]]","4","0","","","","","","7","","","","",""
"","","","","","single-stim-button","203","1096609","0.0-3.0-22.7-1.7","6333103245619932bba4c8f6","E1","batch5","tol_toboard","983","","","","","","","","","tol_peg_2","983","983","0","[[1,3,0],[2,0],[0]]","8","[[0,0,0],[1,2],[3]]","4","0","","","","","","7","","","","",""
"","","","","","single-stim-button","204","1097746","0.0-3.0-22.8-0.8","6333103245619932bba4c8f6","E1","batch5","tol_tohand","1137","","","","","","","","","tol_peg_1","1137","1137","0","[[1,0,0],[2,0],[0]]","9","[[0,0,0],[1,2],[3]]","4","0","","","","","","7","","","","",""
"","","","","","single-stim-button","205","1098738","0.0-3.0-22.8-1.8","6333103245619932bba4c8f6","E1","batch5","tol_toboard","991","","","","","","","","","tol_peg_2","991","991","0","[[1,0,0],[2,3],[0]]","9","[[0,0,0],[1,2],[3]]","4","0","","","","","","7","","","","",""
"","","","","","single-stim-button","206","1099530","0.0-3.0-22.9-0.9","6333103245619932bba4c8f6","E1","batch5","tol_tohand","791","","","","","","","","","tol_peg_1","791","791","0","[[0,0,0],[2,3],[0]]","10","[[0,0,0],[1,2],[3]]","4","0","","","","","","7","","","","",""
"","","","","","single-stim-button","207","1100354","0.0-3.0-22.9-1.9","6333103245619932bba4c8f6","E1","batch5","tol_toboard","823","","","","","","","","","tol_peg_3","823","823","0","[[0,0,0],[2,3],[1]]","10","[[0,0,0],[1,2],[3]]","4","0","","","","","","7","","","","",""
"","","","","","single-stim-button","208","1104058","0.0-3.0-22.10-0.10","6333103245619932bba4c8f6","E1","batch5","tol_tohand","3704","","","","","","","","","tol_peg_2","3704","3704","0","[[0,0,0],[2,0],[1]]","11","[[0,0,0],[1,2],[3]]","4","0","","","","","","7","","","","",""
"","","","","","single-stim-button","209","1105106","0.0-3.0-22.10-1.10","6333103245619932bba4c8f6","E1","batch5","tol_toboard","1047","","","","","","","","","tol_peg_1","1047","1047","0","[[3,0,0],[2,0],[1]]","11","[[0,0,0],[1,2],[3]]","4","0","","","","","","7","","","","",""
"","","","","","single-stim-button","210","1105921","0.0-3.0-22.11-0.11","6333103245619932bba4c8f6","E1","batch5","tol_tohand","815","","","","","","","","","tol_peg_2","815","815","0","[[3,0,0],[0,0],[1]]","12","[[0,0,0],[1,2],[3]]","4","0","","","","","","7","","","","",""
"","","","","","single-stim-button","211","1106850","0.0-3.0-22.11-1.11","6333103245619932bba4c8f6","E1","batch5","tol_toboard","928","","","","","","","","","tol_peg_1","928","928","0","[[3,2,0],[0,0],[1]]","12","[[0,0,0],[1,2],[3]]","4","0","","","","","","7","","","","",""
"","","","","","single-stim-button","212","1108162","0.0-3.0-22.12-0.12","6333103245619932bba4c8f6","E1","batch5","tol_tohand","1312","","","","","","","","","tol_peg_3","1312","1312","0","[[3,2,0],[0,0],[0]]","13","[[0,0,0],[1,2],[3]]","4","0","","","","","","7","","","","",""
"","","","","","single-stim-button","213","1109114","0.0-3.0-22.12-1.12","6333103245619932bba4c8f6","E1","batch5","tol_toboard","951","","","","","","","","","tol_peg_2","951","951","0","[[3,2,0],[1,0],[0]]","13","[[0,0,0],[1,2],[3]]","4","0","","","","","","7","","","","",""
"","","","","","single-stim-button","214","1109794","0.0-3.0-22.13-0.13","6333103245619932bba4c8f6","E1","batch5","tol_tohand","679","","","","","","","","","tol_peg_1","679","679","0","[[3,0,0],[1,0],[0]]","14","[[0,0,0],[1,2],[3]]","4","0","","","","","","7","","","","",""
"","","","","","single-stim-button","215","1110698","0.0-3.0-22.13-1.13","6333103245619932bba4c8f6","E1","batch5","tol_toboard","903","","","","","","","","","tol_peg_2","903","903","0","[[3,0,0],[1,2],[0]]","14","[[0,0,0],[1,2],[3]]","4","0","","","","","","7","","","","",""
"","","","","","single-stim-button","216","1111386","0.0-3.0-22.14-0.14","6333103245619932bba4c8f6","E1","batch5","tol_tohand","688","","","","","","","","","tol_peg_1","688","688","0","[[0,0,0],[1,2],[0]]","15","[[0,0,0],[1,2],[3]]","4","0","","","","","","7","","","","",""
"","","","","","single-stim-button","217","1112144","0.0-3.0-22.14-1.14","6333103245619932bba4c8f6","E1","batch5","tol_toboard","758","","","","","","","","","tol_peg_3","758","758","0","[[0,0,0],[1,2],[3]]","15","[[0,0,0],[1,2],[3]]","4","0","","","","","","7","","","","",""
"","","","","","poldrack-single-stim","218","1113155","0.0-3.0-23.0","6333103245619932bba4c8f6","E1","batch5","tol_feedback","-1","","","","","true","","","","","1000","1000","500","","","","","","-1","none","true","23343","47560","","","","","",""
"","","","","","html-button-response","219","1122193","0.0-3.0-24.0","6333103245619932bba4c8f6","E1","batch5","tol_trial_num","9037.5","<div class = centerbox><p class = center-block-text>problem <strong>6</strong> out of 25 problems</p></div>","0","","","","","","","","","","","","","","","","","","","","","","","","","",""
"","","","","","single-stim-button","220","1130154","0.0-3.0-25.0-0.0","6333103245619932bba4c8f6","E1","batch5","tol_tohand","7960","","","","","","","","","tol_peg_3","7960","7960","0","[[0,0,0],[1,2],[0]]","1","[[1,0,0],[2,3],[0]]","5","0","","","","","","6","","","","",""
"","","","","","single-stim-button","221","1133754","0.0-3.0-25.0-1.0","6333103245619932bba4c8f6","E1","batch5","tol_toboard","3599","","","","","","","","","tol_peg_1","3599","3599","0","[[3,0,0],[1,2],[0]]","1","[[1,0,0],[2,3],[0]]","5","0","","","","","","6","","","","",""
"","","","","","single-stim-button","222","1135289","0.0-3.0-25.1-0.1","6333103245619932bba4c8f6","E1","batch5","tol_tohand","1534","","","","","","","","","tol_peg_2","1534","1534","0","[[3,0,0],[1,0],[0]]","2","[[1,0,0],[2,3],[0]]","5","0","","","","","","6","","","","",""
"","","","","","single-stim-button","223","1136298","0.0-3.0-25.1-1.1","6333103245619932bba4c8f6","E1","batch5","tol_toboard","1008","","","","","","","","","tol_peg_3","1008","1008","0","[[3,0,0],[1,0],[2]]","2","[[1,0,0],[2,3],[0]]","5","0","","","","","","6","","","","",""
"","","","","","single-stim-button","224","1137314","0.0-3.0-25.2-0.2","6333103245619932bba4c8f6","E1","batch5","tol_tohand","1015","","","","","","","","","tol_peg_2","1015","1015","0","[[3,0,0],[0,0],[2]]","3","[[1,0,0],[2,3],[0]]","5","0","","","","","","6","","","","",""
"","","","","","single-stim-button","225","1138578","0.0-3.0-25.2-1.2","6333103245619932bba4c8f6","E1","batch5","tol_toboard","1262","","","","","","","","","tol_peg_1","1262","1262","0","[[3,1,0],[0,0],[2]]","3","[[1,0,0],[2,3],[0]]","5","0","","","","","","6","","","","",""
"","","","","","single-stim-button","226","1139906","0.0-3.0-25.3-0.3","6333103245619932bba4c8f6","E1","batch5","tol_tohand","1328","","","","","","","","","tol_peg_3","1328","1328","0","[[3,1,0],[0,0],[0]]","4","[[1,0,0],[2,3],[0]]","5","0","","","","","","6","","","","",""
"","","","","","single-stim-button","227","1141258","0.0-3.0-25.3-1.3","6333103245619932bba4c8f6","E1","batch5","tol_toboard","1352","","","","","","","","","tol_peg_2","1352","1352","0","[[3,1,0],[2,0],[0]]","4","[[1,0,0],[2,3],[0]]","5","0","","","","","","6","","","","",""
"","","","","","single-stim-button","228","1143897","0.0-3.0-25.4-0.4","6333103245619932bba4c8f6","E1","batch5","tol_tohand","2638","","","","","","","","","tol_peg_1","2638","2638","0","[[3,0,0],[2,0],[0]]","5","[[1,0,0],[2,3],[0]]","5","0","","","","","","6","","","","",""
"","","","","","single-stim-button","229","1145306","0.0-3.0-25.4-1.4","6333103245619932bba4c8f6","E1","batch5","tol_toboard","1407","","","","","","","","","tol_peg_3","1407","1407","0","[[3,0,0],[2,0],[1]]","5","[[1,0,0],[2,3],[0]]","5","0","","","","","","6","","","","",""
"","","","","","single-stim-button","230","1146409","0.0-3.0-25.5-0.5","6333103245619932bba4c8f6","E1","batch5","tol_tohand","1102","","","","","","","","","tol_peg_1","1102","1102","0","[[0,0,0],[2,0],[1]]","6","[[1,0,0],[2,3],[0]]","5","0","","","","","","6","","","","",""
"","","","","","single-stim-button","231","1147834","0.0-3.0-25.5-1.5","6333103245619932bba4c8f6","E1","batch5","tol_toboard","1425","","","","","","","","","tol_peg_2","1425","1425","0","[[0,0,0],[2,3],[1]]","6","[[1,0,0],[2,3],[0]]","5","0","","","","","","6","","","","",""
"","","","","","single-stim-button","232","1148674","0.0-3.0-25.6-0.6","6333103245619932bba4c8f6","E1","batch5","tol_tohand","840","","","","","","","","","tol_peg_3","840","840","0","[[0,0,0],[2,3],[0]]","7","[[1,0,0],[2,3],[0]]","5","0","","","","","","6","","","","",""
"","","","","","single-stim-button","233","1149746","0.0-3.0-25.6-1.6","6333103245619932bba4c8f6","E1","batch5","tol_toboard","1071","","","","","","","","","tol_peg_1","1071","1071","0","[[1,0,0],[2,3],[0]]","7","[[1,0,0],[2,3],[0]]","5","0","","","","","","6","","","","",""
"","","","","","poldrack-single-stim","234","1150753","0.0-3.0-26.0","6333103245619932bba4c8f6","E1","batch5","tol_feedback","-1","","","","","true","","","","","1000","1000","500","","","","","","-1","none","true","7960","16417","","","","","",""
"","","","","","html-button-response","235","1152018","0.0-3.0-27.0","6333103245619932bba4c8f6","E1","batch5","tol_trial_num","1264.7000000178814","<div class = centerbox><p class = center-block-text>problem <strong>7</strong> out of 25 problems</p></div>","0","","","","","","","","","","","","","","","","","","","","","","","","","",""
"","","","","","single-stim-button","236","1158178","0.0-3.0-28.0-0.0","6333103245619932bba4c8f6","E1","batch5","tol_tohand","6159","","","","","","","","","tol_peg_3","6159","6159","0","[[2,1,0],[0,0],[0]]","1","[[1,2,0],[3,0],[0]]","6","0","","","","","","5","","","","",""
"","","","","","single-stim-button","237","1160234","0.0-3.0-28.0-1.0","6333103245619932bba4c8f6","E1","batch5","tol_toboard","2055","","","","","","","","","tol_peg_2","2055","2055","0","[[2,1,0],[3,0],[0]]","1","[[1,2,0],[3,0],[0]]","6","0","","","","","","5","","","","",""
"","","","","","single-stim-button","238","1161210","0.0-3.0-28.1-0.1","6333103245619932bba4c8f6","E1","batch5","tol_tohand","975","","","","","","","","","tol_peg_1","975","975","0","[[2,0,0],[3,0],[0]]","2","[[1,2,0],[3,0],[0]]","6","0","","","","","","5","","","","",""
"","","","","","single-stim-button","239","1165698","0.0-3.0-28.1-1.1","6333103245619932bba4c8f6","E1","batch5","tol_toboard","4486","","","","","","","","","tol_peg_3","4486","4486","0","[[2,0,0],[3,0],[1]]","2","[[1,2,0],[3,0],[0]]","6","0","","","","","","5","","","","",""
"","","","","","single-stim-button","240","1166601","0.0-3.0-28.2-0.2","6333103245619932bba4c8f6","E1","batch5","tol_tohand","903","","","","","","","","","tol_peg_1","903","903","0","[[0,0,0],[3,0],[1]]","3","[[1,2,0],[3,0],[0]]","6","0","","","","","","5","","","","",""
"","","","","","single-stim-button","241","1167586","0.0-3.0-28.2-1.2","6333103245619932bba4c8f6","E1","batch5","tol_toboard","985","","","","","","","","","tol_peg_2","985","985","0","[[0,0,0],[3,2],[1]]","3","[[1,2,0],[3,0],[0]]","6","0","","","","","","5","","","","",""
"","","","","","single-stim-button","242","1168290","0.0-3.0-28.3-0.3","6333103245619932bba4c8f6","E1","batch5","tol_tohand","704","","","","","","","","","tol_peg_3","704","704","0","[[0,0,0],[3,2],[0]]","4","[[1,2,0],[3,0],[0]]","6","0","","","","","","5","","","","",""
"","","","","","single-stim-button","243","1169002","0.0-3.0-28.3-1.3","6333103245619932bba4c8f6","E1","batch5","tol_toboard","712","","","","","","","","","tol_peg_1","712","712","0","[[1,0,0],[3,2],[0]]","4","[[1,2,0],[3,0],[0]]","6","0","","","","","","5","","","","",""
"","","","","","single-stim-button","244","1169842","0.0-3.0-28.4-0.4","6333103245619932bba4c8f6","E1","batch5","tol_tohand","839","","","","","","","","","tol_peg_2","839","839","0","[[1,0,0],[3,0],[0]]","5","[[1,2,0],[3,0],[0]]","6","0","","","","","","5","","","","",""
"","","","","","single-stim-button","245","1170506","0.0-3.0-28.4-1.4","6333103245619932bba4c8f6","E1","batch5","tol_toboard","664","","","","","","","","","tol_peg_1","664","664","0","[[1,2,0],[3,0],[0]]","5","[[1,2,0],[3,0],[0]]","6","0","","","","","","5","","","","",""
"","","","","","poldrack-single-stim","246","1171522","0.0-3.0-29.0","6333103245619932bba4c8f6","E1","batch5","tol_feedback","-1","","","","","true","","","","","1000","1000","500","","","","","","-1","none","true","6159","9580","","","","","",""
"","","","","","html-button-response","247","1173266","0.0-3.0-30.0","6333103245619932bba4c8f6","E1","batch5","tol_trial_num","1743","<div class = centerbox><p class = center-block-text>problem <strong>8</strong> out of 25 problems</p></div>","0","","","","","","","","","","","","","","","","","","","","","","","","","",""
"","","","","","single-stim-button","248","1177234","0.0-3.0-31.0-0.0","6333103245619932bba4c8f6","E1","batch5","tol_tohand","3967","","","","","","","","","tol_peg_3","3967","3967","0","[[0,0,0],[2,3],[0]]","1","[[1,2,0],[3,0],[0]]","7","0","","","","","","4","","","","",""
"","","","","","single-stim-button","249","1179753","0.0-3.0-31.0-1.0","6333103245619932bba4c8f6","E1","batch5","tol_toboard","2518","","","","","","","","","tol_peg_1","2518","2518","0","[[1,0,0],[2,3],[0]]","1","[[1,2,0],[3,0],[0]]","7","0","","","","","","4","","","","",""
"","","","","","single-stim-button","250","1180961","0.0-3.0-31.1-0.1","6333103245619932bba4c8f6","E1","batch5","tol_tohand","1208","","","","","","","","","tol_peg_2","1208","1208","0","[[1,0,0],[2,0],[0]]","2","[[1,2,0],[3,0],[0]]","7","0","","","","","","4","","","","",""
"","","","","","single-stim-button","251","1181786","0.0-3.0-31.1-1.1","6333103245619932bba4c8f6","E1","batch5","tol_toboard","823","","","","","","","","","tol_peg_3","823","823","0","[[1,0,0],[2,0],[3]]","2","[[1,2,0],[3,0],[0]]","7","0","","","","","","4","","","","",""
"","","","","","single-stim-button","252","1182570","0.0-3.0-31.2-0.2","6333103245619932bba4c8f6","E1","batch5","tol_tohand","784","","","","","","","","","tol_peg_2","784","784","0","[[1,0,0],[0,0],[3]]","3","[[1,2,0],[3,0],[0]]","7","0","","","","","","4","","","","",""
"","","","","","single-stim-button","253","1183426","0.0-3.0-31.2-1.2","6333103245619932bba4c8f6","E1","batch5","tol_toboard","855","","","","","","","","","tol_peg_1","855","855","0","[[1,2,0],[0,0],[3]]","3","[[1,2,0],[3,0],[0]]","7","0","","","","","","4","","","","",""
"","","","","","single-stim-button","254","1184434","0.0-3.0-31.3-0.3","6333103245619932bba4c8f6","E1","batch5","tol_tohand","1007","","","","","","","","","tol_peg_3","1007","1007","0","[[1,2,0],[0,0],[0]]","4","[[1,2,0],[3,0],[0]]","7","0","","","","","","4","","","","",""
"","","","","","single-stim-button","255","1185657","0.0-3.0-31.3-1.3","6333103245619932bba4c8f6","E1","batch5","tol_toboard","1223","","","","","","","","","tol_peg_2","1223","1223","0","[[1,2,0],[3,0],[0]]","4","[[1,2,0],[3,0],[0]]","7","0","","","","","","4","","","","",""
"","","","","","poldrack-single-stim","256","1186660","0.0-3.0-32.0","6333103245619932bba4c8f6","E1","batch5","tol_feedback","-1","","","","","true","","","","","1000","1000","500","","","","","","-1","none","true","3967","6966","","","","","",""
"","","","","","html-button-response","257","1187586","0.0-3.0-33.0","6333103245619932bba4c8f6","E1","batch5","tol_trial_num","925.4000000059605","<div class = centerbox><p class = center-block-text>problem <strong>9</strong> out of 25 problems</p></div>","0","","","","","","","","","","","","","","","","","","","","","","","","","",""
"","","","","","single-stim-button","258","1195938","0.0-3.0-34.0-0.0","6333103245619932bba4c8f6","E1","batch5","tol_tohand","8351","","","","","","","","","tol_peg_1","8351","8351","0","[[3,0,0],[0,0],[1]]","1","[[2,1,0],[3,0],[0]]","8","0","","","","","","6","","","","",""
"","","","","","single-stim-button","259","1203010","0.0-3.0-34.0-1.0","6333103245619932bba4c8f6","E1","batch5","tol_toboard","7071","","","","","","","","","tol_peg_2","7071","7071","0","[[3,0,0],[2,0],[1]]","1","[[2,1,0],[3,0],[0]]","8","0","","","","","","6","","","","",""
"","","","","","single-stim-button","260","1205738","0.0-3.0-34.1-0.1","6333103245619932bba4c8f6","E1","batch5","tol_tohand","2728","","","","","","","","","tol_peg_1","2728","2728","0","[[0,0,0],[2,0],[1]]","2","[[2,1,0],[3,0],[0]]","8","0","","","","","","6","","","","",""
"","","","","","single-stim-button","261","1206866","0.0-3.0-34.1-1.1","6333103245619932bba4c8f6","E1","batch5","tol_toboard","1127","","","","","","","","","tol_peg_2","1127","1127","0","[[0,0,0],[2,3],[1]]","2","[[2,1,0],[3,0],[0]]","8","0","","","","","","6","","","","",""
"","","","","","single-stim-button","262","1210432","0.0-3.0-34.2-0.2","6333103245619932bba4c8f6","E1","batch5","tol_tohand","3566","","","","","","","","","tol_peg_3","3566","3566","0","[[0,0,0],[2,3],[0]]","3","[[2,1,0],[3,0],[0]]","8","0","","","","","","6","","","","",""
"","","","","","single-stim-button","263","1211488","0.0-3.0-34.2-1.2","6333103245619932bba4c8f6","E1","batch5","tol_toboard","1055","","","","","","","","","tol_peg_1","1055","1055","0","[[1,0,0],[2,3],[0]]","3","[[2,1,0],[3,0],[0]]","8","0","","","","","","6","","","","",""
"","","","","","single-stim-button","264","1213002","0.0-3.0-34.3-0.3","6333103245619932bba4c8f6","E1","batch5","tol_tohand","1513","","","","","","","","","tol_peg_2","1513","1513","0","[[1,0,0],[2,0],[0]]","4","[[2,1,0],[3,0],[0]]","8","0","","","","","","6","","","","",""
"","","","","","single-stim-button","265","1214258","0.0-3.0-34.3-1.3","6333103245619932bba4c8f6","E1","batch5","tol_toboard","1255","","","","","","","","","tol_peg_3","1255","1255","0","[[1,0,0],[2,0],[3]]","4","[[2,1,0],[3,0],[0]]","8","0","","","","","","6","","","","",""
"","","","","","single-stim-button","266","1217209","0.0-3.0-34.4-0.4","6333103245619932bba4c8f6","E1","batch5","tol_tohand","2951","","","","","","","","","tol_peg_2","2951","2951","0","[[1,0,0],[0,0],[3]]","5","[[2,1,0],[3,0],[0]]","8","0","","","","","","6","","","","",""
"","","","","","single-stim-button","267","1222250","0.0-3.0-34.4-1.4","6333103245619932bba4c8f6","E1","batch5","tol_toboard","5040","","","","","","","","","tol_peg_1","5040","5040","0","[[1,2,0],[0,0],[3]]","5","[[2,1,0],[3,0],[0]]","8","0","","","","","","6","","","","",""
"","","","","","single-stim-button","268","1223138","0.0-3.0-34.5-0.5","6333103245619932bba4c8f6","E1","batch5","tol_tohand","888","","","","","","","","","tol_peg_3","888","888","0","[[1,2,0],[0,0],[0]]","6","[[2,1,0],[3,0],[0]]","8","0","","","","","","6","","","","",""
"","","","","","single-stim-button","269","1223769","0.0-3.0-34.5-1.5","6333103245619932bba4c8f6","E1","batch5","tol_toboard","630","","","","","","","","","tol_peg_2","630","630","0","[[1,2,0],[3,0],[0]]","6","[[2,1,0],[3,0],[0]]","8","0","","","","","","6","","","","",""
"","","","","","single-stim-button","270","1224754","0.0-3.0-34.6-0.6","6333103245619932bba4c8f6","E1","batch5","tol_tohand","984","","","","","","","","","tol_peg_1","984","984","0","[[1,0,0],[3,0],[0]]","7","[[2,1,0],[3,0],[0]]","8","0","","","","","","6","","","","",""
"","","","","","single-stim-button","271","1226353","0.0-3.0-34.6-1.6","6333103245619932bba4c8f6","E1","batch5","tol_toboard","1599","","","","","","","","","tol_peg_2","1599","1599","0","[[1,0,0],[3,2],[0]]","7","[[2,1,0],[3,0],[0]]","8","0","","","","","","6","","","","",""
"","","","","","single-stim-button","272","1227106","0.0-3.0-34.7-0.7","6333103245619932bba4c8f6","E1","batch5","tol_tohand","752","","","","","","","","","tol_peg_1","752","752","0","[[0,0,0],[3,2],[0]]","8","[[2,1,0],[3,0],[0]]","8","0","","","","","","6","","","","",""
"","","","","","single-stim-button","273","1227889","0.0-3.0-34.7-1.7","6333103245619932bba4c8f6","E1","batch5","tol_toboard","783","","","","","","","","","tol_peg_3","783","783","0","[[0,0,0],[3,2],[1]]","8","[[2,1,0],[3,0],[0]]","8","0","","","","","","6","","","","",""
"","","","","","single-stim-button","274","1229425","0.0-3.0-34.8-0.8","6333103245619932bba4c8f6","E1","batch5","tol_tohand","1536","","","","","","","","","tol_peg_2","1536","1536","0","[[0,0,0],[3,0],[1]]","9","[[2,1,0],[3,0],[0]]","8","0","","","","","","6","","","","",""
"","","","","","single-stim-button","275","1230258","0.0-3.0-34.8-1.8","6333103245619932bba4c8f6","E1","batch5","tol_toboard","832","","","","","","","","","tol_peg_1","832","832","0","[[2,0,0],[3,0],[1]]","9","[[2,1,0],[3,0],[0]]","8","0","","","","","","6","","","","",""
"","","","","","single-stim-button","276","1231186","0.0-3.0-34.9-0.9","6333103245619932bba4c8f6","E1","batch5","tol_tohand","926","","","","","","","","","tol_peg_3","926","926","0","[[2,0,0],[3,0],[0]]","10","[[2,1,0],[3,0],[0]]","8","0","","","","","","6","","","","",""
"","","","","","single-stim-button","277","1231922","0.0-3.0-34.9-1.9","6333103245619932bba4c8f6","E1","batch5","tol_toboard","735","","","","","","","","","tol_peg_1","735","735","0","[[2,1,0],[3,0],[0]]","10","[[2,1,0],[3,0],[0]]","8","0","","","","","","6","","","","",""
"","","","","","poldrack-single-stim","278","1232923","0.0-3.0-35.0","6333103245619932bba4c8f6","E1","batch5","tol_feedback","-1","","","","","true","","","","","1000","1000","500","","","","","","-1","none","true","8351","24195","","","","","",""
"","","","","","html-button-response","279","1233881","0.0-3.0-36.0","6333103245619932bba4c8f6","E1","batch5","tol_trial_num","957.0999999940395","<div class = centerbox><p class = center-block-text>problem <strong>10</strong> out of 25 problems</p></div>","0","","","","","","","","","","","","","","","","","","","","","","","","","",""
"","","","","","single-stim-button","280","1238882","0.0-3.0-37.0-0.0","6333103245619932bba4c8f6","E1","batch5","tol_tohand","5000","","","","","","","","","tol_peg_2","5000","5000","0","[[3,0,0],[0,0],[2]]","1","[[3,0,0],[2,1],[0]]","9","0","","","","","","3","","","","",""
"","","","","","single-stim-button","281","1239810","0.0-3.0-37.0-1.0","6333103245619932bba4c8f6","E1","batch5","tol_toboard","928","","","","","","","","","tol_peg_1","928","928","0","[[3,1,0],[0,0],[2]]","1","[[3,0,0],[2,1],[0]]","9","0","","","","","","3","","","","",""
"","","","","","single-stim-button","282","1240610","0.0-3.0-37.1-0.1","6333103245619932bba4c8f6","E1","batch5","tol_tohand","798","","","","","","","","","tol_peg_3","798","798","0","[[3,1,0],[0,0],[0]]","2","[[3,0,0],[2,1],[0]]","9","0","","","","","","3","","","","",""
"","","","","","single-stim-button","283","1241466","0.0-3.0-37.1-1.1","6333103245619932bba4c8f6","E1","batch5","tol_toboard","855","","","","","","","","","tol_peg_2","855","855","0","[[3,1,0],[2,0],[0]]","2","[[3,0,0],[2,1],[0]]","9","0","","","","","","3","","","","",""
"","","","","","single-stim-button","284","1242417","0.0-3.0-37.2-0.2","6333103245619932bba4c8f6","E1","batch5","tol_tohand","951","","","","","","","","","tol_peg_1","951","951","0","[[3,0,0],[2,0],[0]]","3","[[3,0,0],[2,1],[0]]","9","0","","","","","","3","","","","",""
"","","","","","single-stim-button","285","1243226","0.0-3.0-37.2-1.2","6333103245619932bba4c8f6","E1","batch5","tol_toboard","808","","","","","","","","","tol_peg_2","808","808","0","[[3,0,0],[2,1],[0]]","3","[[3,0,0],[2,1],[0]]","9","0","","","","","","3","","","","",""
"","","","","","poldrack-single-stim","286","1244228","0.0-3.0-38.0","6333103245619932bba4c8f6","E1","batch5","tol_feedback","-1","","","","","true","","","","","1000","1000","500","","","","","","-1","none","true","5000","6749","","","","","",""
"","","","","","html-button-response","287","1245138","0.0-3.0-39.0","6333103245619932bba4c8f6","E1","batch5","tol_trial_num","909.4000000059605","<div class = centerbox><p class = center-block-text>problem <strong>11</strong> out of 25 problems</p></div>","0","","","","","","","","","","","","","","","","","","","","","","","","","",""
"","","","","","single-stim-button","288","1251401","0.0-3.0-40.0-0.0","6333103245619932bba4c8f6","E1","batch5","tol_tohand","6263","","","","","","","","","tol_peg_2","6263","6263","0","[[1,2,0],[0,0],[0]]","1","[[2,0,0],[1,3],[0]]","10","0","","","","","","6","","","","",""
"","","","","","single-stim-button","289","1252338","0.0-3.0-40.0-1.0","6333103245619932bba4c8f6","E1","batch5","tol_toboard","935","","","","","","","","","tol_peg_3","935","935","0","[[1,2,0],[0,0],[3]]","1","[[2,0,0],[1,3],[0]]","10","0","","","","","","6","","","","",""
"","","","","","single-stim-button","290","1253778","0.0-3.0-40.1-0.1","6333103245619932bba4c8f6","E1","batch5","tol_tohand","1440","","","","","","","","","tol_peg_1","1440","1440","0","[[1,0,0],[0,0],[3]]","2","[[2,0,0],[1,3],[0]]","10","0","","","","","","6","","","","",""
"","","","","","single-stim-button","291","1257066","0.0-3.0-40.1-1.1","6333103245619932bba4c8f6","E1","batch5","tol_toboard","3287","","","","","","","","","tol_peg_2","3287","3287","0","[[1,0,0],[2,0],[3]]","2","[[2,0,0],[1,3],[0]]","10","0","","","","","","6","","","","",""
"","","","","","single-stim-button","292","1262074","0.0-3.0-40.2-0.2","6333103245619932bba4c8f6","E1","batch5","tol_tohand","5007","","","","","","","","","tol_peg_3","5007","5007","0","[[1,0,0],[2,0],[0]]","3","[[2,0,0],[1,3],[0]]","10","0","","","","","","6","","","","",""
"","","","","","single-stim-button","293","1262978","0.0-3.0-40.2-1.2","6333103245619932bba4c8f6","E1","batch5","tol_toboard","902","","","","","","","","","tol_peg_2","902","902","0","[[1,0,0],[2,3],[0]]","3","[[2,0,0],[1,3],[0]]","10","0","","","","","","6","","","","",""
"","","","","","single-stim-button","294","1263698","0.0-3.0-40.3-0.3","6333103245619932bba4c8f6","E1","batch5","tol_tohand","719","","","","","","","","","tol_peg_1","719","719","0","[[0,0,0],[2,3],[0]]","4","[[2,0,0],[1,3],[0]]","10","0","","","","","","6","","","","",""
"","","","","","single-stim-button","295","1265890","0.0-3.0-40.3-1.3","6333103245619932bba4c8f6","E1","batch5","tol_toboard","2191","","","","","","","","","tol_peg_3","2191","2191","0","[[0,0,0],[2,3],[1]]","4","[[2,0,0],[1,3],[0]]","10","0","","","","","","6","","","","",""
"","","","","","single-stim-button","296","1268113","0.0-3.0-40.4-0.4","6333103245619932bba4c8f6","E1","batch5","tol_tohand","2222","","","","","","","","","tol_peg_2","2222","2222","0","[[0,0,0],[2,0],[1]]","5","[[2,0,0],[1,3],[0]]","10","0","","","","","","6","","","","",""
"","","","","","single-stim-button","297","1268802","0.0-3.0-40.4-1.4","6333103245619932bba4c8f6","E1","batch5","tol_toboard","688","","","","","","","","","tol_peg_1","688","688","0","[[3,0,0],[2,0],[1]]","5","[[2,0,0],[1,3],[0]]","10","0","","","","","","6","","","","",""
"","","","","","single-stim-button","298","1269482","0.0-3.0-40.5-0.5","6333103245619932bba4c8f6","E1","batch5","tol_tohand","679","","","","","","","","","tol_peg_2","679","679","0","[[3,0,0],[0,0],[1]]","6","[[2,0,0],[1,3],[0]]","10","0","","","","","","6","","","","",""
"","","","","","single-stim-button","299","1271089","0.0-3.0-40.5-1.5","6333103245619932bba4c8f6","E1","batch5","tol_toboard","1606","","","","","","","","","tol_peg_2","1606","1606","0","[[3,0,0],[2,0],[1]]","6","[[2,0,0],[1,3],[0]]","10","0","","","","","","6","","","","",""
"","","","","","single-stim-button","300","1272545","0.0-3.0-40.6-0.6","6333103245619932bba4c8f6","E1","batch5","tol_tohand","1456","","","","","","","","","tol_peg_3","1456","1456","0","[[3,0,0],[2,0],[0]]","7","[[2,0,0],[1,3],[0]]","10","0","","","","","","6","","","","",""
"","","","","","single-stim-button","301","1273450","0.0-3.0-40.6-1.6","6333103245619932bba4c8f6","E1","batch5","tol_toboard","903","","","","","","","","","tol_peg_2","903","903","0","[[3,0,0],[2,1],[0]]","7","[[2,0,0],[1,3],[0]]","10","0","","","","","","6","","","","",""
"","","","","","single-stim-button","302","1274530","0.0-3.0-40.7-0.7","6333103245619932bba4c8f6","E1","batch5","tol_tohand","1080","","","","","","","","","tol_peg_1","1080","1080","0","[[0,0,0],[2,1],[0]]","8","[[2,0,0],[1,3],[0]]","10","0","","","","","","6","","","","",""
"","","","","","single-stim-button","303","1275330","0.0-3.0-40.7-1.7","6333103245619932bba4c8f6","E1","batch5","tol_toboard","799","","","","","","","","","tol_peg_3","799","799","0","[[0,0,0],[2,1],[3]]","8","[[2,0,0],[1,3],[0]]","10","0","","","","","","6","","","","",""
"","","","","","single-stim-button","304","1277489","0.0-3.0-40.8-0.8","6333103245619932bba4c8f6","E1","batch5","tol_tohand","2159","","","","","","","","","tol_peg_2","2159","2159","0","[[0,0,0],[2,0],[3]]","9","[[2,0,0],[1,3],[0]]","10","0","","","","","","6","","","","",""
"","","","","","single-stim-button","305","1278250","0.0-3.0-40.8-1.8","6333103245619932bba4c8f6","E1","batch5","tol_toboard","761","","","","","","","","","tol_peg_1","761","761","0","[[1,0,0],[2,0],[3]]","9","[[2,0,0],[1,3],[0]]","10","0","","","","","","6","","","","",""
"","","","","","single-stim-button","306","1279666","0.0-3.0-40.9-0.9","6333103245619932bba4c8f6","E1","batch5","tol_tohand","1414","","","","","","","","","tol_peg_2","1414","1414","0","[[1,0,0],[0,0],[3]]","10","[[2,0,0],[1,3],[0]]","10","0","","","","","","6","","","","",""
"","","","","","single-stim-button","307","1280705","0.0-3.0-40.9-1.9","6333103245619932bba4c8f6","E1","batch5","tol_toboard","1039","","","","","","","","","tol_peg_1","1039","1039","0","[[1,2,0],[0,0],[3]]","10","[[2,0,0],[1,3],[0]]","10","0","","","","","","6","","","","",""
"","","","","","single-stim-button","308","1281401","0.0-3.0-40.10-0.10","6333103245619932bba4c8f6","E1","batch5","tol_tohand","695","","","","","","","","","tol_peg_3","695","695","0","[[1,2,0],[0,0],[0]]","11","[[2,0,0],[1,3],[0]]","10","0","","","","","","6","","","","",""
"","","","","","single-stim-button","309","1282298","0.0-3.0-40.10-1.10","6333103245619932bba4c8f6","E1","batch5","tol_toboard","895","","","","","","","","","tol_peg_2","895","895","0","[[1,2,0],[3,0],[0]]","11","[[2,0,0],[1,3],[0]]","10","0","","","","","","6","","","","",""
"","","","","","single-stim-button","310","1282970","0.0-3.0-40.11-0.11","6333103245619932bba4c8f6","E1","batch5","tol_tohand","671","","","","","","","","","tol_peg_1","671","671","0","[[1,0,0],[3,0],[0]]","12","[[2,0,0],[1,3],[0]]","10","0","","","","","","6","","","","",""
"","","","","","single-stim-button","311","1284026","0.0-3.0-40.11-1.11","6333103245619932bba4c8f6","E1","batch5","tol_toboard","1055","","","","","","","","","tol_peg_2","1055","1055","0","[[1,0,0],[3,2],[0]]","12","[[2,0,0],[1,3],[0]]","10","0","","","","","","6","","","","",""
"","","","","","single-stim-button","312","1284890","0.0-3.0-40.12-0.12","6333103245619932bba4c8f6","E1","batch5","tol_tohand","863","","","","","","","","","tol_peg_1","863","863","0","[[0,0,0],[3,2],[0]]","13","[[2,0,0],[1,3],[0]]","10","0","","","","","","6","","","","",""
"","","","","","single-stim-button","313","1286001","0.0-3.0-40.12-1.12","6333103245619932bba4c8f6","E1","batch5","tol_toboard","1110","","","","","","","","","tol_peg_3","1110","1110","0","[[0,0,0],[3,2],[1]]","13","[[2,0,0],[1,3],[0]]","10","0","","","","","","6","","","","",""
"","","","","","single-stim-button","314","1286602","0.0-3.0-40.13-0.13","6333103245619932bba4c8f6","E1","batch5","tol_tohand","601","","","","","","","","","tol_peg_2","601","601","0","[[0,0,0],[3,0],[1]]","14","[[2,0,0],[1,3],[0]]","10","0","","","","","","6","","","","",""
"","","","","","single-stim-button","315","1287258","0.0-3.0-40.13-1.13","6333103245619932bba4c8f6","E1","batch5","tol_toboard","655","","","","","","","","","tol_peg_1","655","655","0","[[2,0,0],[3,0],[1]]","14","[[2,0,0],[1,3],[0]]","10","0","","","","","","6","","","","",""
"","","","","","single-stim-button","316","1288225","0.0-3.0-40.14-0.14","6333103245619932bba4c8f6","E1","batch5","tol_tohand","967","","","","","","","","","tol_peg_2","967","967","0","[[2,0,0],[0,0],[1]]","15","[[2,0,0],[1,3],[0]]","10","0","","","","","","6","","","","",""
"","","","","","single-stim-button","317","1288969","0.0-3.0-40.14-1.14","6333103245619932bba4c8f6","E1","batch5","tol_toboard","744","","","","","","","","","tol_peg_1","744","744","0","[[2,3,0],[0,0],[1]]","15","[[2,0,0],[1,3],[0]]","10","0","","","","","","6","","","","",""
"","","","","","single-stim-button","318","1289761","0.0-3.0-40.15-0.15","6333103245619932bba4c8f6","E1","batch5","tol_tohand","790","","","","","","","","","tol_peg_3","790","790","0","[[2,3,0],[0,0],[0]]","16","[[2,0,0],[1,3],[0]]","10","0","","","","","","6","","","","",""
"","","","","","single-stim-button","319","1290482","0.0-3.0-40.15-1.15","6333103245619932bba4c8f6","E1","batch5","tol_toboard","720","","","","","","","","","tol_peg_2","720","720","0","[[2,3,0],[1,0],[0]]","16","[[2,0,0],[1,3],[0]]","10","0","","","","","","6","","","","",""
"","","","","","single-stim-button","320","1292034","0.0-3.0-40.16-0.16","6333103245619932bba4c8f6","E1","batch5","tol_tohand","1551","","","","","","","","","tol_peg_1","1551","1551","0","[[2,0,0],[1,0],[0]]","17","[[2,0,0],[1,3],[0]]","10","0","","","","","","6","","","","",""
"","","","","","single-stim-button","321","1292665","0.0-3.0-40.16-1.16","6333103245619932bba4c8f6","E1","batch5","tol_toboard","631","","","","","","","","","tol_peg_2","631","631","0","[[2,0,0],[1,3],[0]]","17","[[2,0,0],[1,3],[0]]","10","0","","","","","","6","","","","",""
"","","","","","poldrack-single-stim","322","1293676","0.0-3.0-41.0","6333103245619932bba4c8f6","E1","batch5","tol_feedback","-1","","","","","true","","","","","1000","1000","500","","","","","","-1","none","true","6263","28577","","","","","",""
"","","","","","html-button-response","323","1294594","0.0-3.0-42.0","6333103245619932bba4c8f6","E1","batch5","tol_trial_num","916.2000000178814","<div class = centerbox><p class = center-block-text>problem <strong>12</strong> out of 25 problems</p></div>","0","","","","","","","","","","","","","","","","","","","","","","","","","",""
"","","","","","single-stim-button","324","1298209","0.0-3.0-43.0-0.0","6333103245619932bba4c8f6","E1","batch5","tol_tohand","3615","","","","","","","","","tol_peg_1","3615","3615","0","[[1,0,0],[3,0],[0]]","1","[[2,3,0],[0,0],[1]]","11","0","","","","","","4","","","","",""
"","","","","","single-stim-button","325","1299152","0.0-3.0-43.0-1.0","6333103245619932bba4c8f6","E1","batch5","tol_toboard","941","","","","","","","","","tol_peg_2","941","941","0","[[1,0,0],[3,2],[0]]","1","[[2,3,0],[0,0],[1]]","11","0","","","","","","4","","","","",""
"","","","","","single-stim-button","326","1300121","0.0-3.0-43.1-0.1","6333103245619932bba4c8f6","E1","batch5","tol_tohand","969","","","","","","","","","tol_peg_1","969","969","0","[[0,0,0],[3,2],[0]]","2","[[2,3,0],[0,0],[1]]","11","0","","","","","","4","","","","",""
"","","","","","single-stim-button","327","1301602","0.0-3.0-43.1-1.1","6333103245619932bba4c8f6","E1","batch5","tol_toboard","1479","","","","","","","","","tol_peg_3","1479","1479","0","[[0,0,0],[3,2],[1]]","2","[[2,3,0],[0,0],[1]]","11","0","","","","","","4","","","","",""
"","","","","","single-stim-button","328","1302273","0.0-3.0-43.2-0.2","6333103245619932bba4c8f6","E1","batch5","tol_tohand","671","","","","","","","","","tol_peg_2","671","671","0","[[0,0,0],[3,0],[1]]","3","[[2,3,0],[0,0],[1]]","11","0","","","","","","4","","","","",""
"","","","","","single-stim-button","329","1303121","0.0-3.0-43.2-1.2","6333103245619932bba4c8f6","E1","batch5","tol_toboard","847","","","","","","","","","tol_peg_1","847","847","0","[[2,0,0],[3,0],[1]]","3","[[2,3,0],[0,0],[1]]","11","0","","","","","","4","","","","",""
"","","","","","single-stim-button","330","1303930","0.0-3.0-43.3-0.3","6333103245619932bba4c8f6","E1","batch5","tol_tohand","807","","","","","","","","","tol_peg_2","807","807","0","[[2,0,0],[0,0],[1]]","4","[[2,3,0],[0,0],[1]]","11","0","","","","","","4","","","","",""
"","","","","","single-stim-button","331","1304592","0.0-3.0-43.3-1.3","6333103245619932bba4c8f6","E1","batch5","tol_toboard","661","","","","","","","","","tol_peg_1","661","661","0","[[2,3,0],[0,0],[1]]","4","[[2,3,0],[0,0],[1]]","11","0","","","","","","4","","","","",""
"","","","","","poldrack-single-stim","332","1305605","0.0-3.0-44.0","6333103245619932bba4c8f6","E1","batch5","tol_feedback","-1","","","","","true","","","","","1000","1000","500","","","","","","-1","none","true","3615","6062","","","","","",""
"","","","","","html-button-response","333","1306657","0.0-3.0-45.0","6333103245619932bba4c8f6","E1","batch5","tol_trial_num","1050.800000011921","<div class = centerbox><p class = center-block-text>problem <strong>13</strong> out of 25 problems</p></div>","0","","","","","","","","","","","","","","","","","","","","","","","","","",""
"","","","","","single-stim-button","334","1310897","0.0-3.0-46.0-0.0","6333103245619932bba4c8f6","E1","batch5","tol_tohand","4239","","","","","","","","","tol_peg_1","4239","4239","0","[[1,0,0],[3,0],[0]]","1","[[0,0,0],[2,3],[1]]","12","0","","","","","","4","","","","",""
"","","","","","single-stim-button","335","1311713","0.0-3.0-46.0-1.0","6333103245619932bba4c8f6","E1","batch5","tol_toboard","815","","","","","","","","","tol_peg_2","815","815","0","[[1,0,0],[3,2],[0]]","1","[[0,0,0],[2,3],[1]]","12","0","","","","","","4","","","","",""
"","","","","","single-stim-button","336","1312528","0.0-3.0-46.1-0.1","6333103245619932bba4c8f6","E1","batch5","tol_tohand","814","","","","","","","","","tol_peg_1","814","814","0","[[0,0,0],[3,2],[0]]","2","[[0,0,0],[2,3],[1]]","12","0","","","","","","4","","","","",""
"","","","","","single-stim-button","337","1313665","0.0-3.0-46.1-1.1","6333103245619932bba4c8f6","E1","batch5","tol_toboard","1137","","","","","","","","","tol_peg_3","1137","1137","0","[[0,0,0],[3,2],[1]]","2","[[0,0,0],[2,3],[1]]","12","0","","","","","","4","","","","",""
"","","","","","single-stim-button","338","1320651","0.0-3.0-46.2-0.2","6333103245619932bba4c8f6","E1","batch5","tol_tohand","6985","","","","","","","","","tol_peg_3","6985","6985","0","[[0,0,0],[3,2],[0]]","3","[[0,0,0],[2,3],[1]]","12","0","","","","","","4","","","","",""
"","","","","","single-stim-button","339","1321425","0.0-3.0-46.2-1.2","6333103245619932bba4c8f6","E1","batch5","tol_toboard","774","","","","","","","","","tol_peg_1","774","774","0","[[1,0,0],[3,2],[0]]","3","[[0,0,0],[2,3],[1]]","12","0","","","","","","4","","","","",""
"","","","","","single-stim-button","340","1322264","0.0-3.0-46.3-0.3","6333103245619932bba4c8f6","E1","batch5","tol_tohand","839","","","","","","","","","tol_peg_2","839","839","0","[[1,0,0],[3,0],[0]]","4","[[0,0,0],[2,3],[1]]","12","0","","","","","","4","","","","",""
"","","","","","single-stim-button","341","1323360","0.0-3.0-46.3-1.3","6333103245619932bba4c8f6","E1","batch5","tol_toboard","1094","","","","","","","","","tol_peg_1","1094","1094","0","[[1,2,0],[3,0],[0]]","4","[[0,0,0],[2,3],[1]]","12","0","","","","","","4","","","","",""
"","","","","","single-stim-button","342","1324161","0.0-3.0-46.4-0.4","6333103245619932bba4c8f6","E1","batch5","tol_tohand","801","","","","","","","","","tol_peg_2","801","801","0","[[1,2,0],[0,0],[0]]","5","[[0,0,0],[2,3],[1]]","12","0","","","","","","4","","","","",""
"","","","","","single-stim-button","343","1325625","0.0-3.0-46.4-1.4","6333103245619932bba4c8f6","E1","batch5","tol_toboard","1463","","","","","","","","","tol_peg_3","1463","1463","0","[[1,2,0],[0,0],[3]]","5","[[0,0,0],[2,3],[1]]","12","0","","","","","","4","","","","",""
"","","","","","single-stim-button","344","1326594","0.0-3.0-46.5-0.5","6333103245619932bba4c8f6","E1","batch5","tol_tohand","969","","","","","","","","","tol_peg_1","969","969","0","[[1,0,0],[0,0],[3]]","6","[[0,0,0],[2,3],[1]]","12","0","","","","","","4","","","","",""
"","","","","","single-stim-button","345","1327256","0.0-3.0-46.5-1.5","6333103245619932bba4c8f6","E1","batch5","tol_toboard","662","","","","","","","","","tol_peg_2","662","662","0","[[1,0,0],[2,0],[3]]","6","[[0,0,0],[2,3],[1]]","12","0","","","","","","4","","","","",""
"","","","","","single-stim-button","346","1328033","0.0-3.0-46.6-0.6","6333103245619932bba4c8f6","E1","batch5","tol_tohand","776","","","","","","","","","tol_peg_3","776","776","0","[[1,0,0],[2,0],[0]]","7","[[0,0,0],[2,3],[1]]","12","0","","","","","","4","","","","",""
"","","","","","single-stim-button","347","1328568","0.0-3.0-46.6-1.6","6333103245619932bba4c8f6","E1","batch5","tol_toboard","534","","","","","","","","","tol_peg_2","534","534","0","[[1,0,0],[2,3],[0]]","7","[[0,0,0],[2,3],[1]]","12","0","","","","","","4","","","","",""
"","","","","","single-stim-button","348","1329217","0.0-3.0-46.7-0.7","6333103245619932bba4c8f6","E1","batch5","tol_tohand","648","","","","","","","","","tol_peg_1","648","648","0","[[0,0,0],[2,3],[0]]","8","[[0,0,0],[2,3],[1]]","12","0","","","","","","4","","","","",""
"","","","","","single-stim-button","349","1330345","0.0-3.0-46.7-1.7","6333103245619932bba4c8f6","E1","batch5","tol_toboard","1128","","","","","","","","","tol_peg_3","1128","1128","0","[[0,0,0],[2,3],[1]]","8","[[0,0,0],[2,3],[1]]","12","0","","","","","","4","","","","",""
"","","","","","poldrack-single-stim","350","1331347","0.0-3.0-47.0","6333103245619932bba4c8f6","E1","batch5","tol_feedback","-1","","","","","true","","","","","1000","1000","500","","","","","","-1","none","true","4239","16071","","","","","",""
"","","","","","html-button-response","351","1335041","0.0-3.0-48.0","6333103245619932bba4c8f6","E1","batch5","attention_check","3693.0999999940395","<p class = block-text>How many balls are in your board<br></p>","1","","","true","","","","","","","","","","","","","","","","","","","","","","",""
"","","","","","html-button-response","352","1336569","0.0-3.0-49.0","6333103245619932bba4c8f6","E1","batch5","tol_trial_num","1527.300000011921","<div class = centerbox><p class = center-block-text>problem <strong>14</strong> out of 25 problems</p></div>","0","","","","","","","","","","","","","","","","","","","","","","","","","",""
"","","","","","single-stim-button","353","1341208","0.0-3.0-50.0-0.0","6333103245619932bba4c8f6","E1","batch5","tol_tohand","4638","","","","","","","","","tol_peg_1","4638","4638","0","[[2,0,0],[3,0],[0]]","1","[[1,2,0],[3,0],[0]]","13","0","","","","","","4","","","","",""
"","","","","","single-stim-button","354","1343417","0.0-3.0-50.0-1.0","6333103245619932bba4c8f6","E1","batch5","tol_toboard","2208","","","","","","","","","tol_peg_3","2208","2208","0","[[2,0,0],[3,0],[1]]","1","[[1,2,0],[3,0],[0]]","13","0","","","","","","4","","","","",""
