"success","timeout","failed_images","failed_audio","failed_video","trial_type","trial_index","time_elapsed","internal_node_id","subject_id","study_id","session_id","view_history","rt","stimulus","response","task","correct","answer","item","fiar_detect_rt","fiar_detect_correct","total_correct_fiar_detect","post_trial_gap","choices","spm_correct","spm_rt","mouse_click","stim_duration","block_duration","timing_post_trial","current_position","tol_num_moves_made","tol_target","tol_problem_id","tol_rt","key_press","possible_responses","tol_correct","preplanning","tol_rt_per_trial","tol_min_moves"
"true","false","[]","[]","[]","preload","0","11997","0.0-0.0","63331d7bd9dcae2e49dff57e","B2","batch2","","","","","","","","","","","","","","","","","","","","","","","","","","","","","",""
"true","","","","","fullscreen","1","32009","0.0-1.0-0.0","63331d7bd9dcae2e49dff57e","B2","batch2","","","","","","","","","","","","","","","","","","","","","","","","","","","","","",""
"true","","","","","fullscreen","2","34612","0.0-2.0-0.0","63331d7bd9dcae2e49dff57e","B2","batch2","","","","","","","","","","","","","","","","","","","","","","","","","","","","","",""
"","","","","","instructions","3","62064","0.0-2.0-1.0-0.0","63331d7bd9dcae2e49dff57e","B2","batch2","[{""page_index"":0,""viewing_time"":3226.5999999940395},{""page_index"":1,""viewing_time"":1167.5},{""page_index"":0,""viewing_time"":14959.90000000596},{""page_index"":1,""viewing_time"":8096.0999999940395}]","27450.29999998212","","","","","","","","","","","","","","","","","","","","","","","","","","","",""
"","","","","","html-button-response","4","63280","0.0-2.0-1.0-1.0-0.0","63331d7bd9dcae2e49dff57e","B2","batch2","","1215.0999999940395","<p class=block-text> Let's answer a few questions <br>","0","pattern_enter_quiz","","","","","","","","","","","","","","","","","","","","","","","","",""
"","","","","","html-button-response","5","68720","0.0-2.0-1.0-1.0-1.0","63331d7bd9dcae2e49dff57e","B2","batch2","","5438.9000000059605","<p class = block-text>True or False: You will have as much time as you want to make each choice. <br></p>","1","pattern_quiz","true","","","","","","","","","","","","","","","","","","","","","","","",""
"","","","","","html-button-response","6","70138","0.0-2.0-1.0-1.0-2.0","63331d7bd9dcae2e49dff57e","B2","batch2","","1416.5999999940395","<p class = block-text>Correct! You should make your choice <strong> as fast as you can</strong>.</p>","0","pattern_quiz_feedback","","","","","","","","","","","","","","","","","","","","","","","","",""
"","","","","","html-button-response","7","73430","0.0-2.0-1.0-1.0-3.0","63331d7bd9dcae2e49dff57e","B2","batch2","","3291.2000000178814","<p class = block-text>True or False: You will look for 4 pieces in black or white color connected in a row either horizontally, vertically or diagonally. <br></p>","0","pattern_quiz","true","","","","","","","","","","","","","","","","","","","","","","","",""
"","","","","","html-button-response","8","74191","0.0-2.0-1.0-1.0-4.0","63331d7bd9dcae2e49dff57e","B2","batch2","","759.8999999761581","<p class = block-text>Correct! </p>","0","pattern_quiz_feedback","","","","","","","","","","","","","","","","","","","","","","","","",""
"","","","","","html-button-response","9","75644","0.0-2.0-2.0","63331d7bd9dcae2e49dff57e","B2","batch2","","1451.800000011921","<p class=block-text> Now that you've understood the game, let's do a few practice trials before we start!<br> <br>","0","pattern_enter_practice","","","","","","","","","","","","","","","","","","","","","","","","",""
"","","","","","image-keyboard-response","10","77706","0.0-2.0-3.0-0.0","63331d7bd9dcae2e49dff57e","B2","batch2","","2059.5","stim/prac_no_18_1.png","j","pattern_practice","true","j","","","","","","","","","","","","","","","","","","","","","","",""
"","","","","","html-keyboard-response","11","78732","0.0-2.0-3.0-1.0","63331d7bd9dcae2e49dff57e","B2","batch2","","null","<p style=""font-size:30px;color:green;"">Correct!</p>","null","pattern_feedback","","","","","","","","","","","","","","","","","","","","","","","","",""
"","","","","","image-keyboard-response","12","79644","0.0-2.0-3.0-0.1","63331d7bd9dcae2e49dff57e","B2","batch2","","909.5","stim/prac_yes_20_dia_b1.png","f","pattern_practice","true","f","","","","","","","","","","","","","","","","","","","","","","",""
"","","","","","html-keyboard-response","13","80668","0.0-2.0-3.0-1.1","63331d7bd9dcae2e49dff57e","B2","batch2","","null","<p style=""font-size:30px;color:green;"">Correct!</p>","null","pattern_feedback","","","","","","","","","","","","","","","","","","","","","","","","",""
"","","","","","image-keyboard-response","14","81369","0.0-2.0-3.0-0.2","63331d7bd9dcae2e49dff57e","B2","batch2","","697.6999999880791","stim/prac_yes_18_hor_w1.png","f","pattern_practice","true","f","","","","","","","","","","","","","","","","","","","","","","",""
"","","","","","html-keyboard-response","15","82388","0.0-2.0-3.0-1.2","63331d7bd9dcae2e49dff57e","B2","batch2","","null","<p style=""font-size:30px;color:green;"">Correct!</p>","null","pattern_feedback","","","","","","","","","","","","","","","","","","","","","","","","",""
"","","","","","image-keyboard-response","16","84417","0.0-2.0-3.0-0.3","63331d7bd9dcae2e49dff57e","B2","batch2","","2026.5","stim/prac_no_16_1.png","j","pattern_practice","true","j","","","","","","","","","","","","","","","","","","","","","","",""
"","","","","","html-keyboard-response","17","85444","0.0-2.0-3.0-1.3","63331d7bd9dcae2e49dff57e","B2","batch2","","null","<p style=""font-size:30px;color:green;"">Correct!</p>","null","pattern_feedback","","","","","","","","","","","","","","","","","","","","","","","","",""
"","","","","","image-keyboard-response","18","86089","0.0-2.0-3.0-0.4","63331d7bd9dcae2e49dff57e","B2","batch2","","644","stim/prac_yes_16_ver_w1.png","f","pattern_practice","true","f","","","","","","","","","","","","","","","","","","","","","","",""
"","","","","","html-keyboard-response","19","87108","0.0-2.0-3.0-1.4","63331d7bd9dcae2e49dff57e","B2","batch2","","null","<p style=""font-size:30px;color:green;"">Correct!</p>","null","pattern_feedback","","","","","","","","","","","","","","","","","","","","","","","","",""
"","","","","","html-button-response","20","90634","0.0-2.0-4.0","63331d7bd9dcae2e49dff57e","B2","batch2","","3523.5999999940395","<p class=block-text> Good job! You are done with practice trials!<br>
        You responded correctly on 100% of the trials.<br>
        Press the button below to start official trials. Now you won't see any feedback about your response</p>","0","pattern_enter_official_trials","","","","","","","","","","","","","","","","","","","","","","","","",""
"","","","","","html-keyboard-response","21","91448","0.0-2.0-5.0-0.0","63331d7bd9dcae2e49dff57e","B2","batch2","","null","<p class=block-text>Trial 1 out of 78</p>","null","pattern_show_trial_num","","","","","","","","","","","","","","","","","","","","","","","","",""
"","","","","","image-keyboard-response","22","92569","0.0-2.0-5.0-1.0","63331d7bd9dcae2e49dff57e","B2","batch2","","1118.199999988079","stim/yes_29_hor_b1_b.png","f","pattern_response","true","f","pattern_52","1118.199999988079","true","1","","","","","","","","","","","","","","","","","","",""
"","","","","","html-keyboard-response","23","93873","0.0-2.0-5.0-0.1","63331d7bd9dcae2e49dff57e","B2","batch2","","null","<p class=block-text>Trial 2 out of 78</p>","null","pattern_show_trial_num","","","","","","","","","","","","","","","","","","","","","","","","",""
"","","","","","image-keyboard-response","24","97827","0.0-2.0-5.0-1.1","63331d7bd9dcae2e49dff57e","B2","batch2","","3952.5","stim/no_53_1_b.png","j","pattern_response","true","j","pattern_33","3952.5","true","2","","","","","","","","","","","","","","","","","","",""
"","","","","","html-keyboard-response","25","99151","0.0-2.0-5.0-0.2","63331d7bd9dcae2e49dff57e","B2","batch2","","null","<p class=block-text>Trial 3 out of 78</p>","null","pattern_show_trial_num","","","","","","","","","","","","","","","","","","","","","","","","",""
"","","","","","image-keyboard-response","26","102633","0.0-2.0-5.0-1.2","63331d7bd9dcae2e49dff57e","B2","batch2","","3478.300000011921","stim/no_45_1_w.png","j","pattern_response","true","j","pattern_25","3478.300000011921","true","3","","","","","","","","","","","","","","","","","","",""
"","","","","","html-keyboard-response","27","103958","0.0-2.0-5.0-0.3","63331d7bd9dcae2e49dff57e","B2","batch2","","null","<p class=block-text>Trial 4 out of 78</p>","null","pattern_show_trial_num","","","","","","","","","","","","","","","","","","","","","","","","",""
"","","","","","image-keyboard-response","28","108289","0.0-2.0-5.0-1.3","63331d7bd9dcae2e49dff57e","B2","batch2","","4329.699999988079","stim/no_47_1_b.png","j","pattern_response","true","j","pattern_27","4329.699999988079","true","4","","","","","","","","","","","","","","","","","","",""
"","","","","","html-keyboard-response","29","109611","0.0-2.0-5.0-0.4","63331d7bd9dcae2e49dff57e","B2","batch2","","null","<p class=block-text>Trial 5 out of 78</p>","null","pattern_show_trial_num","","","","","","","","","","","","","","","","","","","","","","","","",""
"","","","","","image-keyboard-response","30","110560","0.0-2.0-5.0-1.4","63331d7bd9dcae2e49dff57e","B2","batch2","","945.5","stim/yes_70_ver_b1.png","f","pattern_response","true","f","pattern_80","945.5","true","5","","","","","","","","","","","","","","","","","","",""
"","","","","","html-keyboard-response","31","111877","0.0-2.0-5.0-0.5","63331d7bd9dcae2e49dff57e","B2","batch2","","null","<p class=block-text>Trial 6 out of 78</p>","null","pattern_show_trial_num","","","","","","","","","","","","","","","","","","","","","","","","",""
"","","","","","image-keyboard-response","32","116081","0.0-2.0-5.0-1.5","63331d7bd9dcae2e49dff57e","B2","batch2","","4203.200000017881","stim/no_39_1_w.png","j","pattern_response","true","j","pattern_21","4203.200000017881","true","6","","","","","","","","","","","","","","","","","","",""
"","","","","","html-keyboard-response","33","117386","0.0-2.0-5.0-0.6","63331d7bd9dcae2e49dff57e","B2","batch2","","null","<p class=block-text>Trial 7 out of 78</p>","null","pattern_show_trial_num","","","","","","","","","","","","","","","","","","","","","","","","",""
"","","","","","image-keyboard-response","34","121249","0.0-2.0-5.0-1.6","63331d7bd9dcae2e49dff57e","B2","batch2","","3859.7000000178814","stim/no_51_1.png","j","pattern_response","true","j","pattern_31","3859.7000000178814","true","7","","","","","","","","","","","","","","","","","","",""
"","","","","","html-keyboard-response","35","122576","0.0-2.0-5.0-0.7","63331d7bd9dcae2e49dff57e","B2","batch2","","null","<p class=block-text>Trial 8 out of 78</p>","null","pattern_show_trial_num","","","","","","","","","","","","","","","","","","","","","","","","",""
"","","","","","image-keyboard-response","36","123224","0.0-2.0-5.0-1.7","63331d7bd9dcae2e49dff57e","B2","batch2","","646.1999999880791","stim/yes_12_hor_w1_w.png","f","pattern_response","true","f","pattern_42","646.1999999880791","true","8","","","","","","","","","","","","","","","","","","",""
"","","","","","html-keyboard-response","37","124542","0.0-2.0-5.0-0.8","63331d7bd9dcae2e49dff57e","B2","batch2","","null","<p class=block-text>Trial 9 out of 78</p>","null","pattern_show_trial_num","","","","","","","","","","","","","","","","","","","","","","","","",""
"","","","","","image-keyboard-response","38","130128","0.0-2.0-5.0-1.8","63331d7bd9dcae2e49dff57e","B2","batch2","","5585.5","stim/no_18_1_b.png","j","pattern_response","true","j","pattern_05","5585.5","true","9","","","","","","","","","","","","","","","","","","",""
"","","","","","html-keyboard-response","39","131456","0.0-2.0-5.0-0.9","63331d7bd9dcae2e49dff57e","B2","batch2","","null","<p class=block-text>Trial 10 out of 78</p>","null","pattern_show_trial_num","","","","","","","","","","","","","","","","","","","","","","","","",""
"","","","","","image-keyboard-response","40","132656","0.0-2.0-5.0-1.9","63331d7bd9dcae2e49dff57e","B2","batch2","","1196.2999999821186","stim/yes_49_hor_w1_b.png","f","pattern_response","true","f","pattern_70","1196.2999999821186","true","10","","","","","","","","","","","","","","","","","","",""
"","","","","","html-keyboard-response","41","133967","0.0-2.0-5.0-0.10","63331d7bd9dcae2e49dff57e","B2","batch2","","null","<p class=block-text>Trial 11 out of 78</p>","null","pattern_show_trial_num","","","","","","","","","","","","","","","","","","","","","","","","",""
"","","","","","image-keyboard-response","42","136777","0.0-2.0-5.0-1.10","63331d7bd9dcae2e49dff57e","B2","batch2","","2806.7000000178814","stim/yes_53_ver_b1_b.png","f","pattern_response","true","f","pattern_74","2806.7000000178814","true","11","","","","","","","","","","","","","","","","","","",""
"","","","","","html-keyboard-response","43","138088","0.0-2.0-5.0-0.11","63331d7bd9dcae2e49dff57e","B2","batch2","","null","<p class=block-text>Trial 12 out of 78</p>","null","pattern_show_trial_num","","","","","","","","","","","","","","","","","","","","","","","","",""
"","","","","","image-keyboard-response","44","138905","0.0-2.0-5.0-1.11","63331d7bd9dcae2e49dff57e","B2","batch2","","815.0999999940395","stim/yes_23_ver_b1.png","f","pattern_response","true","f","pattern_48","815.0999999940395","true","12","","","","","","","","","","","","","","","","","","",""
"","","","","","html-keyboard-response","45","140226","0.0-2.0-5.0-0.12","63331d7bd9dcae2e49dff57e","B2","batch2","","null","<p class=block-text>Trial 13 out of 78</p>","null","pattern_show_trial_num","","","","","","","","","","","","","","","","","","","","","","","","",""
"","","","","","image-keyboard-response","46","144041","0.0-2.0-5.0-1.12","63331d7bd9dcae2e49dff57e","B2","batch2","","3812.5999999940395","stim/yes_44_ver_w1_w.png","f","pattern_response","true","f","pattern_66","3812.5999999940395","true","13","","","","","","","","","","","","","","","","","","",""
"","","","","","html-keyboard-response","47","145358","0.0-2.0-5.0-0.13","63331d7bd9dcae2e49dff57e","B2","batch2","","null","<p class=block-text>Trial 14 out of 78</p>","null","pattern_show_trial_num","","","","","","","","","","","","","","","","","","","","","","","","",""
"","","","","","image-keyboard-response","48","149264","0.0-2.0-5.0-1.13","63331d7bd9dcae2e49dff57e","B2","batch2","","3903.2000000178814","stim/no_36_1_b.png","j","pattern_response","true","j","pattern_17","3903.2000000178814","true","14","","","","","","","","","","","","","","","","","","",""
"","","","","","html-keyboard-response","49","150584","0.0-2.0-5.0-0.14","63331d7bd9dcae2e49dff57e","B2","batch2","","null","<p class=block-text>Trial 15 out of 78</p>","null","pattern_show_trial_num","","","","","","","","","","","","","","","","","","","","","","","","",""
"","","","","","image-keyboard-response","50","152025","0.0-2.0-5.0-1.14","63331d7bd9dcae2e49dff57e","B2","batch2","","1437.7999999821186","stim/yes_63_dia_b1.png","f","pattern_response","true","f","pattern_78","1437.7999999821186","true","15","","","","","","","","","","","","","","","","","","",""
"","","","","","html-keyboard-response","51","153338","0.0-2.0-5.0-0.15","63331d7bd9dcae2e49dff57e","B2","batch2","","null","<p class=block-text>Trial 16 out of 78</p>","null","pattern_show_trial_num","","","","","","","","","","","","","","","","","","","","","","","","",""
"","","","","","image-keyboard-response","52","154498","0.0-2.0-5.0-1.15","63331d7bd9dcae2e49dff57e","B2","batch2","","1156.0999999940395","stim/no_12_1.png","j","pattern_response","true","j","pattern_01","1156.0999999940395","true","16","","","","","","","","","","","","","","","","","","",""
"","","","","","html-keyboard-response","53","155821","0.0-2.0-5.0-0.16","63331d7bd9dcae2e49dff57e","B2","batch2","","null","<p class=block-text>Trial 17 out of 78</p>","null","pattern_show_trial_num","","","","","","","","","","","","","","","","","","","","","","","","",""
"","","","","","image-keyboard-response","54","158505","0.0-2.0-5.0-1.16","63331d7bd9dcae2e49dff57e","B2","batch2","","2682.199999988079","stim/no_30_1_b.png","j","pattern_response","true","j","pattern_13","2682.199999988079","true","17","","","","","","","","","","","","","","","","","","",""
"","","","","","html-keyboard-response","55","159829","0.0-2.0-5.0-0.17","63331d7bd9dcae2e49dff57e","B2","batch2","","null","<p class=block-text>Trial 18 out of 78</p>","null","pattern_show_trial_num","","","","","","","","","","","","","","","","","","","","","","","","",""
"","","","","","image-keyboard-response","56","160769","0.0-2.0-5.0-1.17","63331d7bd9dcae2e49dff57e","B2","batch2","","937.1999999880791","stim/yes_33_dia_w1_w.png","f","pattern_response","true","f","pattern_56","937.1999999880791","true","18","","","","","","","","","","","","","","","","","","",""
"","","","","","html-keyboard-response","57","162081","0.0-2.0-5.0-0.18","63331d7bd9dcae2e49dff57e","B2","batch2","","null","<p class=block-text>Trial 19 out of 78</p>","null","pattern_show_trial_num","","","","","","","","","","","","","","","","","","","","","","","","",""
"","","","","","image-keyboard-response","58","165290","0.0-2.0-5.0-1.18","63331d7bd9dcae2e49dff57e","B2","batch2","","3207.300000011921","stim/no_33_1_b.png","j","pattern_response","true","j","pattern_15","3207.300000011921","true","19","","","","","","","","","","","","","","","","","","",""
"","","","","","html-keyboard-response","59","166605","0.0-2.0-5.0-0.19","63331d7bd9dcae2e49dff57e","B2","batch2","","null","<p class=block-text>Trial 20 out of 78</p>","null","pattern_show_trial_num","","","","","","","","","","","","","","","","","","","","","","","","",""
"","","","","","image-keyboard-response","60","170169","0.0-2.0-5.0-1.19","63331d7bd9dcae2e49dff57e","B2","batch2","","3562.199999988079","stim/no_37_2_w.png","j","pattern_response","true","j","pattern_19","3562.199999988079","true","20","","","","","","","","","","","","","","","","","","",""
"","","","","","html-keyboard-response","61","171488","0.0-2.0-5.0-0.20","63331d7bd9dcae2e49dff57e","B2","batch2","","null","<p class=block-text>Trial 21 out of 78</p>","null","pattern_show_trial_num","","","","","","","","","","","","","","","","","","","","","","","","",""
"","","","","","image-keyboard-response","62","174481","0.0-2.0-5.0-1.20","63331d7bd9dcae2e49dff57e","B2","batch2","","2990","stim/no_28_2.png","j","pattern_response","true","j","pattern_11","2990","true","21","","","","","","","","","","","","","","","","","","",""
"","","","","","html-keyboard-response","63","175809","0.0-2.0-5.0-0.21","63331d7bd9dcae2e49dff57e","B2","batch2","","null","<p class=block-text>Trial 22 out of 78</p>","null","pattern_show_trial_num","","","","","","","","","","","","","","","","","","","","","","","","",""
"","","","","","image-keyboard-response","64","177258","0.0-2.0-5.0-1.21","63331d7bd9dcae2e49dff57e","B2","batch2","","1445.300000011921","stim/yes_46_ver_b1_b.png","f","pattern_response","true","f","pattern_68","1445.300000011921","true","22","","","","","","","","","","","","","","","","","","",""
"","","","","","html-keyboard-response","65","178583","0.0-2.0-5.0-0.22","63331d7bd9dcae2e49dff57e","B2","batch2","","null","<p class=block-text>Trial 23 out of 78</p>","null","pattern_show_trial_num","","","","","","","","","","","","","","","","","","","","","","","","",""
"","","","","","image-keyboard-response","66","181546","0.0-2.0-5.0-1.22","63331d7bd9dcae2e49dff57e","B2","batch2","","2961.0999999940395","stim/no_25_1_b.png","j","pattern_response","true","j","pattern_09","2961.0999999940395","true","23","","","","","","","","","","","","","","","","","","",""
"","","","","","html-keyboard-response","67","182866","0.0-2.0-5.0-0.23","63331d7bd9dcae2e49dff57e","B2","batch2","","null","<p class=block-text>Trial 24 out of 78</p>","null","pattern_show_trial_num","","","","","","","","","","","","","","","","","","","","","","","","",""
"","","","","","image-keyboard-response","68","186625","0.0-2.0-5.0-1.23","63331d7bd9dcae2e49dff57e","B2","batch2","","3755.699999988079","stim/yes_51_dia_b1.png","j","pattern_response","false","f","pattern_72","3755.699999988079","false","23","","","","","","","","","","","","","","","","","","",""
"","","","","","html-keyboard-response","69","187949","0.0-2.0-5.0-0.24","63331d7bd9dcae2e49dff57e","B2","batch2","","null","<p class=block-text>Trial 25 out of 78</p>","null","pattern_show_trial_num","","","","","","","","","","","","","","","","","","","","","","","","",""
"","","","","","image-keyboard-response","70","189712","0.0-2.0-5.0-1.24","63331d7bd9dcae2e49dff57e","B2","batch2","","1759.2000000178814","stim/no_15_1_w.png","j","pattern_response","true","j","pattern_03","1759.2000000178814","true","24","","","","","","","","","","","","","","","","","","",""
"","","","","","html-keyboard-response","71","191028","0.0-2.0-5.0-0.25","63331d7bd9dcae2e49dff57e","B2","batch2","","null","<p class=block-text>Trial 26 out of 78</p>","null","pattern_show_trial_num","","","","","","","","","","","","","","","","","","","","","","","","",""
"","","","","","image-keyboard-response","72","191696","0.0-2.0-5.0-1.25","63331d7bd9dcae2e49dff57e","B2","batch2","","667.3000000119209","stim/yes_36_ver_w1_w.png","f","pattern_response","true","f","pattern_58","667.3000000119209","true","25","","","","","","","","","","","","","","","","","","",""
"","","","","","html-keyboard-response","73","193006","0.0-2.0-5.0-0.26","63331d7bd9dcae2e49dff57e","B2","batch2","","null","<p class=block-text>Trial 27 out of 78</p>","null","pattern_show_trial_num","","","","","","","","","","","","","","","","","","","","","","","","",""
"","","","","","image-keyboard-response","74","194144","0.0-2.0-5.0-1.26","63331d7bd9dcae2e49dff57e","B2","batch2","","1135.699999988079","stim/yes_17_ver_b1_b.png","f","pattern_response","true","f","pattern_46","1135.699999988079","true","26","","","","","","","","","","","","","","","","","","",""
"","","","","","html-keyboard-response","75","195459","0.0-2.0-5.0-0.27","63331d7bd9dcae2e49dff57e","B2","batch2","","null","<p class=block-text>Trial 28 out of 78</p>","null","pattern_show_trial_num","","","","","","","","","","","","","","","","","","","","","","","","",""
"","","","","","image-keyboard-response","76","196216","0.0-2.0-5.0-1.27","63331d7bd9dcae2e49dff57e","B2","batch2","","754.9000000059605","stim/yes_39_hor_w1_w.png","f","pattern_response","true","f","pattern_62","754.9000000059605","true","27","","","","","","","","","","","","","","","","","","",""
"","","","","","html-keyboard-response","77","197530","0.0-2.0-5.0-0.28","63331d7bd9dcae2e49dff57e","B2","batch2","","null","<p class=block-text>Trial 29 out of 78</p>","null","pattern_show_trial_num","","","","","","","","","","","","","","","","","","","","","","","","",""
"","","","","","image-keyboard-response","78","199353","0.0-2.0-5.0-1.28","63331d7bd9dcae2e49dff57e","B2","batch2","","1821.5","stim/yes_42_dia_w1_w.png","f","pattern_response","true","f","pattern_64","1821.5","true","28","","","","","","","","","","","","","","","","","","",""
"","","","","","html-keyboard-response","79","200667","0.0-2.0-5.0-0.29","63331d7bd9dcae2e49dff57e","B2","batch2","","null","<p class=block-text>Trial 30 out of 78</p>","null","pattern_show_trial_num","","","","","","","","","","","","","","","","","","","","","","","","",""
"","","","","","image-keyboard-response","80","204482","0.0-2.0-5.0-1.29","63331d7bd9dcae2e49dff57e","B2","batch2","","3813.899999976158","stim/no_43_2_b.png","j","pattern_response","true","j","pattern_23","3813.899999976158","true","29","","","","","","","","","","","","","","","","","","",""
"","","","","","html-keyboard-response","81","205800","0.0-2.0-5.0-0.30","63331d7bd9dcae2e49dff57e","B2","batch2","","null","<p class=block-text>Trial 31 out of 78</p>","null","pattern_show_trial_num","","","","","","","","","","","","","","","","","","","","","","","","",""
"","","","","","image-keyboard-response","82","207552","0.0-2.0-5.0-1.30","63331d7bd9dcae2e49dff57e","B2","batch2","","1748.699999988079","stim/yes_26_dia_w2_w.png","f","pattern_response","true","f","pattern_50","1748.699999988079","true","30","","","","","","","","","","","","","","","","","","",""
"","","","","","html-keyboard-response","83","208868","0.0-2.0-5.0-0.31","63331d7bd9dcae2e49dff57e","B2","batch2","","null","<p class=block-text>Trial 32 out of 78</p>","null","pattern_show_trial_num","","","","","","","","","","","","","","","","","","","","","","","","",""
"","","","","","image-keyboard-response","84","210689","0.0-2.0-5.0-1.31","63331d7bd9dcae2e49dff57e","B2","batch2","","1818.4000000059605","stim/no_22_1_b.png","j","pattern_response","true","j","pattern_07","1818.4000000059605","true","31","","","","","","","","","","","","","","","","","","",""
"","","","","","html-keyboard-response","85","212007","0.0-2.0-5.0-0.32","63331d7bd9dcae2e49dff57e","B2","batch2","","null","<p class=block-text>Trial 33 out of 78</p>","null","pattern_show_trial_num","","","","","","","","","","","","","","","","","","","","","","","","",""
"","","","","","image-keyboard-response","86","217042","0.0-2.0-5.0-1.32","63331d7bd9dcae2e49dff57e","B2","batch2","","5031.5999999940395","stim/yes_58_dia_w1_w.png","j","pattern_response","false","f","pattern_76","5031.5999999940395","false","31","","","","","","","","","","","","","","","","","","",""
"","","","","","html-keyboard-response","87","218364","0.0-2.0-5.0-0.33","63331d7bd9dcae2e49dff57e","B2","batch2","","null","<p class=block-text>Trial 34 out of 78</p>","null","pattern_show_trial_num","","","","","","","","","","","","","","","","","","","","","","","","",""
"","","","","","image-keyboard-response","88","219521","0.0-2.0-5.0-1.33","63331d7bd9dcae2e49dff57e","B2","batch2","","1153.300000011921","stim/yes_30_ver_b1_b.png","f","pattern_response","true","f","pattern_54","1153.300000011921","true","32","","","","","","","","","","","","","","","","","","",""
"","","","","","html-keyboard-response","89","220838","0.0-2.0-5.0-0.34","63331d7bd9dcae2e49dff57e","B2","batch2","","null","<p class=block-text>Trial 35 out of 78</p>","null","pattern_show_trial_num","","","","","","","","","","","","","","","","","","","","","","","","",""
"","","","","","image-keyboard-response","90","225305","0.0-2.0-5.0-1.34","63331d7bd9dcae2e49dff57e","B2","batch2","","4464.4000000059605","stim/no_49_2_b.png","j","pattern_response","true","j","pattern_29","4464.4000000059605","true","33","","","","","","","","","","","","","","","","","","",""
"","","","","","html-keyboard-response","91","226615","0.0-2.0-5.0-0.35","63331d7bd9dcae2e49dff57e","B2","batch2","","null","<p class=block-text>Trial 36 out of 78</p>","null","pattern_show_trial_num","","","","","","","","","","","","","","","","","","","","","","","","",""
"","","","","","image-keyboard-response","92","227673","0.0-2.0-5.0-1.35","63331d7bd9dcae2e49dff57e","B2","batch2","","1053.9000000059605","stim/yes_37_hor_w1_w.png","f","pattern_response","true","f","pattern_60","1053.9000000059605","true","34","","","","","","","","","","","","","","","","","","",""
"","","","","","html-keyboard-response","93","228998","0.0-2.0-5.0-0.36","63331d7bd9dcae2e49dff57e","B2","batch2","","null","<p class=block-text>Trial 37 out of 78</p>","null","pattern_show_trial_num","","","","","","","","","","","","","","","","","","","","","","","","",""
"","","","","","image-keyboard-response","94","233928","0.0-2.0-5.0-1.36","63331d7bd9dcae2e49dff57e","B2","batch2","","4928.300000011921","stim/no_67_1.png","j","pattern_response","true","j","pattern_39","4928.300000011921","true","35","","","","","","","","","","","","","","","","","","",""
"","","","","","html-keyboard-response","95","235251","0.0-2.0-5.0-0.37","63331d7bd9dcae2e49dff57e","B2","batch2","","null","<p class=block-text>Trial 38 out of 78</p>","null","pattern_show_trial_num","","","","","","","","","","","","","","","","","","","","","","","","",""
"","","","","","image-keyboard-response","96","235914","0.0-2.0-5.0-1.37","63331d7bd9dcae2e49dff57e","B2","batch2","","660.5","stim/yes_15_dia_b1u_b.png","f","pattern_response","true","f","pattern_44","660.5","true","36","","","","","","","","","","","","","","","","","","",""
"","","","","","html-keyboard-response","97","237223","0.0-2.0-5.0-0.38","63331d7bd9dcae2e49dff57e","B2","batch2","","null","<p class=block-text>Trial 39 out of 78</p>","null","pattern_show_trial_num","","","","","","","","","","","","","","","","","","","","","","","","",""
"","","","","","image-keyboard-response","98","241433","0.0-2.0-5.0-1.38","63331d7bd9dcae2e49dff57e","B2","batch2","","4207.9000000059605","stim/no_58_1_w.png","j","pattern_response","true","j","pattern_35","4207.9000000059605","true","37","","","","","","","","","","","","","","","","","","",""
"","","","","","image-keyboard-response","99","244432","0.0-2.0-6.0","63331d7bd9dcae2e49dff57e","B2","batch2","","2489.2000000178814","stim/empty_board.png","j","attention_check","true","j","","","","","500","[""f"",""j""]","","","","","","","","","","","","","","","","",""
"","","","","","html-keyboard-response","100","245247","0.0-2.0-7.0-0.0","63331d7bd9dcae2e49dff57e","B2","batch2","","null","<p class=block-text>Trial 40 out of 78</p>","null","pattern_show_trial_num","","","","","","","","","","","","","","","","","","","","","","","","",""
"","","","","","image-keyboard-response","101","249401","0.0-2.0-7.0-1.0","63331d7bd9dcae2e49dff57e","B2","batch2","","4151.5","stim/no_55_1_w.png","j","pattern_response","true","j","pattern_34","4151.5","true","38","","","","","","","","","","","","","","","","","","",""
"","","","","","html-keyboard-response","102","250730","0.0-2.0-7.0-0.1","63331d7bd9dcae2e49dff57e","B2","batch2","","null","<p class=block-text>Trial 41 out of 78</p>","null","pattern_show_trial_num","","","","","","","","","","","","","","","","","","","","","","","","",""
"","","","","","image-keyboard-response","103","251472","0.0-2.0-7.0-1.1","63331d7bd9dcae2e49dff57e","B2","batch2","","739.5999999940395","stim/yes_25_hor_b1_b.png","f","pattern_response","true","f","pattern_49","739.5999999940395","true","39","","","","","","","","","","","","","","","","","","",""
"","","","","","html-keyboard-response","104","252792","0.0-2.0-7.0-0.2","63331d7bd9dcae2e49dff57e","B2","batch2","","null","<p class=block-text>Trial 42 out of 78</p>","null","pattern_show_trial_num","","","","","","","","","","","","","","","","","","","","","","","","",""
"","","","","","image-keyboard-response","105","254576","0.0-2.0-7.0-1.2","63331d7bd9dcae2e49dff57e","B2","batch2","","1781.4000000059605","stim/yes_38_hor_b1_b.png","f","pattern_response","true","f","pattern_61","1781.4000000059605","true","40","","","","","","","","","","","","","","","","","","",""
"","","","","","html-keyboard-response","106","255891","0.0-2.0-7.0-0.3","63331d7bd9dcae2e49dff57e","B2","batch2","","null","<p class=block-text>Trial 43 out of 78</p>","null","pattern_show_trial_num","","","","","","","","","","","","","","","","","","","","","","","","",""
"","","","","","image-keyboard-response","107","258304","0.0-2.0-7.0-1.3","63331d7bd9dcae2e49dff57e","B2","batch2","","2409.7999999821186","stim/yes_55_hor_w1_w.png","f","pattern_response","true","f","pattern_75","2409.7999999821186","true","41","","","","","","","","","","","","","","","","","","",""
"","","","","","html-keyboard-response","108","259627","0.0-2.0-7.0-0.4","63331d7bd9dcae2e49dff57e","B2","batch2","","null","<p class=block-text>Trial 44 out of 78</p>","null","pattern_show_trial_num","","","","","","","","","","","","","","","","","","","","","","","","",""
"","","","","","image-keyboard-response","109","264667","0.0-2.0-7.0-1.4","63331d7bd9dcae2e49dff57e","B2","batch2","","5037.5","stim/yes_50_dia_w1.png","j","pattern_response","false","f","pattern_71","5037.5","false","41","","","","","","","","","","","","","","","","","","",""
"","","","","","html-keyboard-response","110","265981","0.0-2.0-7.0-0.5","63331d7bd9dcae2e49dff57e","B2","batch2","","null","<p class=block-text>Trial 45 out of 78</p>","null","pattern_show_trial_num","","","","","","","","","","","","","","","","","","","","","","","","",""
"","","","","","image-keyboard-response","111","269266","0.0-2.0-7.0-1.5","63331d7bd9dcae2e49dff57e","B2","batch2","","3281.899999976158","stim/yes_37_dia_w1.png","j","pattern_response","false","f","pattern_59","3281.899999976158","false","41","","","","","","","","","","","","","","","","","","",""
"","","","","","html-keyboard-response","112","270578","0.0-2.0-7.0-0.6","63331d7bd9dcae2e49dff57e","B2","batch2","","null","<p class=block-text>Trial 46 out of 78</p>","null","pattern_show_trial_num","","","","","","","","","","","","","","","","","","","","","","","","",""
"","","","","","image-keyboard-response","113","272440","0.0-2.0-7.0-1.6","63331d7bd9dcae2e49dff57e","B2","batch2","","1859.0999999940395","stim/no_20_1_w.png","j","pattern_response","true","j","pattern_06","1859.0999999940395","true","42","","","","","","","","","","","","","","","","","","",""
"","","","","","html-keyboard-response","114","273757","0.0-2.0-7.0-0.7","63331d7bd9dcae2e49dff57e","B2","batch2","","null","<p class=block-text>Trial 47 out of 78</p>","null","pattern_show_trial_num","","","","","","","","","","","","","","","","","","","","","","","","",""
"","","","","","image-keyboard-response","115","278256","0.0-2.0-7.0-1.7","63331d7bd9dcae2e49dff57e","B2","batch2","","4497.700000017881","stim/no_62_1_w.png","j","pattern_response","true","j","pattern_36","4497.700000017881","true","43","","","","","","","","","","","","","","","","","","",""
"","","","","","html-keyboard-response","116","279579","0.0-2.0-7.0-0.8","63331d7bd9dcae2e49dff57e","B2","batch2","","null","<p class=block-text>Trial 48 out of 78</p>","null","pattern_show_trial_num","","","","","","","","","","","","","","","","","","","","","","","","",""
"","","","","","image-keyboard-response","117","281040","0.0-2.0-7.0-1.8","63331d7bd9dcae2e49dff57e","B2","batch2","","1458","stim/yes_48_dia_w1_w.png","f","pattern_response","true","f","pattern_69","1458","true","44","","","","","","","","","","","","","","","","","","",""
"","","","","","html-keyboard-response","118","282362","0.0-2.0-7.0-0.9","63331d7bd9dcae2e49dff57e","B2","batch2","","null","<p class=block-text>Trial 49 out of 78</p>","null","pattern_show_trial_num","","","","","","","","","","","","","","","","","","","","","","","","",""
"","","","","","image-keyboard-response","119","283233","0.0-2.0-7.0-1.9","63331d7bd9dcae2e49dff57e","B2","batch2","","867.5999999940395","stim/yes_60_ver_b1_b.png","f","pattern_response","true","f","pattern_77","867.5999999940395","true","45","","","","","","","","","","","","","","","","","","",""
"","","","","","html-keyboard-response","120","284553","0.0-2.0-7.0-0.10","63331d7bd9dcae2e49dff57e","B2","batch2","","null","<p class=block-text>Trial 50 out of 78</p>","null","pattern_show_trial_num","","","","","","","","","","","","","","","","","","","","","","","","",""
"","","","","","image-keyboard-response","121","286992","0.0-2.0-7.0-1.10","63331d7bd9dcae2e49dff57e","B2","batch2","","2436.699999988079","stim/no_32_1_w.png","j","pattern_response","true","j","pattern_14","2436.699999988079","true","46","","","","","","","","","","","","","","","","","","",""
"","","","","","html-keyboard-response","122","288309","0.0-2.0-7.0-0.11","63331d7bd9dcae2e49dff57e","B2","batch2","","null","<p class=block-text>Trial 51 out of 78</p>","null","pattern_show_trial_num","","","","","","","","","","","","","","","","","","","","","","","","",""
"","","","","","image-keyboard-response","123","291008","0.0-2.0-7.0-1.11","63331d7bd9dcae2e49dff57e","B2","batch2","","2696.699999988079","stim/no_34_1_b.png","j","pattern_response","true","j","pattern_16","2696.699999988079","true","47","","","","","","","","","","","","","","","","","","",""
"","","","","","html-keyboard-response","124","292321","0.0-2.0-7.0-0.12","63331d7bd9dcae2e49dff57e","B2","batch2","","null","<p class=block-text>Trial 52 out of 78</p>","null","pattern_show_trial_num","","","","","","","","","","","","","","","","","","","","","","","","",""
"","","","","","image-keyboard-response","125","293281","0.0-2.0-7.0-1.12","63331d7bd9dcae2e49dff57e","B2","batch2","","957.1999999880791","stim/yes_29_ver_w1.png","f","pattern_response","true","f","pattern_53","957.1999999880791","true","48","","","","","","","","","","","","","","","","","","",""
"","","","","","html-keyboard-response","126","294595","0.0-2.0-7.0-0.13","63331d7bd9dcae2e49dff57e","B2","batch2","","null","<p class=block-text>Trial 53 out of 78</p>","null","pattern_show_trial_num","","","","","","","","","","","","","","","","","","","","","","","","",""
"","","","","","image-keyboard-response","127","298953","0.0-2.0-7.0-1.13","63331d7bd9dcae2e49dff57e","B2","batch2","","4355.5999999940395","stim/no_46_1_b.png","j","pattern_response","true","j","pattern_26","4355.5999999940395","true","49","","","","","","","","","","","","","","","","","","",""
"","","","","","html-keyboard-response","128","300266","0.0-2.0-7.0-0.14","63331d7bd9dcae2e49dff57e","B2","batch2","","null","<p class=block-text>Trial 54 out of 78</p>","null","pattern_show_trial_num","","","","","","","","","","","","","","","","","","","","","","","","",""
"","","","","","image-keyboard-response","129","301130","0.0-2.0-7.0-1.14","63331d7bd9dcae2e49dff57e","B2","batch2","","861.5999999940395","stim/yes_43_ver_w1_w.png","f","pattern_response","true","f","pattern_65","861.5999999940395","true","50","","","","","","","","","","","","","","","","","","",""
"","","","","","html-keyboard-response","130","302446","0.0-2.0-7.0-0.15","63331d7bd9dcae2e49dff57e","B2","batch2","","null","<p class=block-text>Trial 55 out of 78</p>","null","pattern_show_trial_num","","","","","","","","","","","","","","","","","","","","","","","","",""
"","","","","","image-keyboard-response","131","305065","0.0-2.0-7.0-1.15","63331d7bd9dcae2e49dff57e","B2","batch2","","2617.0999999940395","stim/no_38_1_b.png","j","pattern_response","true","j","pattern_20","2617.0999999940395","true","51","","","","","","","","","","","","","","","","","","",""
"","","","","","html-keyboard-response","132","306390","0.0-2.0-7.0-0.16","63331d7bd9dcae2e49dff57e","B2","batch2","","null","<p class=block-text>Trial 56 out of 78</p>","null","pattern_show_trial_num","","","","","","","","","","","","","","","","","","","","","","","","",""
"","","","","","image-keyboard-response","133","307289","0.0-2.0-7.0-1.16","63331d7bd9dcae2e49dff57e","B2","batch2","","895.5","stim/yes_14_hor_b1_w.png","f","pattern_response","true","f","pattern_43","895.5","true","52","","","","","","","","","","","","","","","","","","",""
"","","","","","html-keyboard-response","134","308597","0.0-2.0-7.0-0.17","63331d7bd9dcae2e49dff57e","B2","batch2","","null","<p class=block-text>Trial 57 out of 78</p>","null","pattern_show_trial_num","","","","","","","","","","","","","","","","","","","","","","","","",""
"","","","","","image-keyboard-response","135","311169","0.0-2.0-7.0-1.17","63331d7bd9dcae2e49dff57e","B2","batch2","","2569.800000011921","stim/no_44_1.png","j","pattern_response","true","j","pattern_24","2569.800000011921","true","53","","","","","","","","","","","","","","","","","","",""
"","","","","","html-keyboard-response","136","312484","0.0-2.0-7.0-0.18","63331d7bd9dcae2e49dff57e","B2","batch2","","null","<p class=block-text>Trial 58 out of 78</p>","null","pattern_show_trial_num","","","","","","","","","","","","","","","","","","","","","","","","",""
"","","","","","image-keyboard-response","137","317081","0.0-2.0-7.0-1.18","63331d7bd9dcae2e49dff57e","B2","batch2","","4594.4000000059605","stim/no_70_2.png","j","pattern_response","true","j","pattern_40","4594.4000000059605","true","54","","","","","","","","","","","","","","","","","","",""
"","","","","","html-keyboard-response","138","318395","0.0-2.0-7.0-0.19","63331d7bd9dcae2e49dff57e","B2","batch2","","null","<p class=block-text>Trial 59 out of 78</p>","null","pattern_show_trial_num","","","","","","","","","","","","","","","","","","","","","","","","",""
"","","","","","image-keyboard-response","139","324281","0.0-2.0-7.0-1.19","63331d7bd9dcae2e49dff57e","B2","batch2","","5883.300000011921","stim/no_65_1_b.png","j","pattern_response","true","j","pattern_38","5883.300000011921","true","55","","","","","","","","","","","","","","","","","","",""
"","","","","","html-keyboard-response","140","325600","0.0-2.0-7.0-0.20","63331d7bd9dcae2e49dff57e","B2","batch2","","null","<p class=block-text>Trial 60 out of 78</p>","null","pattern_show_trial_num","","","","","","","","","","","","","","","","","","","","","","","","",""
"","","","","","image-keyboard-response","141","327602","0.0-2.0-7.0-1.20","63331d7bd9dcae2e49dff57e","B2","batch2","","1999.199999988079","stim/yes_40_dia_b1_b.png","j","pattern_response","false","f","pattern_63","1999.199999988079","false","55","","","","","","","","","","","","","","","","","","",""
"","","","","","html-keyboard-response","142","328933","0.0-2.0-7.0-0.21","63331d7bd9dcae2e49dff57e","B2","batch2","","null","<p class=block-text>Trial 61 out of 78</p>","null","pattern_show_trial_num","","","","","","","","","","","","","","","","","","","","","","","","",""
"","","","","","image-keyboard-response","143","330401","0.0-2.0-7.0-1.21","63331d7bd9dcae2e49dff57e","B2","batch2","","1464.7999999821186","stim/yes_31_hor_b1.png","f","pattern_response","true","f","pattern_55","1464.7999999821186","true","56","","","","","","","","","","","","","","","","","","",""
"","","","","","html-keyboard-response","144","331724","0.0-2.0-7.0-0.22","63331d7bd9dcae2e49dff57e","B2","batch2","","null","<p class=block-text>Trial 62 out of 78</p>","null","pattern_show_trial_num","","","","","","","","","","","","","","","","","","","","","","","","",""
"","","","","","image-keyboard-response","145","333337","0.0-2.0-7.0-1.22","63331d7bd9dcae2e49dff57e","B2","batch2","","1611","stim/no_23_1.png","j","pattern_response","true","j","pattern_08","1611","true","57","","","","","","","","","","","","","","","","","","",""
"","","","","","html-keyboard-response","146","334658","0.0-2.0-7.0-0.23","63331d7bd9dcae2e49dff57e","B2","batch2","","null","<p class=block-text>Trial 63 out of 78</p>","null","pattern_show_trial_num","","","","","","","","","","","","","","","","","","","","","","","","",""
"","","","","","image-keyboard-response","147","335970","0.0-2.0-7.0-1.23","63331d7bd9dcae2e49dff57e","B2","batch2","","1310","stim/yes_52_ver_w1.png","f","pattern_response","true","f","pattern_73","1310","true","58","","","","","","","","","","","","","","","","","","",""
"","","","","","html-keyboard-response","148","337280","0.0-2.0-7.0-0.24","63331d7bd9dcae2e49dff57e","B2","batch2","","null","<p class=block-text>Trial 64 out of 78</p>","null","pattern_show_trial_num","","","","","","","","","","","","","","","","","","","","","","","","",""
"","","","","","image-keyboard-response","149","340608","0.0-2.0-7.0-1.24","63331d7bd9dcae2e49dff57e","B2","batch2","","3324.9000000059605","stim/no_48_1_w.png","j","pattern_response","true","j","pattern_28","3324.9000000059605","true","59","","","","","","","","","","","","","","","","","","",""
"","","","","","html-keyboard-response","150","341927","0.0-2.0-7.0-0.25","63331d7bd9dcae2e49dff57e","B2","batch2","","null","<p class=block-text>Trial 65 out of 78</p>","null","pattern_show_trial_num","","","","","","","","","","","","","","","","","","","","","","","","",""
"","","","","","image-keyboard-response","151","345793","0.0-2.0-7.0-1.25","63331d7bd9dcae2e49dff57e","B2","batch2","","3862.800000011921","stim/no_36_2_w.png","j","pattern_response","true","j","pattern_18","3862.800000011921","true","60","","","","","","","","","","","","","","","","","","",""
"","","","","","html-keyboard-response","152","347117","0.0-2.0-7.0-0.26","63331d7bd9dcae2e49dff57e","B2","batch2","","null","<p class=block-text>Trial 66 out of 78</p>","null","pattern_show_trial_num","","","","","","","","","","","","","","","","","","","","","","","","",""
"","","","","","image-keyboard-response","153","350714","0.0-2.0-7.0-1.26","63331d7bd9dcae2e49dff57e","B2","batch2","","3593.800000011921","stim/no_52_1.png","j","pattern_response","true","j","pattern_32","3593.800000011921","true","61","","","","","","","","","","","","","","","","","","",""
"","","","","","html-keyboard-response","154","352035","0.0-2.0-7.0-0.27","63331d7bd9dcae2e49dff57e","B2","batch2","","null","<p class=block-text>Trial 67 out of 78</p>","null","pattern_show_trial_num","","","","","","","","","","","","","","","","","","","","","","","","",""
"","","","","","image-keyboard-response","155","355113","0.0-2.0-7.0-1.27","63331d7bd9dcae2e49dff57e","B2","batch2","","3074.300000011921","stim/no_42_1_w.png","j","pattern_response","true","j","pattern_22","3074.300000011921","true","62","","","","","","","","","","","","","","","","","","",""
"","","","","","html-keyboard-response","156","356436","0.0-2.0-7.0-0.28","63331d7bd9dcae2e49dff57e","B2","batch2","","null","<p class=block-text>Trial 68 out of 78</p>","null","pattern_show_trial_num","","","","","","","","","","","","","","","","","","","","","","","","",""
"","","","","","image-keyboard-response","157","357119","0.0-2.0-7.0-1.28","63331d7bd9dcae2e49dff57e","B2","batch2","","680.2000000178814","stim/yes_22_ver_w1.png","f","pattern_response","true","f","pattern_47","680.2000000178814","true","63","","","","","","","","","","","","","","","","","","",""
"","","","","","html-keyboard-response","158","358442","0.0-2.0-7.0-0.29","63331d7bd9dcae2e49dff57e","B2","batch2","","null","<p class=block-text>Trial 69 out of 78</p>","null","pattern_show_trial_num","","","","","","","","","","","","","","","","","","","","","","","","",""
"","","","","","image-keyboard-response","159","360248","0.0-2.0-7.0-1.29","63331d7bd9dcae2e49dff57e","B2","batch2","","1803.699999988079","stim/no_26_1_w.png","j","pattern_response","true","j","pattern_10","1803.699999988079","true","64","","","","","","","","","","","","","","","","","","",""
"","","","","","html-keyboard-response","160","361572","0.0-2.0-7.0-0.30","63331d7bd9dcae2e49dff57e","B2","batch2","","null","<p class=block-text>Trial 70 out of 78</p>","null","pattern_show_trial_num","","","","","","","","","","","","","","","","","","","","","","","","",""
"","","","","","image-keyboard-response","161","362856","0.0-2.0-7.0-1.30","63331d7bd9dcae2e49dff57e","B2","batch2","","1282.699999988079","stim/no_17_1_w.png","j","pattern_response","true","j","pattern_04","1282.699999988079","true","65","","","","","","","","","","","","","","","","","","",""
"","","","","","html-keyboard-response","162","364176","0.0-2.0-7.0-0.31","63331d7bd9dcae2e49dff57e","B2","batch2","","null","<p class=block-text>Trial 71 out of 78</p>","null","pattern_show_trial_num","","","","","","","","","","","","","","","","","","","","","","","","",""
"","","","","","image-keyboard-response","163","364992","0.0-2.0-7.0-1.31","63331d7bd9dcae2e49dff57e","B2","batch2","","813.2000000178814","stim/yes_28_ver_b1.png","f","pattern_response","true","f","pattern_51","813.2000000178814","true","66","","","","","","","","","","","","","","","","","","",""
"","","","","","html-keyboard-response","164","366315","0.0-2.0-7.0-0.32","63331d7bd9dcae2e49dff57e","B2","batch2","","null","<p class=block-text>Trial 72 out of 78</p>","null","pattern_show_trial_num","","","","","","","","","","","","","","","","","","","","","","","","",""
"","","","","","image-keyboard-response","165","367969","0.0-2.0-7.0-1.32","63331d7bd9dcae2e49dff57e","B2","batch2","","1652.4000000059605","stim/yes_35_dia_b1.png","f","pattern_response","true","f","pattern_57","1652.4000000059605","true","67","","","","","","","","","","","","","","","","","","",""
"","","","","","html-keyboard-response","166","369284","0.0-2.0-7.0-0.33","63331d7bd9dcae2e49dff57e","B2","batch2","","null","<p class=block-text>Trial 73 out of 78</p>","null","pattern_show_trial_num","","","","","","","","","","","","","","","","","","","","","","","","",""
"","","","","","image-keyboard-response","167","370593","0.0-2.0-7.0-1.33","63331d7bd9dcae2e49dff57e","B2","batch2","","1305.7999999821186","stim/yes_45_hor_b2_b.png","f","pattern_response","true","f","pattern_67","1305.7999999821186","true","68","","","","","","","","","","","","","","","","","","",""
"","","","","","html-keyboard-response","168","371918","0.0-2.0-7.0-0.34","63331d7bd9dcae2e49dff57e","B2","batch2","","null","<p class=block-text>Trial 74 out of 78</p>","null","pattern_show_trial_num","","","","","","","","","","","","","","","","","","","","","","","","",""
"","","","","","image-keyboard-response","169","372744","0.0-2.0-7.0-1.34","63331d7bd9dcae2e49dff57e","B2","batch2","","823.7999999821186","stim/yes_17_dia_w1.png","f","pattern_response","true","f","pattern_45","823.7999999821186","true","69","","","","","","","","","","","","","","","","","","",""
"","","","","","html-keyboard-response","170","374053","0.0-2.0-7.0-0.35","63331d7bd9dcae2e49dff57e","B2","batch2","","null","<p class=block-text>Trial 75 out of 78</p>","null","pattern_show_trial_num","","","","","","","","","","","","","","","","","","","","","","","","",""
"","","","","","image-keyboard-response","171","376425","0.0-2.0-7.0-1.35","63331d7bd9dcae2e49dff57e","B2","batch2","","2369.2999999821186","stim/no_29_1_b.png","j","pattern_response","true","j","pattern_12","2369.2999999821186","true","70","","","","","","","","","","","","","","","","","","",""
"","","","","","html-keyboard-response","172","377747","0.0-2.0-7.0-0.36","63331d7bd9dcae2e49dff57e","B2","batch2","","null","<p class=block-text>Trial 76 out of 78</p>","null","pattern_show_trial_num","","","","","","","","","","","","","","","","","","","","","","","","",""
"","","","","","image-keyboard-response","173","380360","0.0-2.0-7.0-1.36","63331d7bd9dcae2e49dff57e","B2","batch2","","2610.5999999940395","stim/yes_67_hor_b1.png","f","pattern_response","true","f","pattern_79","2610.5999999940395","true","71","","","","","","","","","","","","","","","","","","",""
"","","","","","html-keyboard-response","174","381677","0.0-2.0-7.0-0.37","63331d7bd9dcae2e49dff57e","B2","batch2","","null","<p class=block-text>Trial 77 out of 78</p>","null","pattern_show_trial_num","","","","","","","","","","","","","","","","","","","","","","","","",""
"","","","","","image-keyboard-response","175","385160","0.0-2.0-7.0-1.37","63331d7bd9dcae2e49dff57e","B2","batch2","","3480.4000000059605","stim/no_50_1.png","j","pattern_response","true","j","pattern_30","3480.4000000059605","true","72","","","","","","","","","","","","","","","","","","",""
"","","","","","html-keyboard-response","176","386483","0.0-2.0-7.0-0.38","63331d7bd9dcae2e49dff57e","B2","batch2","","null","<p class=block-text>Trial 78 out of 78</p>","null","pattern_show_trial_num","","","","","","","","","","","","","","","","","","","","","","","","",""
"","","","","","image-keyboard-response","177","387433","0.0-2.0-7.0-1.38","63331d7bd9dcae2e49dff57e","B2","batch2","","947.4000000059605","stim/no_13_2_b.png","j","pattern_response","true","j","pattern_02","947.4000000059605","true","73","","","","","","","","","","","","","","","","","","",""
"","","","","","html-button-response","178","391385","0.0-2.0-8.0","63331d7bd9dcae2e49dff57e","B2","batch2","","3446.7000000178814","<p class = block-text>This concludes the 4-in-a-row detection game.Thank you for your responses!<br>
            You responded correctly on 94% of the trials.<br>
            When you are ready, press ""Continue"" button to continue </p>","0","","","","","","","","","","","","","","","","","","","","","","","","","",""
"true","","","","","fullscreen","179","394621","0.0-3.0-0.0","63331d7bd9dcae2e49dff57e","B2","batch2","","","","","spm_fullscreen","","","","","","","","","","","","","","","","","","","","","","","","",""
"","","","","","html-button-response","180","405715","0.0-3.0-1.0","63331d7bd9dcae2e49dff57e","B2","batch2","","11091.90000000596","<p class = block-text><b>Instructions</b> <br>This is a widely used intelligence test in research. <br>In this test, a figure with a missing piece will be presented.<br>Below the figure are alternative pieces to complete the figure, only one of which is correct.<br> Different figures might involve different principles for obtaining the missing piece<br>Your job is to select the most logical piece to complete the figure.</p>","0","","","","","","","","","","","","","","","","","","","","","","","","","",""
"","","","","","html-keyboard-response","181","406516","0.0-3.0-2.0-0.0","63331d7bd9dcae2e49dff57e","B2","batch2","","null","<p class=block-text>Trial 1 out of 60</p>","null","spm_show_trial_num","","","","","","","","","","","","","","","","","","","","","","","","",""
"","","","","","image-button-response","182","418393","0.0-3.0-2.0-1.0","63331d7bd9dcae2e49dff57e","B2","batch2","","11871.799999982119","img/question_1_1.jpeg","3","spm_respsonse","1","4","mat_01","","","","","","1","11871.799999982119","","","","","","","","","","","","","","",""
"","","","","","html-keyboard-response","183","419446","0.0-3.0-2.0-0.1","63331d7bd9dcae2e49dff57e","B2","batch2","","null","<p class=block-text>Trial 2 out of 60</p>","null","spm_show_trial_num","","","","","","","","","","","","","","","","","","","","","","","","",""
"","","","","","image-button-response","184","422041","0.0-3.0-2.0-1.1","63331d7bd9dcae2e49dff57e","B2","batch2","","2592.5999999940395","img/question_1_2.jpeg","4","spm_respsonse","1","5","mat_02","","","","","","1","2592.5999999940395","","","","","","","","","","","","","","",""
"","","","","","html-keyboard-response","185","423105","0.0-3.0-2.0-0.2","63331d7bd9dcae2e49dff57e","B2","batch2","","null","<p class=block-text>Trial 3 out of 60</p>","null","spm_show_trial_num","","","","","","","","","","","","","","","","","","","","","","","","",""
"","","","","","image-button-response","186","427494","0.0-3.0-2.0-1.2","63331d7bd9dcae2e49dff57e","B2","batch2","","4385.699999988079","img/question_1_3.jpeg","0","spm_respsonse","1","1","mat_03","","","","","","1","4385.699999988079","","","","","","","","","","","","","","",""
"","","","","","html-keyboard-response","187","428565","0.0-3.0-2.0-0.3","63331d7bd9dcae2e49dff57e","B2","batch2","","null","<p class=block-text>Trial 4 out of 60</p>","null","spm_show_trial_num","","","","","","","","","","","","","","","","","","","","","","","","",""
"","","","","","image-button-response","188","434294","0.0-3.0-2.0-1.3","63331d7bd9dcae2e49dff57e","B2","batch2","","5726","img/question_1_4.jpeg","1","spm_respsonse","1","2","mat_04","","","","","","1","5726","","","","","","","","","","","","","","",""
"","","","","","html-keyboard-response","189","435366","0.0-3.0-2.0-0.4","63331d7bd9dcae2e49dff57e","B2","batch2","","null","<p class=block-text>Trial 5 out of 60</p>","null","spm_show_trial_num","","","","","","","","","","","","","","","","","","","","","","","","",""
"","","","","","image-button-response","190","441610","0.0-3.0-2.0-1.4","63331d7bd9dcae2e49dff57e","B2","batch2","","6240.600000023842","img/question_1_5.jpeg","5","spm_respsonse","1","6","mat_05","","","","","","1","6240.600000023842","","","","","","","","","","","","","","",""
"","","","","","html-keyboard-response","191","442681","0.0-3.0-2.0-0.5","63331d7bd9dcae2e49dff57e","B2","batch2","","null","<p class=block-text>Trial 6 out of 60</p>","null","spm_show_trial_num","","","","","","","","","","","","","","","","","","","","","","","","",""
"","","","","","image-button-response","192","447646","0.0-3.0-2.0-1.5","63331d7bd9dcae2e49dff57e","B2","batch2","","4963.0999999940395","img/question_1_6.jpeg","2","spm_respsonse","1","3","mat_06","","","","","","1","4963.0999999940395","","","","","","","","","","","","","","",""
"","","","","","html-keyboard-response","193","448724","0.0-3.0-2.0-0.6","63331d7bd9dcae2e49dff57e","B2","batch2","","null","<p class=block-text>Trial 7 out of 60</p>","null","spm_show_trial_num","","","","","","","","","","","","","","","","","","","","","","","","",""
"","","","","","image-button-response","194","453276","0.0-3.0-2.0-1.6","63331d7bd9dcae2e49dff57e","B2","batch2","","4549.5","img/question_1_7.jpeg","5","spm_respsonse","1","6","mat_07","","","","","","1","4549.5","","","","","","","","","","","","","","",""
"","","","","","html-keyboard-response","195","454331","0.0-3.0-2.0-0.7","63331d7bd9dcae2e49dff57e","B2","batch2","","null","<p class=block-text>Trial 8 out of 60</p>","null","spm_show_trial_num","","","","","","","","","","","","","","","","","","","","","","","","",""
"","","","","","image-button-response","196","460252","0.0-3.0-2.0-1.7","63331d7bd9dcae2e49dff57e","B2","batch2","","5918.5999999940395","img/question_1_8.jpeg","1","spm_respsonse","1","2","mat_08","","","","","","1","5918.5999999940395","","","","","","","","","","","","","","",""
"","","","","","html-keyboard-response","197","461317","0.0-3.0-2.0-0.8","63331d7bd9dcae2e49dff57e","B2","batch2","","null","<p class=block-text>Trial 9 out of 60</p>","null","spm_show_trial_num","","","","","","","","","","","","","","","","","","","","","","","","",""
"","","","","","image-button-response","198","465776","0.0-3.0-2.0-1.8","63331d7bd9dcae2e49dff57e","B2","batch2","","4456.800000011921","img/question_1_9.jpeg","0","spm_respsonse","1","1","mat_09","","","","","","1","4456.800000011921","","","","","","","","","","","","","","",""
"","","","","","html-keyboard-response","199","466840","0.0-3.0-2.0-0.9","63331d7bd9dcae2e49dff57e","B2","batch2","","null","<p class=block-text>Trial 10 out of 60</p>","null","spm_show_trial_num","","","","","","","","","","","","","","","","","","","","","","","","",""
"","","","","","image-button-response","200","470618","0.0-3.0-2.0-1.9","63331d7bd9dcae2e49dff57e","B2","batch2","","3774.0999999940395","img/question_1_10.jpeg","2","spm_respsonse","1","3","mat_10","","","","","","1","3774.0999999940395","","","","","","","","","","","","","","",""
"","","","","","html-keyboard-response","201","471687","0.0-3.0-2.0-0.10","63331d7bd9dcae2e49dff57e","B2","batch2","","null","<p class=block-text>Trial 11 out of 60</p>","null","spm_show_trial_num","","","","","","","","","","","","","","","","","","","","","","","","",""
"","","","","","image-button-response","202","479173","0.0-3.0-2.0-1.10","63331d7bd9dcae2e49dff57e","B2","batch2","","7483.9000000059605","img/question_1_11.jpeg","3","spm_respsonse","1","4","mat_11","","","","","","1","7483.9000000059605","","","","","","","","","","","","","","",""
"","","","","","html-keyboard-response","203","480247","0.0-3.0-2.0-0.11","63331d7bd9dcae2e49dff57e","B2","batch2","","null","<p class=block-text>Trial 12 out of 60</p>","null","spm_show_trial_num","","","","","","","","","","","","","","","","","","","","","","","","",""
"","","","","","image-button-response","204","487146","0.0-3.0-2.0-1.11","63331d7bd9dcae2e49dff57e","B2","batch2","","6895.0999999940395","img/question_1_12.jpeg","0","spm_respsonse","0","5","mat_12","","","","","","0","6895.0999999940395","","","","","","","","","","","","","","",""
"","","","","","html-keyboard-response","205","488200","0.0-3.0-2.0-0.12","63331d7bd9dcae2e49dff57e","B2","batch2","","null","<p class=block-text>Trial 13 out of 60</p>","null","spm_show_trial_num","","","","","","","","","","","","","","","","","","","","","","","","",""
"","","","","","image-button-response","206","491630","0.0-3.0-2.0-1.12","63331d7bd9dcae2e49dff57e","B2","batch2","","3425.800000011921","img/question_2_1.jpeg","1","spm_respsonse","1","2","mat_13","","","","","","1","3425.800000011921","","","","","","","","","","","","","","",""
"","","","","","html-keyboard-response","207","492696","0.0-3.0-2.0-0.13","63331d7bd9dcae2e49dff57e","B2","batch2","","null","<p class=block-text>Trial 14 out of 60</p>","null","spm_show_trial_num","","","","","","","","","","","","","","","","","","","","","","","","",""
"","","","","","image-button-response","208","498476","0.0-3.0-2.0-1.13","63331d7bd9dcae2e49dff57e","B2","batch2","","5776.4000000059605","img/question_2_2.jpeg","2","spm_respsonse","0","6","mat_14","","","","","","0","5776.4000000059605","","","","","","","","","","","","","","",""
"","","","","","html-keyboard-response","209","499554","0.0-3.0-2.0-0.14","63331d7bd9dcae2e49dff57e","B2","batch2","","null","<p class=block-text>Trial 15 out of 60</p>","null","spm_show_trial_num","","","","","","","","","","","","","","","","","","","","","","","","",""
"","","","","","image-button-response","210","502020","0.0-3.0-2.0-1.14","63331d7bd9dcae2e49dff57e","B2","batch2","","2462.699999988079","img/question_2_3.jpeg","0","spm_respsonse","1","1","mat_15","","","","","","1","2462.699999988079","","","","","","","","","","","","","","",""
"","","","","","html-keyboard-response","211","503086","0.0-3.0-2.0-0.15","63331d7bd9dcae2e49dff57e","B2","batch2","","null","<p class=block-text>Trial 16 out of 60</p>","null","spm_show_trial_num","","","","","","","","","","","","","","","","","","","","","","","","",""
"","","","","","image-button-response","212","508008","0.0-3.0-2.0-1.15","63331d7bd9dcae2e49dff57e","B2","batch2","","4919.700000017881","img/question_2_4.jpeg","1","spm_respsonse","1","2","mat_16","","","","","","1","4919.700000017881","","","","","","","","","","","","","","",""
"","","","","","html-keyboard-response","213","509069","0.0-3.0-2.0-0.16","63331d7bd9dcae2e49dff57e","B2","batch2","","null","<p class=block-text>Trial 17 out of 60</p>","null","spm_show_trial_num","","","","","","","","","","","","","","","","","","","","","","","","",""
"","","","","","image-button-response","214","512814","0.0-3.0-2.0-1.16","63331d7bd9dcae2e49dff57e","B2","batch2","","3741.800000011921","img/question_2_5.jpeg","0","spm_respsonse","1","1","mat_17","","","","","","1","3741.800000011921","","","","","","","","","","","","","","",""
"","","","","","html-keyboard-response","215","513878","0.0-3.0-2.0-0.17","63331d7bd9dcae2e49dff57e","B2","batch2","","null","<p class=block-text>Trial 18 out of 60</p>","null","spm_show_trial_num","","","","","","","","","","","","","","","","","","","","","","","","",""
"","","","","","image-button-response","216","519500","0.0-3.0-2.0-1.17","63331d7bd9dcae2e49dff57e","B2","batch2","","5618.800000011921","img/question_2_6.jpeg","2","spm_respsonse","1","3","mat_18","","","","","","1","5618.800000011921","","","","","","","","","","","","","","",""
"","","","","","html-keyboard-response","217","520575","0.0-3.0-2.0-0.18","63331d7bd9dcae2e49dff57e","B2","batch2","","null","<p class=block-text>Trial 19 out of 60</p>","null","spm_show_trial_num","","","","","","","","","","","","","","","","","","","","","","","","",""
"","","","","","image-button-response","218","524898","0.0-3.0-2.0-1.18","63331d7bd9dcae2e49dff57e","B2","batch2","","4319.0999999940395","img/question_2_7.jpeg","5","spm_respsonse","0","5","mat_19","","","","","","0","4319.0999999940395","","","","","","","","","","","","","","",""
"","","","","","html-keyboard-response","219","525956","0.0-3.0-2.0-0.19","63331d7bd9dcae2e49dff57e","B2","batch2","","null","<p class=block-text>Trial 20 out of 60</p>","null","spm_show_trial_num","","","","","","","","","","","","","","","","","","","","","","","","",""
"","","","","","image-button-response","220","531670","0.0-3.0-2.0-1.19","63331d7bd9dcae2e49dff57e","B2","batch2","","5711.800000011921","img/question_2_8.jpeg","5","spm_respsonse","1","6","mat_20","","","","","","1","5711.800000011921","","","","","","","","","","","","","","",""
"","","","","","html-keyboard-response","221","532731","0.0-3.0-2.0-0.20","63331d7bd9dcae2e49dff57e","B2","batch2","","null","<p class=block-text>Trial 21 out of 60</p>","null","spm_show_trial_num","","","","","","","","","","","","","","","","","","","","","","","","",""
"","","","","","image-button-response","222","536658","0.0-3.0-2.0-1.20","63331d7bd9dcae2e49dff57e","B2","batch2","","3922.399999976158","img/question_2_9.jpeg","3","spm_respsonse","1","4","mat_21","","","","","","1","3922.399999976158","","","","","","","","","","","","","","",""
"","","","","","html-keyboard-response","223","537726","0.0-3.0-2.0-0.21","63331d7bd9dcae2e49dff57e","B2","batch2","","null","<p class=block-text>Trial 22 out of 60</p>","null","spm_show_trial_num","","","","","","","","","","","","","","","","","","","","","","","","",""
"","","","","","image-button-response","224","543840","0.0-3.0-2.0-1.21","63331d7bd9dcae2e49dff57e","B2","batch2","","6110.200000017881","img/question_2_10.jpeg","2","spm_respsonse","1","3","mat_22","","","","","","1","6110.200000017881","","","","","","","","","","","","","","",""
"","","","","","html-keyboard-response","225","544891","0.0-3.0-2.0-0.22","63331d7bd9dcae2e49dff57e","B2","batch2","","null","<p class=block-text>Trial 23 out of 60</p>","null","spm_show_trial_num","","","","","","","","","","","","","","","","","","","","","","","","",""
"","","","","","image-button-response","226","553686","0.0-3.0-2.0-1.22","63331d7bd9dcae2e49dff57e","B2","batch2","","8790.90000000596","img/question_2_11.jpeg","3","spm_respsonse","1","4","mat_23","","","","","","1","8790.90000000596","","","","","","","","","","","","","","",""
"","","","","","html-keyboard-response","227","554751","0.0-3.0-2.0-0.23","63331d7bd9dcae2e49dff57e","B2","batch2","","null","<p class=block-text>Trial 24 out of 60</p>","null","spm_show_trial_num","","","","","","","","","","","","","","","","","","","","","","","","",""
"","","","","","image-button-response","228","559983","0.0-3.0-2.0-1.23","63331d7bd9dcae2e49dff57e","B2","batch2","","5229.399999976158","img/question_2_12.jpeg","5","spm_respsonse","0","5","mat_24","","","","","","0","5229.399999976158","","","","","","","","","","","","","","",""
"","","","","","html-button-response","229","561896","0.0-3.0-3.0","63331d7bd9dcae2e49dff57e","B2","batch2","","1655.5","<p class = block-text>Attention check: Please choose 1<br></p>","0","attention_check","true","","","","","","","","","","","","","","","","","","","","","","","",""
"","","","","","html-keyboard-response","230","562697","0.0-3.0-4.0-0.0","63331d7bd9dcae2e49dff57e","B2","batch2","","null","<p class=block-text>Trial 25 out of 60</p>","null","spm_show_trial_num","","","","","","","","","","","","","","","","","","","","","","","","",""
"","","","","","image-button-response","231","567802","0.0-3.0-4.0-1.0","63331d7bd9dcae2e49dff57e","B2","batch2","","5103.0999999940395","img/question_3_1.jpeg","7","spm_respsonse","1","8","mat_25","","","","","","1","5103.0999999940395","","","","","","","","","","","","","","",""
"","","","","","html-keyboard-response","232","568858","0.0-3.0-4.0-0.1","63331d7bd9dcae2e49dff57e","B2","batch2","","null","<p class=block-text>Trial 26 out of 60</p>","null","spm_show_trial_num","","","","","","","","","","","","","","","","","","","","","","","","",""
"","","","","","image-button-response","233","573750","0.0-3.0-4.0-1.1","63331d7bd9dcae2e49dff57e","B2","batch2","","4890","img/question_3_2.jpeg","1","spm_respsonse","1","2","mat_26","","","","","","1","4890","","","","","","","","","","","","","","",""
"","","","","","html-keyboard-response","234","574816","0.0-3.0-4.0-0.2","63331d7bd9dcae2e49dff57e","B2","batch2","","null","<p class=block-text>Trial 27 out of 60</p>","null","spm_show_trial_num","","","","","","","","","","","","","","","","","","","","","","","","",""
"","","","","","image-button-response","235","582228","0.0-3.0-4.0-1.2","63331d7bd9dcae2e49dff57e","B2","batch2","","7408.200000017881","img/question_3_3.jpeg","2","spm_respsonse","1","3","mat_27","","","","","","1","7408.200000017881","","","","","","","","","","","","","","",""
"","","","","","html-keyboard-response","236","583280","0.0-3.0-4.0-0.3","63331d7bd9dcae2e49dff57e","B2","batch2","","null","<p class=block-text>Trial 28 out of 60</p>","null","spm_show_trial_num","","","","","","","","","","","","","","","","","","","","","","","","",""
"","","","","","image-button-response","237","594277","0.0-3.0-4.0-1.3","63331d7bd9dcae2e49dff57e","B2","batch2","","10993.200000017881","img/question_3_4.jpeg","7","spm_respsonse","1","8","mat_28","","","","","","1","10993.200000017881","","","","","","","","","","","","","","",""
"","","","","","html-keyboard-response","238","595334","0.0-3.0-4.0-0.4","63331d7bd9dcae2e49dff57e","B2","batch2","","null","<p class=block-text>Trial 29 out of 60</p>","null","spm_show_trial_num","","","","","","","","","","","","","","","","","","","","","","","","",""
"","","","","","image-button-response","239","603240","0.0-3.0-4.0-1.4","63331d7bd9dcae2e49dff57e","B2","batch2","","7902","img/question_3_5.jpeg","6","spm_respsonse","1","7","mat_29","","","","","","1","7902","","","","","","","","","","","","","","",""
"","","","","","html-keyboard-response","240","604305","0.0-3.0-4.0-0.5","63331d7bd9dcae2e49dff57e","B2","batch2","","null","<p class=block-text>Trial 30 out of 60</p>","null","spm_show_trial_num","","","","","","","","","","","","","","","","","","","","","","","","",""
"","","","","","image-button-response","241","608997","0.0-3.0-4.0-1.5","63331d7bd9dcae2e49dff57e","B2","batch2","","4690.699999988079","img/question_3_6.jpeg","3","spm_respsonse","1","4","mat_30","","","","","","1","4690.699999988079","","","","","","","","","","","","","","",""
"","","","","","html-keyboard-response","242","610070","0.0-3.0-4.0-0.6","63331d7bd9dcae2e49dff57e","B2","batch2","","null","<p class=block-text>Trial 31 out of 60</p>","null","spm_show_trial_num","","","","","","","","","","","","","","","","","","","","","","","","",""
"","","","","","image-button-response","243","615745","0.0-3.0-4.0-1.6","63331d7bd9dcae2e49dff57e","B2","batch2","","5672.4000000059605","img/question_3_7.jpeg","4","spm_respsonse","1","5","mat_31","","","","","","1","5672.4000000059605","","","","","","","","","","","","","","",""
"","","","","","html-keyboard-response","244","616798","0.0-3.0-4.0-0.7","63331d7bd9dcae2e49dff57e","B2","batch2","","null","<p class=block-text>Trial 32 out of 60</p>","null","spm_show_trial_num","","","","","","","","","","","","","","","","","","","","","","","","",""
"","","","","","image-button-response","245","621869","0.0-3.0-4.0-1.7","63331d7bd9dcae2e49dff57e","B2","batch2","","5067.9000000059605","img/question_3_8.jpeg","0","spm_respsonse","1","1","mat_32","","","","","","1","5067.9000000059605","","","","","","","","","","","","","","",""
"","","","","","html-keyboard-response","246","622921","0.0-3.0-4.0-0.8","63331d7bd9dcae2e49dff57e","B2","batch2","","null","<p class=block-text>Trial 33 out of 60</p>","null","spm_show_trial_num","","","","","","","","","","","","","","","","","","","","","","","","",""
"","","","","","image-button-response","247","630145","0.0-3.0-4.0-1.8","63331d7bd9dcae2e49dff57e","B2","batch2","","7223","img/question_3_9.jpeg","6","spm_respsonse","1","7","mat_33","","","","","","1","7223","","","","","","","","","","","","","","",""
"","","","","","html-keyboard-response","248","631198","0.0-3.0-4.0-0.9","63331d7bd9dcae2e49dff57e","B2","batch2","","null","<p class=block-text>Trial 34 out of 60</p>","null","spm_show_trial_num","","","","","","","","","","","","","","","","","","","","","","","","",""
"","","","","","image-button-response","249","642899","0.0-3.0-4.0-1.9","63331d7bd9dcae2e49dff57e","B2","batch2","","11699.199999988079","img/question_3_10.jpeg","5","spm_respsonse","1","6","mat_34","","","","","","1","11699.199999988079","","","","","","","","","","","","","","",""
"","","","","","html-keyboard-response","250","643952","0.0-3.0-4.0-0.10","63331d7bd9dcae2e49dff57e","B2","batch2","","null","<p class=block-text>Trial 35 out of 60</p>","null","spm_show_trial_num","","","","","","","","","","","","","","","","","","","","","","","","",""
"","","","","","image-button-response","251","674138","0.0-3.0-4.0-1.10","63331d7bd9dcae2e49dff57e","B2","batch2","","30181.20000001788","img/question_3_11.jpeg","5","spm_respsonse","0","1","mat_35","","","","","","0","30181.20000001788","","","","","","","","","","","","","","",""
"","","","","","html-keyboard-response","252","675190","0.0-3.0-4.0-0.11","63331d7bd9dcae2e49dff57e","B2","batch2","","null","<p class=block-text>Trial 36 out of 60</p>","null","spm_show_trial_num","","","","","","","","","","","","","","","","","","","","","","","","",""
"","","","","","image-button-response","253","720300","0.0-3.0-4.0-1.11","63331d7bd9dcae2e49dff57e","B2","batch2","","45107.30000001192","img/question_3_12.jpeg","1","spm_respsonse","1","2","mat_36","","","","","","1","45107.30000001192","","","","","","","","","","","","","","",""
"","","","","","html-keyboard-response","254","721360","0.0-3.0-4.0-0.12","63331d7bd9dcae2e49dff57e","B2","batch2","","null","<p class=block-text>Trial 37 out of 60</p>","null","spm_show_trial_num","","","","","","","","","","","","","","","","","","","","","","","","",""
"","","","","","image-button-response","255","725716","0.0-3.0-4.0-1.12","63331d7bd9dcae2e49dff57e","B2","batch2","","4351.4000000059605","img/question_4_1.jpeg","2","spm_respsonse","1","3","mat_37","","","","","","1","4351.4000000059605","","","","","","","","","","","","","","",""
"","","","","","html-keyboard-response","256","726767","0.0-3.0-4.0-0.13","63331d7bd9dcae2e49dff57e","B2","batch2","","null","<p class=block-text>Trial 38 out of 60</p>","null","spm_show_trial_num","","","","","","","","","","","","","","","","","","","","","","","","",""
"","","","","","image-button-response","257","743762","0.0-3.0-4.0-1.13","63331d7bd9dcae2e49dff57e","B2","batch2","","16990.59999999404","img/question_4_2.jpeg","3","spm_respsonse","1","4","mat_38","","","","","","1","16990.59999999404","","","","","","","","","","","","","","",""
"","","","","","html-keyboard-response","258","744814","0.0-3.0-4.0-0.14","63331d7bd9dcae2e49dff57e","B2","batch2","","null","<p class=block-text>Trial 39 out of 60</p>","null","spm_show_trial_num","","","","","","","","","","","","","","","","","","","","","","","","",""
"","","","","","image-button-response","259","754238","0.0-3.0-4.0-1.14","63331d7bd9dcae2e49dff57e","B2","batch2","","9420.300000011921","img/question_4_3.jpeg","2","spm_respsonse","1","3","mat_39","","","","","","1","9420.300000011921","","","","","","","","","","","","","","",""
"","","","","","html-keyboard-response","260","755291","0.0-3.0-4.0-0.15","63331d7bd9dcae2e49dff57e","B2","batch2","","null","<p class=block-text>Trial 40 out of 60</p>","null","spm_show_trial_num","","","","","","","","","","","","","","","","","","","","","","","","",""
"","","","","","image-button-response","261","763338","0.0-3.0-4.0-1.15","63331d7bd9dcae2e49dff57e","B2","batch2","","8044.600000023842","img/question_4_4.jpeg","6","spm_respsonse","1","7","mat_40","","","","","","1","8044.600000023842","","","","","","","","","","","","","","",""
"","","","","","html-keyboard-response","262","764401","0.0-3.0-4.0-0.16","63331d7bd9dcae2e49dff57e","B2","batch2","","null","<p class=block-text>Trial 41 out of 60</p>","null","spm_show_trial_num","","","","","","","","","","","","","","","","","","","","","","","","",""
"","","","","","image-button-response","263","772757","0.0-3.0-4.0-1.16","63331d7bd9dcae2e49dff57e","B2","batch2","","8352.5","img/question_4_5.jpeg","7","spm_respsonse","1","8","mat_41","","","","","","1","8352.5","","","","","","","","","","","","","","",""
"","","","","","html-keyboard-response","264","773812","0.0-3.0-4.0-0.17","63331d7bd9dcae2e49dff57e","B2","batch2","","null","<p class=block-text>Trial 42 out of 60</p>","null","spm_show_trial_num","","","","","","","","","","","","","","","","","","","","","","","","",""
"","","","","","image-button-response","265","811236","0.0-3.0-4.0-1.17","63331d7bd9dcae2e49dff57e","B2","batch2","","37421.30000001192","img/question_4_6.jpeg","5","spm_respsonse","1","6","mat_42","","","","","","1","37421.30000001192","","","","","","","","","","","","","","",""
"","","","","","html-keyboard-response","266","812292","0.0-3.0-4.0-0.18","63331d7bd9dcae2e49dff57e","B2","batch2","","null","<p class=block-text>Trial 43 out of 60</p>","null","spm_show_trial_num","","","","","","","","","","","","","","","","","","","","","","","","",""
"","","","","","image-button-response","267","833175","0.0-3.0-4.0-1.18","63331d7bd9dcae2e49dff57e","B2","batch2","","20879.09999999404","img/question_4_7.jpeg","4","spm_respsonse","1","5","mat_43","","","","","","1","20879.09999999404","","","","","","","","","","","","","","",""
"","","","","","html-keyboard-response","268","834248","0.0-3.0-4.0-0.19","63331d7bd9dcae2e49dff57e","B2","batch2","","null","<p class=block-text>Trial 44 out of 60</p>","null","spm_show_trial_num","","","","","","","","","","","","","","","","","","","","","","","","",""
"","","","","","image-button-response","269","868174","0.0-3.0-4.0-1.19","63331d7bd9dcae2e49dff57e","B2","batch2","","33922","img/question_4_8.jpeg","3","spm_respsonse","1","4","mat_44","","","","","","1","33922","","","","","","","","","","","","","","",""
"","","","","","html-keyboard-response","270","869228","0.0-3.0-4.0-0.20","63331d7bd9dcae2e49dff57e","B2","batch2","","null","<p class=block-text>Trial 45 out of 60</p>","null","spm_show_trial_num","","","","","","","","","","","","","","","","","","","","","","","","",""
"","","","","","image-button-response","271","918617","0.0-3.0-4.0-1.20","63331d7bd9dcae2e49dff57e","B2","batch2","","49387.80000001192","img/question_4_9.jpeg","0","spm_respsonse","1","1","mat_45","","","","","","1","49387.80000001192","","","","","","","","","","","","","","",""
"","","","","","html-keyboard-response","272","919670","0.0-3.0-4.0-0.21","63331d7bd9dcae2e49dff57e","B2","batch2","","null","<p class=block-text>Trial 46 out of 60</p>","null","spm_show_trial_num","","","","","","","","","","","","","","","","","","","","","","","","",""
"","","","","","image-button-response","273","943787","0.0-3.0-4.0-1.21","63331d7bd9dcae2e49dff57e","B2","batch2","","24114.5","img/question_4_10.jpeg","1","spm_respsonse","1","2","mat_46","","","","","","1","24114.5","","","","","","","","","","","","","","",""
"","","","","","html-keyboard-response","274","944840","0.0-3.0-4.0-0.22","63331d7bd9dcae2e49dff57e","B2","batch2","","null","<p class=block-text>Trial 47 out of 60</p>","null","spm_show_trial_num","","","","","","","","","","","","","","","","","","","","","","","","",""
"","","","","","image-button-response","275","953603","0.0-3.0-4.0-1.22","63331d7bd9dcae2e49dff57e","B2","batch2","","8759.300000011921","img/question_4_11.jpeg","4","spm_respsonse","1","5","mat_47","","","","","","1","8759.300000011921","","","","","","","","","","","","","","",""
"","","","","","html-keyboard-response","276","954657","0.0-3.0-4.0-0.23","63331d7bd9dcae2e49dff57e","B2","batch2","","null","<p class=block-text>Trial 48 out of 60</p>","null","spm_show_trial_num","","","","","","","","","","","","","","","","","","","","","","","","",""
"","","","","","image-button-response","277","977066","0.0-3.0-4.0-1.23","63331d7bd9dcae2e49dff57e","B2","batch2","","22406.30000001192","img/question_4_12.jpeg","6","spm_respsonse","0","6","mat_48","","","","","","0","22406.30000001192","","","","","","","","","","","","","","",""
"","","","","","html-keyboard-response","278","978123","0.0-3.0-4.0-0.24","63331d7bd9dcae2e49dff57e","B2","batch2","","null","<p class=block-text>Trial 49 out of 60</p>","null","spm_show_trial_num","","","","","","","","","","","","","","","","","","","","","","","","",""
"","","","","","image-button-response","279","987820","0.0-3.0-4.0-1.24","63331d7bd9dcae2e49dff57e","B2","batch2","","9694.199999988079","img/question_5_1.jpeg","6","spm_respsonse","1","7","mat_49","","","","","","1","9694.199999988079","","","","","","","","","","","","","","",""
"","","","","","html-keyboard-response","280","988871","0.0-3.0-4.0-0.25","63331d7bd9dcae2e49dff57e","B2","batch2","","null","<p class=block-text>Trial 50 out of 60</p>","null","spm_show_trial_num","","","","","","","","","","","","","","","","","","","","","","","","",""
"","","","","","image-button-response","281","1037810","0.0-3.0-4.0-1.25","63331d7bd9dcae2e49dff57e","B2","batch2","","48935.20000001788","img/question_5_2.jpeg","5","spm_respsonse","1","6","mat_50","","","","","","1","48935.20000001788","","","","","","","","","","","","","","",""
"","","","","","html-keyboard-response","282","1038863","0.0-3.0-4.0-0.26","63331d7bd9dcae2e49dff57e","B2","batch2","","null","<p class=block-text>Trial 51 out of 60</p>","null","spm_show_trial_num","","","","","","","","","","","","","","","","","","","","","","","","",""
"","","","","","image-button-response","283","1058391","0.0-3.0-4.0-1.26","63331d7bd9dcae2e49dff57e","B2","batch2","","19525.5","img/question_5_3.jpeg","7","spm_respsonse","1","8","mat_51","","","","","","1","19525.5","","","","","","","","","","","","","","",""
"","","","","","html-keyboard-response","284","1059447","0.0-3.0-4.0-0.27","63331d7bd9dcae2e49dff57e","B2","batch2","","null","<p class=block-text>Trial 52 out of 60</p>","null","spm_show_trial_num","","","","","","","","","","","","","","","","","","","","","","","","",""
"","","","","","image-button-response","285","1095530","0.0-3.0-4.0-1.27","63331d7bd9dcae2e49dff57e","B2","batch2","","36081.60000002384","img/question_5_4.jpeg","1","spm_respsonse","1","2","mat_52","","","","","","1","36081.60000002384","","","","","","","","","","","","","","",""
"","","","","","html-keyboard-response","286","1096598","0.0-3.0-4.0-0.28","63331d7bd9dcae2e49dff57e","B2","batch2","","null","<p class=block-text>Trial 53 out of 60</p>","null","spm_show_trial_num","","","","","","","","","","","","","","","","","","","","","","","","",""
"","","","","","image-button-response","287","1134748","0.0-3.0-4.0-1.28","63331d7bd9dcae2e49dff57e","B2","batch2","","38147.70000001788","img/question_5_5.jpeg","1","spm_respsonse","0","1","mat_53","","","","","","0","38147.70000001788","","","","","","","","","","","","","","",""
"","","","","","html-keyboard-response","288","1135801","0.0-3.0-4.0-0.29","63331d7bd9dcae2e49dff57e","B2","batch2","","null","<p class=block-text>Trial 54 out of 60</p>","null","spm_show_trial_num","","","","","","","","","","","","","","","","","","","","","","","","",""
"","","","","","image-button-response","289","1173026","0.0-3.0-4.0-1.29","63331d7bd9dcae2e49dff57e","B2","batch2","","37221.40000000596","img/question_5_6.jpeg","4","spm_respsonse","1","5","mat_54","","","","","","1","37221.40000000596","","","","","","","","","","","","","","",""
"","","","","","html-keyboard-response","290","1174088","0.0-3.0-4.0-0.30","63331d7bd9dcae2e49dff57e","B2","batch2","","null","<p class=block-text>Trial 55 out of 60</p>","null","spm_show_trial_num","","","","","","","","","","","","","","","","","","","","","","","","",""
"","","","","","image-button-response","291","1209118","0.0-3.0-4.0-1.30","63331d7bd9dcae2e49dff57e","B2","batch2","","35027.40000000596","img/question_5_7.jpeg","0","spm_respsonse","1","1","mat_55","","","","","","1","35027.40000000596","","","","","","","","","","","","","","",""
"","","","","","html-keyboard-response","292","1210170","0.0-3.0-4.0-0.31","63331d7bd9dcae2e49dff57e","B2","batch2","","null","<p class=block-text>Trial 56 out of 60</p>","null","spm_show_trial_num","","","","","","","","","","","","","","","","","","","","","","","","",""
"","","","","","image-button-response","293","1249848","0.0-3.0-4.0-1.31","63331d7bd9dcae2e49dff57e","B2","batch2","","39676.30000001192","img/question_5_8.jpeg","5","spm_respsonse","1","6","mat_56","","","","","","1","39676.30000001192","","","","","","","","","","","","","","",""
"","","","","","html-keyboard-response","294","1250905","0.0-3.0-4.0-0.32","63331d7bd9dcae2e49dff57e","B2","batch2","","null","<p class=block-text>Trial 57 out of 60</p>","null","spm_show_trial_num","","","","","","","","","","","","","","","","","","","","","","","","",""
"","","","","","image-button-response","295","1265884","0.0-3.0-4.0-1.32","63331d7bd9dcae2e49dff57e","B2","batch2","","14975.199999988079","img/question_5_9.jpeg","2","spm_respsonse","1","3","mat_57","","","","","","1","14975.199999988079","","","","","","","","","","","","","","",""
"","","","","","html-keyboard-response","296","1266936","0.0-3.0-4.0-0.33","63331d7bd9dcae2e49dff57e","B2","batch2","","null","<p class=block-text>Trial 58 out of 60</p>","null","spm_show_trial_num","","","","","","","","","","","","","","","","","","","","","","","","",""
"","","","","","image-button-response","297","1303124","0.0-3.0-4.0-1.33","63331d7bd9dcae2e49dff57e","B2","batch2","","36185","img/question_5_10.jpeg","4","spm_respsonse","0","2","mat_58","","","","","","0","36185","","","","","","","","","","","","","","",""
"","","","","","html-keyboard-response","298","1304176","0.0-3.0-4.0-0.34","63331d7bd9dcae2e49dff57e","B2","batch2","","null","<p class=block-text>Trial 59 out of 60</p>","null","spm_show_trial_num","","","","","","","","","","","","","","","","","","","","","","","","",""
"","","","","","image-button-response","299","1356009","0.0-3.0-4.0-1.34","63331d7bd9dcae2e49dff57e","B2","batch2","","51829.79999998212","img/question_5_11.jpeg","6","spm_respsonse","0","4","mat_59","","","","","","0","51829.79999998212","","","","","","","","","","","","","","",""
"","","","","","html-keyboard-response","300","1357072","0.0-3.0-4.0-0.35","63331d7bd9dcae2e49dff57e","B2","batch2","","null","<p class=block-text>Trial 60 out of 60</p>","null","spm_show_trial_num","","","","","","","","","","","","","","","","","","","","","","","","",""
"","","","","","image-button-response","301","1393224","0.0-3.0-4.0-1.35","63331d7bd9dcae2e49dff57e","B2","batch2","","36149.40000000596","img/question_5_12.jpeg","4","spm_respsonse","1","5","mat_60","","","","","","1","36149.40000000596","","","","","","","","","","","","","","",""
"","","","","","html-button-response","302","1395957","0.0-3.0-5.0","63331d7bd9dcae2e49dff57e","B2","batch2","","2479","<p class= block-text>This concludes the Standard Progressive Matrix game. Thank you for your responses!<br> When you are ready, click the button continue</p>","0","spm_goodbye","","","","","","","","","","","","","","","","","","","","","","","","",""
"true","","","","","fullscreen","303","1398087","0.0-4.0-0.0","63331d7bd9dcae2e49dff57e","B2","batch2","","","","","","","","","","","","","","","","","","","","","","","","","","","","","",""
"","","","","","instructions","304","1446046","0.0-4.0-1.0-0.0-0.0","63331d7bd9dcae2e49dff57e","B2","batch2","[{""page_index"":0,""viewing_time"":11935.5},{""page_index"":1,""viewing_time"":7613.9000000059605},{""page_index"":2,""viewing_time"":2858},{""page_index"":3,""viewing_time"":9174},{""page_index"":4,""viewing_time"":5088.0999999940395},{""page_index"":5,""viewing_time"":9022},{""page_index"":6,""viewing_time"":2265.9000000059605}]","47957.59999999404","","","tol-instructions","","","","","","","","","","","","","","","","","","","","","","","","",""
"","","","","","html-button-response","305","1446842","0.0-4.0-1.0-1.0-0.0","63331d7bd9dcae2e49dff57e","B2","batch2","","795.8000000119209","<p class=block-text> Let's answer a few questions <br>","0","tol_enter_quiz","","","","","","","","","","","","","","","","","","","","","","","","",""
"","","","","","html-button-response","306","1451846","0.0-4.0-1.0-1.0-1.0","63331d7bd9dcae2e49dff57e","B2","batch2","","5002.5999999940395","<p class = block-text>True or False: You can only move the ball on top of a peg. <br></p>","1","tol_quiz","false","","","","","","","","","","","","","","","","","","","","","","","",""
"","","","","","html-button-response","307","1454336","0.0-4.0-1.0-1.0-2.0","63331d7bd9dcae2e49dff57e","B2","batch2","","2488.9000000059605","<p class = block-text>Incorrect. Remember, you can only move the ball on top of a peg.</p>","0","tol_quiz_feedback","","","","","","","","","","","","","","","","","","","","","","","","",""
"","","","","","html-button-response","308","1457168","0.0-4.0-1.0-1.0-3.0","63331d7bd9dcae2e49dff57e","B2","batch2","","2831","<p class = block-text>True or False: You should try to match your board with the target board with fewest moves possible. <br></p>","0","tol_quiz","true","","","","","","","","","","","","","","","","","","","","","","","",""
"","","","","","html-button-response","309","1457790","0.0-4.0-1.0-1.0-4.0","63331d7bd9dcae2e49dff57e","B2","batch2","","621.3000000119209","<p class = block-text>Correct! </p>","0","tol_quiz_feedback","","","","","","","","","","","","","","","","","","","","","","","","",""
"","","","","","html-button-response","310","1460166","0.0-4.0-1.0-2.0-0.0","63331d7bd9dcae2e49dff57e","B2","batch2","","2375","<p class = block-text>You made too many incorrect choices.</p><p class = block-text>You will now repeat the instructions and quiz</p>","0","","","","","","","","","","","","","","","","","","","","","","","","","",""
"","","","","","instructions","311","1466616","0.0-4.0-1.1-0.1-0.1","63331d7bd9dcae2e49dff57e","B2","batch2","[{""page_index"":0,""viewing_time"":945},{""page_index"":1,""viewing_time"":435.90000000596046},{""page_index"":2,""viewing_time"":218.39999997615814},{""page_index"":3,""viewing_time"":233.90000000596046},{""page_index"":4,""viewing_time"":447.80000001192093},{""page_index"":5,""viewing_time"":542},{""page_index"":6,""viewing_time"":3626.0999999940395}]","6449.199999988079","","","tol-instructions","","","","","","","","","","","","","","","","","","","","","","","","",""
"","","","","","html-button-response","312","1467412","0.0-4.0-1.1-1.1-0.1","63331d7bd9dcae2e49dff57e","B2","batch2","","796","<p class=block-text> Let's answer a few questions <br>","0","tol_enter_quiz","","","","","","","","","","","","","","","","","","","","","","","","",""
"","","","","","html-button-response","313","1469488","0.0-4.0-1.1-1.1-1.1","63331d7bd9dcae2e49dff57e","B2","batch2","","2074.4000000059605","<p class = block-text>True or False: You can only move the ball on top of a peg. <br></p>","0","tol_quiz","true","","","","","","","","","","","","","","","","","","","","","","","",""
"","","","","","html-button-response","314","1470170","0.0-4.0-1.1-1.1-2.1","63331d7bd9dcae2e49dff57e","B2","batch2","","681.2000000178814","<p class = block-text>Correct! You can only move the ball on top of a peg.</p>","0","tol_quiz_feedback","","","","","","","","","","","","","","","","","","","","","","","","",""
"","","","","","html-button-response","315","1472330","0.0-4.0-1.1-1.1-3.1","63331d7bd9dcae2e49dff57e","B2","batch2","","2159.300000011921","<p class = block-text>True or False: You should try to match your board with the target board with fewest moves possible. <br></p>","0","tol_quiz","true","","","","","","","","","","","","","","","","","","","","","","","",""
"","","","","","html-button-response","316","1472860","0.0-4.0-1.1-1.1-4.1","63331d7bd9dcae2e49dff57e","B2","batch2","","529.2000000178814","<p class = block-text>Correct! </p>","0","tol_quiz_feedback","","","","","","","","","","","","","","","","","","","","","","","","",""
"","","","","","html-button-response","317","1473824","0.0-4.0-2.0","63331d7bd9dcae2e49dff57e","B2","batch2","","963.4000000059605","<p class=block-text> Now that you've understood the game, let's practice a few easier examples before we start!<br> <br>","0","","","","","","","","","","","","","","","","","","","","","","","","","",""
"","","","","","single-stim-button","318","1477731","0.0-4.0-3.0-0.0","63331d7bd9dcae2e49dff57e","B2","batch2","","3905","","","tol_practice","","","","","","","","","","","tol_peg_2","3905","3905","0","[[1,2,0],[0,0],[0]]","1","[[1,2,0],[0,0],[3]]","practice","3905","","","","","",""
"","","","","","single-stim-button","319","1479492","0.0-4.0-3.0-1.0","63331d7bd9dcae2e49dff57e","B2","batch2","","1760","","","tol_practice","","","","","","","","","","","tol_peg_3","1760","1760","0","[[1,2,0],[0,0],[3]]","1","[[1,2,0],[0,0],[3]]","practice","1760","","","","","",""
"","","","","","poldrack-single-stim","320","1480501","0.0-4.0-4.0","63331d7bd9dcae2e49dff57e","B2","batch2","","-1","","","tol_feedback","true","","","","","","","","","","","1000","1000","500","","","","","","-1","none","true","","0",""
"","","","","","single-stim-button","321","1483364","0.0-4.0-5.0-0.0","63331d7bd9dcae2e49dff57e","B2","batch2","","2861","","","tol_practice","","","","","","","","","","","tol_peg_1","2861","2861","0","[[1,0,0],[3,0],[0]]","2","[[0,0,0],[3,1],[2]]","practice","2861","","","","","",""
"","","","","","single-stim-button","322","1484782","0.0-4.0-5.0-1.0","63331d7bd9dcae2e49dff57e","B2","batch2","","1418","","","tol_practice","","","","","","","","","","","tol_peg_3","1418","1418","0","[[1,0,0],[3,0],[2]]","2","[[0,0,0],[3,1],[2]]","practice","1418","","","","","",""
"","","","","","single-stim-button","323","1486022","0.0-4.0-5.1-0.1","63331d7bd9dcae2e49dff57e","B2","batch2","","1240","","","tol_practice","","","","","","","","","","","tol_peg_1","1240","1240","0","[[0,0,0],[3,0],[2]]","3","[[0,0,0],[3,1],[2]]","practice","1240","","","","","",""
"","","","","","single-stim-button","324","1487494","0.0-4.0-5.1-1.1","63331d7bd9dcae2e49dff57e","B2","batch2","","1472","","","tol_practice","","","","","","","","","","","tol_peg_2","1472","1472","0","[[0,0,0],[3,1],[2]]","3","[[0,0,0],[3,1],[2]]","practice","1472","","","","","",""
"","","","","","poldrack-single-stim","325","1488496","0.0-4.0-6.0","63331d7bd9dcae2e49dff57e","B2","batch2","","-1","","","tol_feedback","true","","","","","","","","","","","1000","1000","500","","","","","","-1","none","true","","0",""
"","","","","","single-stim-button","326","1491096","0.0-4.0-7.0-0.0","63331d7bd9dcae2e49dff57e","B2","batch2","","2599","","","tol_practice","","","","","","","","","","","tol_peg_2","2599","2599","0","[[1,2,0],[0,0],[0]]","4","[[1,0,0],[2,0],[3]]","practice","2599","","","","","",""
"","","","","","single-stim-button","327","1492016","0.0-4.0-7.0-1.0","63331d7bd9dcae2e49dff57e","B2","batch2","","920","","","tol_practice","","","","","","","","","","","tol_peg_3","920","920","0","[[1,2,0],[0,0],[3]]","4","[[1,0,0],[2,0],[3]]","practice","920","","","","","",""
"","","","","","single-stim-button","328","1493032","0.0-4.0-7.1-0.1","63331d7bd9dcae2e49dff57e","B2","batch2","","1014","","","tol_practice","","","","","","","","","","","tol_peg_1","1014","1014","0","[[1,0,0],[0,0],[3]]","5","[[1,0,0],[2,0],[3]]","practice","1014","","","","","",""
"","","","","","single-stim-button","329","1493990","0.0-4.0-7.1-1.1","63331d7bd9dcae2e49dff57e","B2","batch2","","958","","","tol_practice","","","","","","","","","","","tol_peg_2","958","958","0","[[1,0,0],[2,0],[3]]","5","[[1,0,0],[2,0],[3]]","practice","958","","","","","",""
"","","","","","poldrack-single-stim","330","1494992","0.0-4.0-8.0","63331d7bd9dcae2e49dff57e","B2","batch2","","-1","","","tol_feedback","true","","","","","","","","","","","1000","1000","500","","","","","","-1","none","true","","0",""
"","","","","","html-button-response","331","1498656","0.0-4.0-9.0","63331d7bd9dcae2e49dff57e","B2","batch2","","3662.7999999821186","<div class = centerbox><p class = center-block-text>Great job! You are done with practice trials<br>You are about to start official trials.<br> <br> Problem <strong>1</strong> out of 25 problems</p></div>","0","tol_instruction","","","","","","","","","","","","","","","","","","","","","","","","",""
"","","","","","single-stim-button","332","1504642","0.0-4.0-10.0-0.0","63331d7bd9dcae2e49dff57e","B2","batch2","","4981","","","tol_tohand","","","","","","","","","","","tol_peg_1","4981","4981","0","[[1,0,0],[3,0],[0]]","1","[[1,3,0],[2,0],[0]]","0","0","","","","","","3"
"","","","","","single-stim-button","333","1505924","0.0-4.0-10.0-1.0","63331d7bd9dcae2e49dff57e","B2","batch2","","1282","","","tol_toboard","","","","","","","","","","","tol_peg_3","1282","1282","0","[[1,0,0],[3,0],[2]]","1","[[1,3,0],[2,0],[0]]","0","0","","","","","","3"
"","","","","","single-stim-button","334","1506664","0.0-4.0-10.1-0.1","63331d7bd9dcae2e49dff57e","B2","batch2","","740","","","tol_tohand","","","","","","","","","","","tol_peg_2","740","740","0","[[1,0,0],[0,0],[2]]","2","[[1,3,0],[2,0],[0]]","0","0","","","","","","3"
"","","","","","single-stim-button","335","1507732","0.0-4.0-10.1-1.1","63331d7bd9dcae2e49dff57e","B2","batch2","","1068","","","tol_toboard","","","","","","","","","","","tol_peg_1","1068","1068","0","[[1,3,0],[0,0],[2]]","2","[[1,3,0],[2,0],[0]]","0","0","","","","","","3"
"","","","","","single-stim-button","336","1508480","0.0-4.0-10.2-0.2","63331d7bd9dcae2e49dff57e","B2","batch2","","748","","","tol_tohand","","","","","","","","","","","tol_peg_3","748","748","0","[[1,3,0],[0,0],[0]]","3","[[1,3,0],[2,0],[0]]","0","0","","","","","","3"
"","","","","","single-stim-button","337","1509502","0.0-4.0-10.2-1.2","63331d7bd9dcae2e49dff57e","B2","batch2","","1021","","","tol_toboard","","","","","","","","","","","tol_peg_2","1021","1021","0","[[1,3,0],[2,0],[0]]","3","[[1,3,0],[2,0],[0]]","0","0","","","","","","3"
"","","","","","poldrack-single-stim","338","1510516","0.0-4.0-11.0","63331d7bd9dcae2e49dff57e","B2","batch2","","-1","","","tol_feedback","true","","","","","","","","","","","1000","1000","500","","","","","","-1","none","true","4981","6469",""
"","","","","","html-button-response","339","1511310","0.0-4.0-12.0","63331d7bd9dcae2e49dff57e","B2","batch2","","792.2000000178814","<div class = centerbox><p class = center-block-text>problem <strong>2</strong> out of 25 problems</p></div>","0","tol_trial_num","","","","","","","","","","","","","","","","","","","","","","","","",""
"","","","","","single-stim-button","340","1515174","0.0-4.0-13.0-0.0","63331d7bd9dcae2e49dff57e","B2","batch2","","3864","","","tol_tohand","","","","","","","","","","","tol_peg_1","3864","3864","0","[[1,0,0],[3,0],[0]]","1","[[2,1,3],[0,0],[0]]","1","0","","","","","","5"
"","","","","","single-stim-button","341","1525526","0.0-4.0-13.0-1.0","63331d7bd9dcae2e49dff57e","B2","batch2","","10351","","","tol_toboard","","","","","","","","","","","tol_peg_2","10351","10351","0","[[1,0,0],[3,2],[0]]","1","[[2,1,3],[0,0],[0]]","1","0","","","","","","5"
"","","","","","single-stim-button","342","1526408","0.0-4.0-13.1-0.1","63331d7bd9dcae2e49dff57e","B2","batch2","","881","","","tol_tohand","","","","","","","","","","","tol_peg_1","881","881","0","[[0,0,0],[3,2],[0]]","2","[[2,1,3],[0,0],[0]]","1","0","","","","","","5"
"","","","","","single-stim-button","343","1527324","0.0-4.0-13.1-1.1","63331d7bd9dcae2e49dff57e","B2","batch2","","915","","","tol_toboard","","","","","","","","","","","tol_peg_3","915","915","0","[[0,0,0],[3,2],[1]]","2","[[2,1,3],[0,0],[0]]","1","0","","","","","","5"
"","","","","","single-stim-button","344","1528028","0.0-4.0-13.2-0.2","63331d7bd9dcae2e49dff57e","B2","batch2","","703","","","tol_tohand","","","","","","","","","","","tol_peg_2","703","703","0","[[0,0,0],[3,0],[1]]","3","[[2,1,3],[0,0],[0]]","1","0","","","","","","5"
