"success","timeout","failed_images","failed_audio","failed_video","trial_type","trial_index","time_elapsed","internal_node_id","subject_id","study_id","session_id","view_history","rt","task","stimulus","response","correct","mouse_click","stim_duration","block_duration","timing_post_trial","current_position","tol_num_moves_made","tol_target","tol_problem_id","tol_rt","key_press","possible_responses","tol_correct","preplanning","tol_rt_per_trial","tol_min_moves","answer","item","fiar_detect_rt","fiar_detect_correct","total_correct_fiar_detect","post_trial_gap","choices","spm_correct","spm_rt"
"true","false","[]","[]","[]","preload","0","8918","0.0-0.0","6337875a4d0587706d8f2543","F1","batch6","","","","","","","","","","","","","","","","","","","","","","","","","","","","","",""
"true","","","","","fullscreen","1","21255","0.0-1.0-0.0","6337875a4d0587706d8f2543","F1","batch6","","","","","","","","","","","","","","","","","","","","","","","","","","","","","",""
"true","","","","","fullscreen","2","24686","0.0-2.0-0.0","6337875a4d0587706d8f2543","F1","batch6","","","","","","","","","","","","","","","","","","","","","","","","","","","","","",""
"","","","","","instructions","3","74278","0.0-2.0-1.0-0.0-0.0","6337875a4d0587706d8f2543","F1","batch6","[{""page_index"":0,""viewing_time"":10821},{""page_index"":1,""viewing_time"":6400},{""page_index"":2,""viewing_time"":3456},{""page_index"":3,""viewing_time"":9816},{""page_index"":4,""viewing_time"":6208},{""page_index"":5,""viewing_time"":10047},{""page_index"":6,""viewing_time"":2841}]","49589","tol-instructions","","","","","","","","","","","","","","","","","","","","","","","","","","",""
"","","","","","html-button-response","4","75429","0.0-2.0-1.0-1.0-0.0","6337875a4d0587706d8f2543","F1","batch6","","1149","tol_enter_quiz","<p class=block-text> Let's answer a few questions <br>","0","","","","","","","","","","","","","","","","","","","","","","","","",""
"","","","","","html-button-response","5","80636","0.0-2.0-1.0-1.0-1.0","6337875a4d0587706d8f2543","F1","batch6","","5204","tol_quiz","<p class = block-text>True or False: You can only move the ball on top of a peg. <br></p>","0","true","","","","","","","","","","","","","","","","","","","","","","","",""
"","","","","","html-button-response","6","81789","0.0-2.0-1.0-1.0-2.0","6337875a4d0587706d8f2543","F1","batch6","","1150","tol_quiz_feedback","<p class = block-text>Correct! You can only move the ball on top of a peg.</p>","0","","","","","","","","","","","","","","","","","","","","","","","","",""
"","","","","","html-button-response","7","84437","0.0-2.0-1.0-1.0-3.0","6337875a4d0587706d8f2543","F1","batch6","","2646","tol_quiz","<p class = block-text>True or False: You should try to match your board with the target board with fewest moves possible. <br></p>","0","true","","","","","","","","","","","","","","","","","","","","","","","",""
"","","","","","html-button-response","8","85500","0.0-2.0-1.0-1.0-4.0","6337875a4d0587706d8f2543","F1","batch6","","1061","tol_quiz_feedback","<p class = block-text>Correct! </p>","0","","","","","","","","","","","","","","","","","","","","","","","","",""
"","","","","","html-button-response","9","87724","0.0-2.0-2.0","6337875a4d0587706d8f2543","F1","batch6","","2223","","<p class=block-text> Now that you've understood the game, let's practice a few easier examples before we start!<br> <br>","0","","","","","","","","","","","","","","","","","","","","","","","","",""
"","","","","","single-stim-button","10","90174","0.0-2.0-3.0-0.0","6337875a4d0587706d8f2543","F1","batch6","","2447","tol_practice","","","","tol_peg_2","2447","2447","0","[[1,2,0],[0,0],[0]]","1","[[1,2,0],[0,0],[3]]","practice","2447","","","","","","","","","","","","","","",""
"","","","","","single-stim-button","11","91636","0.0-2.0-3.0-1.0","6337875a4d0587706d8f2543","F1","batch6","","1462","tol_practice","","","","tol_peg_3","1462","1462","0","[[1,2,0],[0,0],[3]]","1","[[1,2,0],[0,0],[3]]","practice","1462","","","","","","","","","","","","","","",""
"","","","","","poldrack-single-stim","12","92638","0.0-2.0-4.0","6337875a4d0587706d8f2543","F1","batch6","","-1","tol_feedback","","","true","","1000","1000","500","","","","","","-1","none","true","","0","","","","","","","","","",""
"","","","","","single-stim-button","13","95989","0.0-2.0-5.0-0.0","6337875a4d0587706d8f2543","F1","batch6","","3350","tol_practice","","","","tol_peg_1","3350","3350","0","[[1,0,0],[3,0],[0]]","2","[[0,0,0],[3,1],[2]]","practice","3350","","","","","","","","","","","","","","",""
"","","","","","single-stim-button","14","97733","0.0-2.0-5.0-1.0","6337875a4d0587706d8f2543","F1","batch6","","1743","tol_practice","","","","tol_peg_3","1743","1743","0","[[1,0,0],[3,0],[2]]","2","[[0,0,0],[3,1],[2]]","practice","1743","","","","","","","","","","","","","","",""
"","","","","","single-stim-button","15","98765","0.0-2.0-5.1-0.1","6337875a4d0587706d8f2543","F1","batch6","","1030","tol_practice","","","","tol_peg_1","1030","1030","0","[[0,0,0],[3,0],[2]]","3","[[0,0,0],[3,1],[2]]","practice","1030","","","","","","","","","","","","","","",""
"","","","","","single-stim-button","16","99613","0.0-2.0-5.1-1.1","6337875a4d0587706d8f2543","F1","batch6","","847","tol_practice","","","","tol_peg_2","847","847","0","[[0,0,0],[3,1],[2]]","3","[[0,0,0],[3,1],[2]]","practice","847","","","","","","","","","","","","","","",""
"","","","","","poldrack-single-stim","17","100614","0.0-2.0-6.0","6337875a4d0587706d8f2543","F1","batch6","","-1","tol_feedback","","","true","","1000","1000","500","","","","","","-1","none","true","","0","","","","","","","","","",""
"","","","","","single-stim-button","18","103116","0.0-2.0-7.0-0.0","6337875a4d0587706d8f2543","F1","batch6","","2500","tol_practice","","","","tol_peg_2","2500","2500","0","[[1,2,0],[0,0],[0]]","4","[[1,0,0],[2,0],[3]]","practice","2500","","","","","","","","","","","","","","",""
"","","","","","single-stim-button","19","104116","0.0-2.0-7.0-1.0","6337875a4d0587706d8f2543","F1","batch6","","1000","tol_practice","","","","tol_peg_3","1000","1000","0","[[1,2,0],[0,0],[3]]","4","[[1,0,0],[2,0],[3]]","practice","1000","","","","","","","","","","","","","","",""
"","","","","","single-stim-button","20","105173","0.0-2.0-7.1-0.1","6337875a4d0587706d8f2543","F1","batch6","","1056","tol_practice","","","","tol_peg_1","1056","1056","0","[[1,0,0],[0,0],[3]]","5","[[1,0,0],[2,0],[3]]","practice","1056","","","","","","","","","","","","","","",""
"","","","","","single-stim-button","21","106115","0.0-2.0-7.1-1.1","6337875a4d0587706d8f2543","F1","batch6","","942","tol_practice","","","","tol_peg_2","942","942","0","[[1,0,0],[2,0],[3]]","5","[[1,0,0],[2,0],[3]]","practice","942","","","","","","","","","","","","","","",""
"","","","","","poldrack-single-stim","22","107117","0.0-2.0-8.0","6337875a4d0587706d8f2543","F1","batch6","","-1","tol_feedback","","","true","","1000","1000","500","","","","","","-1","none","true","","0","","","","","","","","","",""
"","","","","","html-button-response","23","109692","0.0-2.0-9.0","6337875a4d0587706d8f2543","F1","batch6","","2574","tol_instruction","<div class = centerbox><p class = center-block-text>Great job! You are done with practice trials<br>You are about to start official trials.<br> <br> Problem <strong>1</strong> out of 25 problems</p></div>","0","","","","","","","","","","","","","","","","","","","","","","","","",""
"","","","","","single-stim-button","24","115677","0.0-2.0-10.0-0.0","6337875a4d0587706d8f2543","F1","batch6","","4983","tol_tohand","","","","tol_peg_1","4983","4983","0","[[1,0,0],[3,0],[0]]","1","[[1,3,0],[2,0],[0]]","0","0","","","","","","3","","","","","","","","",""
"","","","","","single-stim-button","25","119195","0.0-2.0-10.0-1.0","6337875a4d0587706d8f2543","F1","batch6","","3517","tol_toboard","","","","tol_peg_3","3517","3517","0","[[1,0,0],[3,0],[2]]","1","[[1,3,0],[2,0],[0]]","0","0","","","","","","3","","","","","","","","",""
"","","","","","single-stim-button","26","120076","0.0-2.0-10.1-0.1","6337875a4d0587706d8f2543","F1","batch6","","880","tol_tohand","","","","tol_peg_2","880","880","0","[[1,0,0],[0,0],[2]]","2","[[1,3,0],[2,0],[0]]","0","0","","","","","","3","","","","","","","","",""
"","","","","","single-stim-button","27","120916","0.0-2.0-10.1-1.1","6337875a4d0587706d8f2543","F1","batch6","","840","tol_toboard","","","","tol_peg_1","840","840","0","[[1,3,0],[0,0],[2]]","2","[[1,3,0],[2,0],[0]]","0","0","","","","","","3","","","","","","","","",""
"","","","","","single-stim-button","28","121788","0.0-2.0-10.2-0.2","6337875a4d0587706d8f2543","F1","batch6","","871","tol_tohand","","","","tol_peg_3","871","871","0","[[1,3,0],[0,0],[0]]","3","[[1,3,0],[2,0],[0]]","0","0","","","","","","3","","","","","","","","",""
"","","","","","single-stim-button","29","122885","0.0-2.0-10.2-1.2","6337875a4d0587706d8f2543","F1","batch6","","1096","tol_toboard","","","","tol_peg_2","1096","1096","0","[[1,3,0],[2,0],[0]]","3","[[1,3,0],[2,0],[0]]","0","0","","","","","","3","","","","","","","","",""
"","","","","","poldrack-single-stim","30","123887","0.0-2.0-11.0","6337875a4d0587706d8f2543","F1","batch6","","-1","tol_feedback","","","true","","1000","1000","500","","","","","","-1","none","true","4983","6734","","","","","","","","","",""
"","","","","","html-button-response","31","125299","0.0-2.0-12.0","6337875a4d0587706d8f2543","F1","batch6","","1411","tol_trial_num","<div class = centerbox><p class = center-block-text>problem <strong>2</strong> out of 25 problems</p></div>","0","","","","","","","","","","","","","","","","","","","","","","","","",""
"","","","","","single-stim-button","32","133451","0.0-2.0-13.0-0.0","6337875a4d0587706d8f2543","F1","batch6","","8151","tol_tohand","","","","tol_peg_1","8151","8151","0","[[1,0,0],[3,0],[0]]","1","[[2,1,3],[0,0],[0]]","1","0","","","","","","5","","","","","","","","",""
"","","","","","single-stim-button","33","136820","0.0-2.0-13.0-1.0","6337875a4d0587706d8f2543","F1","batch6","","3369","tol_toboard","","","","tol_peg_3","3369","3369","0","[[1,0,0],[3,0],[2]]","1","[[2,1,3],[0,0],[0]]","1","0","","","","","","5","","","","","","","","",""
"","","","","","single-stim-button","34","150548","0.0-2.0-13.1-0.1","6337875a4d0587706d8f2543","F1","batch6","","13727","tol_tohand","","","","tol_peg_1","13727","13727","0","[[0,0,0],[3,0],[2]]","2","[[2,1,3],[0,0],[0]]","1","0","","","","","","5","","","","","","","","",""
"","","","","","single-stim-button","35","151652","0.0-2.0-13.1-1.1","6337875a4d0587706d8f2543","F1","batch6","","1103","tol_toboard","","","","tol_peg_2","1103","1103","0","[[0,0,0],[3,1],[2]]","2","[[2,1,3],[0,0],[0]]","1","0","","","","","","5","","","","","","","","",""
"","","","","","single-stim-button","36","152532","0.0-2.0-13.2-0.2","6337875a4d0587706d8f2543","F1","batch6","","879","tol_tohand","","","","tol_peg_3","879","879","0","[[0,0,0],[3,1],[0]]","3","[[2,1,3],[0,0],[0]]","1","0","","","","","","5","","","","","","","","",""
"","","","","","single-stim-button","37","153611","0.0-2.0-13.2-1.2","6337875a4d0587706d8f2543","F1","batch6","","1078","tol_toboard","","","","tol_peg_1","1078","1078","0","[[2,0,0],[3,1],[0]]","3","[[2,1,3],[0,0],[0]]","1","0","","","","","","5","","","","","","","","",""
"","","","","","single-stim-button","38","154459","0.0-2.0-13.3-0.3","6337875a4d0587706d8f2543","F1","batch6","","847","tol_tohand","","","","tol_peg_2","847","847","0","[[2,0,0],[3,0],[0]]","4","[[2,1,3],[0,0],[0]]","1","0","","","","","","5","","","","","","","","",""
"","","","","","single-stim-button","39","155252","0.0-2.0-13.3-1.3","6337875a4d0587706d8f2543","F1","batch6","","792","tol_toboard","","","","tol_peg_1","792","792","0","[[2,1,0],[3,0],[0]]","4","[[2,1,3],[0,0],[0]]","1","0","","","","","","5","","","","","","","","",""
"","","","","","single-stim-button","40","155915","0.0-2.0-13.4-0.4","6337875a4d0587706d8f2543","F1","batch6","","663","tol_tohand","","","","tol_peg_2","663","663","0","[[2,1,0],[0,0],[0]]","5","[[2,1,3],[0,0],[0]]","1","0","","","","","","5","","","","","","","","",""
"","","","","","single-stim-button","41","156715","0.0-2.0-13.4-1.4","6337875a4d0587706d8f2543","F1","batch6","","799","tol_toboard","","","","tol_peg_1","799","799","0","[[2,1,3],[0,0],[0]]","5","[[2,1,3],[0,0],[0]]","1","0","","","","","","5","","","","","","","","",""
"","","","","","poldrack-single-stim","42","157716","0.0-2.0-14.0","6337875a4d0587706d8f2543","F1","batch6","","-1","tol_feedback","","","true","","1000","1000","500","","","","","","-1","none","true","8151","24267","","","","","","","","","",""
"","","","","","html-button-response","43","158843","0.0-2.0-15.0","6337875a4d0587706d8f2543","F1","batch6","","1126","tol_trial_num","<div class = centerbox><p class = center-block-text>problem <strong>3</strong> out of 25 problems</p></div>","0","","","","","","","","","","","","","","","","","","","","","","","","",""
"","","","","","single-stim-button","44","161627","0.0-2.0-16.0-0.0","6337875a4d0587706d8f2543","F1","batch6","","2783","tol_tohand","","","","tol_peg_1","2783","2783","0","[[2,0,0],[0,0],[1]]","1","[[1,2,0],[3,0],[0]]","2","0","","","","","","4","","","","","","","","",""
"","","","","","single-stim-button","45","163011","0.0-2.0-16.0-1.0","6337875a4d0587706d8f2543","F1","batch6","","1384","tol_toboard","","","","tol_peg_2","1384","1384","0","[[2,0,0],[3,0],[1]]","1","[[1,2,0],[3,0],[0]]","2","0","","","","","","4","","","","","","","","",""
"","","","","","single-stim-button","46","165596","0.0-2.0-16.1-0.1","6337875a4d0587706d8f2543","F1","batch6","","2583","tol_tohand","","","","tol_peg_3","2583","2583","0","[[2,0,0],[3,0],[0]]","2","[[1,2,0],[3,0],[0]]","2","0","","","","","","4","","","","","","","","",""
"","","","","","single-stim-button","47","166491","0.0-2.0-16.1-1.1","6337875a4d0587706d8f2543","F1","batch6","","894","tol_toboard","","","","tol_peg_2","894","894","0","[[2,0,0],[3,1],[0]]","2","[[1,2,0],[3,0],[0]]","2","0","","","","","","4","","","","","","","","",""
"","","","","","single-stim-button","48","167179","0.0-2.0-16.2-0.2","6337875a4d0587706d8f2543","F1","batch6","","687","tol_tohand","","","","tol_peg_1","687","687","0","[[0,0,0],[3,1],[0]]","3","[[1,2,0],[3,0],[0]]","2","0","","","","","","4","","","","","","","","",""
"","","","","","single-stim-button","49","168236","0.0-2.0-16.2-1.2","6337875a4d0587706d8f2543","F1","batch6","","1056","tol_toboard","","","","tol_peg_3","1056","1056","0","[[0,0,0],[3,1],[2]]","3","[[1,2,0],[3,0],[0]]","2","0","","","","","","4","","","","","","","","",""
"","","","","","single-stim-button","50","168931","0.0-2.0-16.3-0.3","6337875a4d0587706d8f2543","F1","batch6","","695","tol_tohand","","","","tol_peg_2","695","695","0","[[0,0,0],[3,0],[2]]","4","[[1,2,0],[3,0],[0]]","2","0","","","","","","4","","","","","","","","",""
"","","","","","single-stim-button","51","169707","0.0-2.0-16.3-1.3","6337875a4d0587706d8f2543","F1","batch6","","775","tol_toboard","","","","tol_peg_1","775","775","0","[[1,0,0],[3,0],[2]]","4","[[1,2,0],[3,0],[0]]","2","0","","","","","","4","","","","","","","","",""
"","","","","","single-stim-button","52","170444","0.0-2.0-16.4-0.4","6337875a4d0587706d8f2543","F1","batch6","","736","tol_tohand","","","","tol_peg_3","736","736","0","[[1,0,0],[3,0],[0]]","5","[[1,2,0],[3,0],[0]]","2","0","","","","","","4","","","","","","","","",""
"","","","","","single-stim-button","53","171690","0.0-2.0-16.4-1.4","6337875a4d0587706d8f2543","F1","batch6","","1246","tol_toboard","","","","tol_peg_1","1246","1246","0","[[1,2,0],[3,0],[0]]","5","[[1,2,0],[3,0],[0]]","2","0","","","","","","4","","","","","","","","",""
"","","","","","poldrack-single-stim","54","172692","0.0-2.0-17.0","6337875a4d0587706d8f2543","F1","batch6","","-1","tol_feedback","","","true","","1000","1000","500","","","","","","-1","none","true","2783","7484","","","","","","","","","",""
"","","","","","html-button-response","55","173803","0.0-2.0-18.0","6337875a4d0587706d8f2543","F1","batch6","","1109","tol_trial_num","<div class = centerbox><p class = center-block-text>problem <strong>4</strong> out of 25 problems</p></div>","0","","","","","","","","","","","","","","","","","","","","","","","","",""
"","","","","","single-stim-button","56","178387","0.0-2.0-19.0-0.0","6337875a4d0587706d8f2543","F1","batch6","","4583","tol_tohand","","","","tol_peg_2","4583","4583","0","[[3,0,0],[2,0],[0]]","1","[[3,0,0],[1,0],[2]]","3","0","","","","","","3","","","","","","","","",""
"","","","","","single-stim-button","57","180027","0.0-2.0-19.0-1.0","6337875a4d0587706d8f2543","F1","batch6","","1638","tol_toboard","","","","tol_peg_1","1638","1638","0","[[3,1,0],[2,0],[0]]","1","[[3,0,0],[1,0],[2]]","3","0","","","","","","3","","","","","","","","",""
"","","","","","single-stim-button","58","181003","0.0-2.0-19.1-0.1","6337875a4d0587706d8f2543","F1","batch6","","976","tol_tohand","","","","tol_peg_2","976","976","0","[[3,1,0],[0,0],[0]]","2","[[3,0,0],[1,0],[2]]","3","0","","","","","","3","","","","","","","","",""
"","","","","","single-stim-button","59","181955","0.0-2.0-19.1-1.1","6337875a4d0587706d8f2543","F1","batch6","","952","tol_toboard","","","","tol_peg_3","952","952","0","[[3,1,0],[0,0],[2]]","2","[[3,0,0],[1,0],[2]]","3","0","","","","","","3","","","","","","","","",""
"","","","","","single-stim-button","60","182699","0.0-2.0-19.2-0.2","6337875a4d0587706d8f2543","F1","batch6","","742","tol_tohand","","","","tol_peg_1","742","742","0","[[3,0,0],[0,0],[2]]","3","[[3,0,0],[1,0],[2]]","3","0","","","","","","3","","","","","","","","",""
"","","","","","single-stim-button","61","183690","0.0-2.0-19.2-1.2","6337875a4d0587706d8f2543","F1","batch6","","991","tol_toboard","","","","tol_peg_2","991","991","0","[[3,0,0],[1,0],[2]]","3","[[3,0,0],[1,0],[2]]","3","0","","","","","","3","","","","","","","","",""
"","","","","","poldrack-single-stim","62","184693","0.0-2.0-20.0","6337875a4d0587706d8f2543","F1","batch6","","-1","tol_feedback","","","true","","1000","1000","500","","","","","","-1","none","true","4583","6301","","","","","","","","","",""
"","","","","","html-button-response","63","186171","0.0-2.0-21.0","6337875a4d0587706d8f2543","F1","batch6","","1478","tol_trial_num","<div class = centerbox><p class = center-block-text>problem <strong>5</strong> out of 25 problems</p></div>","0","","","","","","","","","","","","","","","","","","","","","","","","",""
"","","","","","single-stim-button","64","229233","0.0-2.0-22.0-0.0","6337875a4d0587706d8f2543","F1","batch6","","43061","tol_tohand","","","","tol_peg_3","43061","43061","0","[[1,0,0],[2,0],[0]]","1","[[0,0,0],[1,2],[3]]","4","0","","","","","","7","","","","","","","","",""
"","","","","","single-stim-button","65","231226","0.0-2.0-22.0-1.0","6337875a4d0587706d8f2543","F1","batch6","","1993","tol_toboard","","","","tol_peg_1","1993","1993","0","[[1,3,0],[2,0],[0]]","1","[[0,0,0],[1,2],[3]]","4","0","","","","","","7","","","","","","","","",""
"","","","","","single-stim-button","66","232025","0.0-2.0-22.1-0.1","6337875a4d0587706d8f2543","F1","batch6","","799","tol_tohand","","","","tol_peg_2","799","799","0","[[1,3,0],[0,0],[0]]","2","[[0,0,0],[1,2],[3]]","4","0","","","","","","7","","","","","","","","",""
"","","","","","single-stim-button","67","232961","0.0-2.0-22.1-1.1","6337875a4d0587706d8f2543","F1","batch6","","936","tol_toboard","","","","tol_peg_3","936","936","0","[[1,3,0],[0,0],[2]]","2","[[0,0,0],[1,2],[3]]","4","0","","","","","","7","","","","","","","","",""
"","","","","","single-stim-button","68","234193","0.0-2.0-22.2-0.2","6337875a4d0587706d8f2543","F1","batch6","","1232","tol_tohand","","","","tol_peg_1","1232","1232","0","[[1,0,0],[0,0],[2]]","3","[[0,0,0],[1,2],[3]]","4","0","","","","","","7","","","","","","","","",""
"","","","","","single-stim-button","69","235418","0.0-2.0-22.2-1.2","6337875a4d0587706d8f2543","F1","batch6","","1224","tol_toboard","","","","tol_peg_2","1224","1224","0","[[1,0,0],[3,0],[2]]","3","[[0,0,0],[1,2],[3]]","4","0","","","","","","7","","","","","","","","",""
"","","","","","single-stim-button","70","237547","0.0-2.0-22.3-0.3","6337875a4d0587706d8f2543","F1","batch6","","2127","tol_tohand","","","","tol_peg_1","2127","2127","0","[[0,0,0],[3,0],[2]]","4","[[0,0,0],[1,2],[3]]","4","0","","","","","","7","","","","","","","","",""
"","","","","","single-stim-button","71","238819","0.0-2.0-22.3-1.3","6337875a4d0587706d8f2543","F1","batch6","","1271","tol_toboard","","","","tol_peg_2","1271","1271","0","[[0,0,0],[3,1],[2]]","4","[[0,0,0],[1,2],[3]]","4","0","","","","","","7","","","","","","","","",""
"","","","","","single-stim-button","72","239570","0.0-2.0-22.4-0.4","6337875a4d0587706d8f2543","F1","batch6","","751","tol_tohand","","","","tol_peg_3","751","751","0","[[0,0,0],[3,1],[0]]","5","[[0,0,0],[1,2],[3]]","4","0","","","","","","7","","","","","","","","",""
"","","","","","single-stim-button","73","240683","0.0-2.0-22.4-1.4","6337875a4d0587706d8f2543","F1","batch6","","1111","tol_toboard","","","","tol_peg_1","1111","1111","0","[[2,0,0],[3,1],[0]]","5","[[0,0,0],[1,2],[3]]","4","0","","","","","","7","","","","","","","","",""
"","","","","","single-stim-button","74","241579","0.0-2.0-22.5-0.5","6337875a4d0587706d8f2543","F1","batch6","","894","tol_tohand","","","","tol_peg_2","894","894","0","[[2,0,0],[3,0],[0]]","6","[[0,0,0],[1,2],[3]]","4","0","","","","","","7","","","","","","","","",""
"","","","","","single-stim-button","75","242531","0.0-2.0-22.5-1.5","6337875a4d0587706d8f2543","F1","batch6","","952","tol_toboard","","","","tol_peg_3","952","952","0","[[2,0,0],[3,0],[1]]","6","[[0,0,0],[1,2],[3]]","4","0","","","","","","7","","","","","","","","",""
"","","","","","single-stim-button","76","243026","0.0-2.0-22.6-0.6","6337875a4d0587706d8f2543","F1","batch6","","494","tol_tohand","","","","tol_peg_2","494","494","0","[[2,0,0],[0,0],[1]]","7","[[0,0,0],[1,2],[3]]","4","0","","","","","","7","","","","","","","","",""
"","","","","","single-stim-button","77","243883","0.0-2.0-22.6-1.6","6337875a4d0587706d8f2543","F1","batch6","","855","tol_toboard","","","","tol_peg_1","855","855","0","[[2,3,0],[0,0],[1]]","7","[[0,0,0],[1,2],[3]]","4","0","","","","","","7","","","","","","","","",""
"","","","","","single-stim-button","78","245123","0.0-2.0-22.7-0.7","6337875a4d0587706d8f2543","F1","batch6","","1240","tol_tohand","","","","tol_peg_3","1240","1240","0","[[2,3,0],[0,0],[0]]","8","[[0,0,0],[1,2],[3]]","4","0","","","","","","7","","","","","","","","",""
"","","","","","single-stim-button","79","246020","0.0-2.0-22.7-1.7","6337875a4d0587706d8f2543","F1","batch6","","895","tol_toboard","","","","tol_peg_2","895","895","0","[[2,3,0],[1,0],[0]]","8","[[0,0,0],[1,2],[3]]","4","0","","","","","","7","","","","","","","","",""
"","","","","","single-stim-button","80","246772","0.0-2.0-22.8-0.8","6337875a4d0587706d8f2543","F1","batch6","","752","tol_tohand","","","","tol_peg_1","752","752","0","[[2,0,0],[1,0],[0]]","9","[[0,0,0],[1,2],[3]]","4","0","","","","","","7","","","","","","","","",""
"","","","","","single-stim-button","81","247900","0.0-2.0-22.8-1.8","6337875a4d0587706d8f2543","F1","batch6","","1127","tol_toboard","","","","tol_peg_3","1127","1127","0","[[2,0,0],[1,0],[3]]","9","[[0,0,0],[1,2],[3]]","4","0","","","","","","7","","","","","","","","",""
"","","","","","single-stim-button","82","248805","0.0-2.0-22.9-0.9","6337875a4d0587706d8f2543","F1","batch6","","903","tol_tohand","","","","tol_peg_1","903","903","0","[[0,0,0],[1,0],[3]]","10","[[0,0,0],[1,2],[3]]","4","0","","","","","","7","","","","","","","","",""
"","","","","","single-stim-button","83","249620","0.0-2.0-22.9-1.9","6337875a4d0587706d8f2543","F1","batch6","","815","tol_toboard","","","","tol_peg_2","815","815","0","[[0,0,0],[1,2],[3]]","10","[[0,0,0],[1,2],[3]]","4","0","","","","","","7","","","","","","","","",""
"","","","","","poldrack-single-stim","84","250623","0.0-2.0-23.0","6337875a4d0587706d8f2543","F1","batch6","","-1","tol_feedback","","","true","","1000","1000","500","","","","","","-1","none","true","43061","52253","","","","","","","","","",""
"","","","","","html-button-response","85","251643","0.0-2.0-24.0","6337875a4d0587706d8f2543","F1","batch6","","1021","tol_trial_num","<div class = centerbox><p class = center-block-text>problem <strong>6</strong> out of 25 problems</p></div>","0","","","","","","","","","","","","","","","","","","","","","","","","",""
"","","","","","single-stim-button","86","255805","0.0-2.0-25.0-0.0","6337875a4d0587706d8f2543","F1","batch6","","4161","tol_tohand","","","","tol_peg_3","4161","4161","0","[[0,0,0],[1,2],[0]]","1","[[1,0,0],[2,3],[0]]","5","0","","","","","","6","","","","","","","","",""
"","","","","","single-stim-button","87","258101","0.0-2.0-25.0-1.0","6337875a4d0587706d8f2543","F1","batch6","","2296","tol_toboard","","","","tol_peg_1","2296","2296","0","[[3,0,0],[1,2],[0]]","1","[[1,0,0],[2,3],[0]]","5","0","","","","","","6","","","","","","","","",""
"","","","","","single-stim-button","88","259612","0.0-2.0-25.1-0.1","6337875a4d0587706d8f2543","F1","batch6","","1509","tol_tohand","","","","tol_peg_2","1509","1509","0","[[3,0,0],[1,0],[0]]","2","[[1,0,0],[2,3],[0]]","5","0","","","","","","6","","","","","","","","",""
"","","","","","single-stim-button","89","260325","0.0-2.0-25.1-1.1","6337875a4d0587706d8f2543","F1","batch6","","712","tol_toboard","","","","tol_peg_3","712","712","0","[[3,0,0],[1,0],[2]]","2","[[1,0,0],[2,3],[0]]","5","0","","","","","","6","","","","","","","","",""
"","","","","","single-stim-button","90","261309","0.0-2.0-25.2-0.2","6337875a4d0587706d8f2543","F1","batch6","","984","tol_tohand","","","","tol_peg_2","984","984","0","[[3,0,0],[0,0],[2]]","3","[[1,0,0],[2,3],[0]]","5","0","","","","","","6","","","","","","","","",""
"","","","","","single-stim-button","91","262509","0.0-2.0-25.2-1.2","6337875a4d0587706d8f2543","F1","batch6","","1199","tol_toboard","","","","tol_peg_1","1199","1199","0","[[3,1,0],[0,0],[2]]","3","[[1,0,0],[2,3],[0]]","5","0","","","","","","6","","","","","","","","",""
"","","","","","single-stim-button","92","263757","0.0-2.0-25.3-0.3","6337875a4d0587706d8f2543","F1","batch6","","1248","tol_tohand","","","","tol_peg_3","1248","1248","0","[[3,1,0],[0,0],[0]]","4","[[1,0,0],[2,3],[0]]","5","0","","","","","","6","","","","","","","","",""
"","","","","","single-stim-button","93","264974","0.0-2.0-25.3-1.3","6337875a4d0587706d8f2543","F1","batch6","","1215","tol_toboard","","","","tol_peg_2","1215","1215","0","[[3,1,0],[2,0],[0]]","4","[[1,0,0],[2,3],[0]]","5","0","","","","","","6","","","","","","","","",""
"","","","","","single-stim-button","94","265622","0.0-2.0-25.4-0.4","6337875a4d0587706d8f2543","F1","batch6","","647","tol_tohand","","","","tol_peg_1","647","647","0","[[3,0,0],[2,0],[0]]","5","[[1,0,0],[2,3],[0]]","5","0","","","","","","6","","","","","","","","",""
"","","","","","single-stim-button","95","266454","0.0-2.0-25.4-1.4","6337875a4d0587706d8f2543","F1","batch6","","832","tol_toboard","","","","tol_peg_3","832","832","0","[[3,0,0],[2,0],[1]]","5","[[1,0,0],[2,3],[0]]","5","0","","","","","","6","","","","","","","","",""
"","","","","","single-stim-button","96","267253","0.0-2.0-25.5-0.5","6337875a4d0587706d8f2543","F1","batch6","","799","tol_tohand","","","","tol_peg_1","799","799","0","[[0,0,0],[2,0],[1]]","6","[[1,0,0],[2,3],[0]]","5","0","","","","","","6","","","","","","","","",""
"","","","","","single-stim-button","97","267902","0.0-2.0-25.5-1.5","6337875a4d0587706d8f2543","F1","batch6","","649","tol_toboard","","","","tol_peg_2","649","649","0","[[0,0,0],[2,3],[1]]","6","[[1,0,0],[2,3],[0]]","5","0","","","","","","6","","","","","","","","",""
"","","","","","single-stim-button","98","268477","0.0-2.0-25.6-0.6","6337875a4d0587706d8f2543","F1","batch6","","575","tol_tohand","","","","tol_peg_3","575","575","0","[[0,0,0],[2,3],[0]]","7","[[1,0,0],[2,3],[0]]","5","0","","","","","","6","","","","","","","","",""
"","","","","","single-stim-button","99","269487","0.0-2.0-25.6-1.6","6337875a4d0587706d8f2543","F1","batch6","","1008","tol_toboard","","","","tol_peg_1","1008","1008","0","[[1,0,0],[2,3],[0]]","7","[[1,0,0],[2,3],[0]]","5","0","","","","","","6","","","","","","","","",""
"","","","","","poldrack-single-stim","100","270488","0.0-2.0-26.0","6337875a4d0587706d8f2543","F1","batch6","","-1","tol_feedback","","","true","","1000","1000","500","","","","","","-1","none","true","4161","9923","","","","","","","","","",""
"","","","","","html-button-response","101","271438","0.0-2.0-27.0","6337875a4d0587706d8f2543","F1","batch6","","948","tol_trial_num","<div class = centerbox><p class = center-block-text>problem <strong>7</strong> out of 25 problems</p></div>","0","","","","","","","","","","","","","","","","","","","","","","","","",""
"","","","","","single-stim-button","102","275951","0.0-2.0-28.0-0.0","6337875a4d0587706d8f2543","F1","batch6","","4511","tol_tohand","","","","tol_peg_1","4511","4511","0","[[2,0,0],[0,0],[3]]","1","[[1,2,0],[3,0],[0]]","6","0","","","","","","5","","","","","","","","",""
"","","","","","single-stim-button","103","277023","0.0-2.0-28.0-1.0","6337875a4d0587706d8f2543","F1","batch6","","1072","tol_toboard","","","","tol_peg_2","1072","1072","0","[[2,0,0],[1,0],[3]]","1","[[1,2,0],[3,0],[0]]","6","0","","","","","","5","","","","","","","","",""
"","","","","","single-stim-button","104","278246","0.0-2.0-28.1-0.1","6337875a4d0587706d8f2543","F1","batch6","","1223","tol_tohand","","","","tol_peg_1","1223","1223","0","[[0,0,0],[1,0],[3]]","2","[[1,2,0],[3,0],[0]]","6","0","","","","","","5","","","","","","","","",""
"","","","","","single-stim-button","105","279254","0.0-2.0-28.1-1.1","6337875a4d0587706d8f2543","F1","batch6","","1007","tol_toboard","","","","tol_peg_2","1007","1007","0","[[0,0,0],[1,2],[3]]","2","[[1,2,0],[3,0],[0]]","6","0","","","","","","5","","","","","","","","",""
"","","","","","single-stim-button","106","280335","0.0-2.0-28.2-0.2","6337875a4d0587706d8f2543","F1","batch6","","1081","tol_tohand","","","","tol_peg_3","1081","1081","0","[[0,0,0],[1,2],[0]]","3","[[1,2,0],[3,0],[0]]","6","0","","","","","","5","","","","","","","","",""
"","","","","","single-stim-button","107","281679","0.0-2.0-28.2-1.2","6337875a4d0587706d8f2543","F1","batch6","","1342","tol_toboard","","","","tol_peg_1","1342","1342","0","[[3,0,0],[1,2],[0]]","3","[[1,2,0],[3,0],[0]]","6","0","","","","","","5","","","","","","","","",""
"","","","","","single-stim-button","108","282495","0.0-2.0-28.3-0.3","6337875a4d0587706d8f2543","F1","batch6","","815","tol_tohand","","","","tol_peg_2","815","815","0","[[3,0,0],[1,0],[0]]","4","[[1,2,0],[3,0],[0]]","6","0","","","","","","5","","","","","","","","",""
"","","","","","single-stim-button","109","283215","0.0-2.0-28.3-1.3","6337875a4d0587706d8f2543","F1","batch6","","719","tol_toboard","","","","tol_peg_3","719","719","0","[[3,0,0],[1,0],[2]]","4","[[1,2,0],[3,0],[0]]","6","0","","","","","","5","","","","","","","","",""
"","","","","","single-stim-button","110","283959","0.0-2.0-28.4-0.4","6337875a4d0587706d8f2543","F1","batch6","","744","tol_tohand","","","","tol_peg_2","744","744","0","[[3,0,0],[0,0],[2]]","5","[[1,2,0],[3,0],[0]]","6","0","","","","","","5","","","","","","","","",""
"","","","","","single-stim-button","111","284815","0.0-2.0-28.4-1.4","6337875a4d0587706d8f2543","F1","batch6","","856","tol_toboard","","","","tol_peg_1","856","856","0","[[3,1,0],[0,0],[2]]","5","[[1,2,0],[3,0],[0]]","6","0","","","","","","5","","","","","","","","",""
"","","","","","single-stim-button","112","285679","0.0-2.0-28.5-0.5","6337875a4d0587706d8f2543","F1","batch6","","863","tol_tohand","","","","tol_peg_3","863","863","0","[[3,1,0],[0,0],[0]]","6","[[1,2,0],[3,0],[0]]","6","0","","","","","","5","","","","","","","","",""
"","","","","","single-stim-button","113","286687","0.0-2.0-28.5-1.5","6337875a4d0587706d8f2543","F1","batch6","","1007","tol_toboard","","","","tol_peg_2","1007","1007","0","[[3,1,0],[2,0],[0]]","6","[[1,2,0],[3,0],[0]]","6","0","","","","","","5","","","","","","","","",""
"","","","","","single-stim-button","114","287704","0.0-2.0-28.6-0.6","6337875a4d0587706d8f2543","F1","batch6","","1017","tol_tohand","","","","tol_peg_1","1017","1017","0","[[3,0,0],[2,0],[0]]","7","[[1,2,0],[3,0],[0]]","6","0","","","","","","5","","","","","","","","",""
"","","","","","single-stim-button","115","288488","0.0-2.0-28.6-1.6","6337875a4d0587706d8f2543","F1","batch6","","784","tol_toboard","","","","tol_peg_3","784","784","0","[[3,0,0],[2,0],[1]]","7","[[1,2,0],[3,0],[0]]","6","0","","","","","","5","","","","","","","","",""
"","","","","","single-stim-button","116","290047","0.0-2.0-28.7-0.7","6337875a4d0587706d8f2543","F1","batch6","","1558","tol_tohand","","","","tol_peg_1","1558","1558","0","[[0,0,0],[2,0],[1]]","8","[[1,2,0],[3,0],[0]]","6","0","","","","","","5","","","","","","","","",""
"","","","","","single-stim-button","117","291145","0.0-2.0-28.7-1.7","6337875a4d0587706d8f2543","F1","batch6","","1097","tol_toboard","","","","tol_peg_2","1097","1097","0","[[0,0,0],[2,3],[1]]","8","[[1,2,0],[3,0],[0]]","6","0","","","","","","5","","","","","","","","",""
"","","","","","single-stim-button","118","291864","0.0-2.0-28.8-0.8","6337875a4d0587706d8f2543","F1","batch6","","719","tol_tohand","","","","tol_peg_3","719","719","0","[[0,0,0],[2,3],[0]]","9","[[1,2,0],[3,0],[0]]","6","0","","","","","","5","","","","","","","","",""
"","","","","","single-stim-button","119","292736","0.0-2.0-28.8-1.8","6337875a4d0587706d8f2543","F1","batch6","","872","tol_toboard","","","","tol_peg_1","872","872","0","[[1,0,0],[2,3],[0]]","9","[[1,2,0],[3,0],[0]]","6","0","","","","","","5","","","","","","","","",""
"","","","","","single-stim-button","120","293345","0.0-2.0-28.9-0.9","6337875a4d0587706d8f2543","F1","batch6","","608","tol_tohand","","","","tol_peg_2","608","608","0","[[1,0,0],[2,0],[0]]","10","[[1,2,0],[3,0],[0]]","6","0","","","","","","5","","","","","","","","",""
"","","","","","single-stim-button","121","294128","0.0-2.0-28.9-1.9","6337875a4d0587706d8f2543","F1","batch6","","783","tol_toboard","","","","tol_peg_3","783","783","0","[[1,0,0],[2,0],[3]]","10","[[1,2,0],[3,0],[0]]","6","0","","","","","","5","","","","","","","","",""
"","","","","","single-stim-button","122","294824","0.0-2.0-28.10-0.10","6337875a4d0587706d8f2543","F1","batch6","","695","tol_tohand","","","","tol_peg_2","695","695","0","[[1,0,0],[0,0],[3]]","11","[[1,2,0],[3,0],[0]]","6","0","","","","","","5","","","","","","","","",""
"","","","","","single-stim-button","123","295512","0.0-2.0-28.10-1.10","6337875a4d0587706d8f2543","F1","batch6","","688","tol_toboard","","","","tol_peg_1","688","688","0","[[1,2,0],[0,0],[3]]","11","[[1,2,0],[3,0],[0]]","6","0","","","","","","5","","","","","","","","",""
"","","","","","single-stim-button","124","296376","0.0-2.0-28.11-0.11","6337875a4d0587706d8f2543","F1","batch6","","863","tol_tohand","","","","tol_peg_3","863","863","0","[[1,2,0],[0,0],[0]]","12","[[1,2,0],[3,0],[0]]","6","0","","","","","","5","","","","","","","","",""
"","","","","","single-stim-button","125","297209","0.0-2.0-28.11-1.11","6337875a4d0587706d8f2543","F1","batch6","","831","tol_toboard","","","","tol_peg_2","831","831","0","[[1,2,0],[3,0],[0]]","12","[[1,2,0],[3,0],[0]]","6","0","","","","","","5","","","","","","","","",""
"","","","","","poldrack-single-stim","126","298211","0.0-2.0-29.0","6337875a4d0587706d8f2543","F1","batch6","","-1","tol_feedback","","","true","","1000","1000","500","","","","","","-1","none","true","4511","14697","","","","","","","","","",""
"","","","","","html-button-response","127","299344","0.0-2.0-30.0","6337875a4d0587706d8f2543","F1","batch6","","1131","tol_trial_num","<div class = centerbox><p class = center-block-text>problem <strong>8</strong> out of 25 problems</p></div>","0","","","","","","","","","","","","","","","","","","","","","","","","",""
"","","","","","single-stim-button","128","303617","0.0-2.0-31.0-0.0","6337875a4d0587706d8f2543","F1","batch6","","4272","tol_tohand","","","","tol_peg_3","4272","4272","0","[[0,0,0],[2,3],[0]]","1","[[1,2,0],[3,0],[0]]","7","0","","","","","","4","","","","","","","","",""
"","","","","","single-stim-button","129","304426","0.0-2.0-31.0-1.0","6337875a4d0587706d8f2543","F1","batch6","","808","tol_toboard","","","","tol_peg_1","808","808","0","[[1,0,0],[2,3],[0]]","1","[[1,2,0],[3,0],[0]]","7","0","","","","","","4","","","","","","","","",""
"","","","","","single-stim-button","130","305009","0.0-2.0-31.1-0.1","6337875a4d0587706d8f2543","F1","batch6","","582","tol_tohand","","","","tol_peg_2","582","582","0","[[1,0,0],[2,0],[0]]","2","[[1,2,0],[3,0],[0]]","7","0","","","","","","4","","","","","","","","",""
"","","","","","single-stim-button","131","305881","0.0-2.0-31.1-1.1","6337875a4d0587706d8f2543","F1","batch6","","872","tol_toboard","","","","tol_peg_3","872","872","0","[[1,0,0],[2,0],[3]]","2","[[1,2,0],[3,0],[0]]","7","0","","","","","","4","","","","","","","","",""
"","","","","","single-stim-button","132","306473","0.0-2.0-31.2-0.2","6337875a4d0587706d8f2543","F1","batch6","","592","tol_tohand","","","","tol_peg_2","592","592","0","[[1,0,0],[0,0],[3]]","3","[[1,2,0],[3,0],[0]]","7","0","","","","","","4","","","","","","","","",""
"","","","","","single-stim-button","133","307033","0.0-2.0-31.2-1.2","6337875a4d0587706d8f2543","F1","batch6","","560","tol_toboard","","","","tol_peg_1","560","560","0","[[1,2,0],[0,0],[3]]","3","[[1,2,0],[3,0],[0]]","7","0","","","","","","4","","","","","","","","",""
"","","","","","single-stim-button","134","307850","0.0-2.0-31.3-0.3","6337875a4d0587706d8f2543","F1","batch6","","815","tol_tohand","","","","tol_peg_3","815","815","0","[[1,2,0],[0,0],[0]]","4","[[1,2,0],[3,0],[0]]","7","0","","","","","","4","","","","","","","","",""
"","","","","","single-stim-button","135","308833","0.0-2.0-31.3-1.3","6337875a4d0587706d8f2543","F1","batch6","","983","tol_toboard","","","","tol_peg_2","983","983","0","[[1,2,0],[3,0],[0]]","4","[[1,2,0],[3,0],[0]]","7","0","","","","","","4","","","","","","","","",""
"","","","","","poldrack-single-stim","136","309836","0.0-2.0-32.0","6337875a4d0587706d8f2543","F1","batch6","","-1","tol_feedback","","","true","","1000","1000","500","","","","","","-1","none","true","4272","6261","","","","","","","","","",""
"","","","","","html-button-response","137","311001","0.0-2.0-33.0","6337875a4d0587706d8f2543","F1","batch6","","1165","tol_trial_num","<div class = centerbox><p class = center-block-text>problem <strong>9</strong> out of 25 problems</p></div>","0","","","","","","","","","","","","","","","","","","","","","","","","",""
"","","","","","single-stim-button","138","326419","0.0-2.0-34.0-0.0","6337875a4d0587706d8f2543","F1","batch6","","15417","tol_tohand","","","","tol_peg_1","15417","15417","0","[[3,0,0],[0,0],[1]]","1","[[2,1,0],[3,0],[0]]","8","0","","","","","","6","","","","","","","","",""
"","","","","","single-stim-button","139","329828","0.0-2.0-34.0-1.0","6337875a4d0587706d8f2543","F1","batch6","","3408","tol_toboard","","","","tol_peg_2","3408","3408","0","[[3,0,0],[2,0],[1]]","1","[[2,1,0],[3,0],[0]]","8","0","","","","","","6","","","","","","","","",""
"","","","","","single-stim-button","140","333348","0.0-2.0-34.1-0.1","6337875a4d0587706d8f2543","F1","batch6","","3519","tol_tohand","","","","tol_peg_1","3519","3519","0","[[0,0,0],[2,0],[1]]","2","[[2,1,0],[3,0],[0]]","8","0","","","","","","6","","","","","","","","",""
"","","","","","single-stim-button","141","335740","0.0-2.0-34.1-1.1","6337875a4d0587706d8f2543","F1","batch6","","2391","tol_toboard","","","","tol_peg_2","2391","2391","0","[[0,0,0],[2,3],[1]]","2","[[2,1,0],[3,0],[0]]","8","0","","","","","","6","","","","","","","","",""
"","","","","","single-stim-button","142","336620","0.0-2.0-34.2-0.2","6337875a4d0587706d8f2543","F1","batch6","","880","tol_tohand","","","","tol_peg_3","880","880","0","[[0,0,0],[2,3],[0]]","3","[[2,1,0],[3,0],[0]]","8","0","","","","","","6","","","","","","","","",""
"","","","","","single-stim-button","143","337491","0.0-2.0-34.2-1.2","6337875a4d0587706d8f2543","F1","batch6","","870","tol_toboard","","","","tol_peg_1","870","870","0","[[1,0,0],[2,3],[0]]","3","[[2,1,0],[3,0],[0]]","8","0","","","","","","6","","","","","","","","",""
"","","","","","single-stim-button","144","338156","0.0-2.0-34.3-0.3","6337875a4d0587706d8f2543","F1","batch6","","664","tol_tohand","","","","tol_peg_2","664","664","0","[[1,0,0],[2,0],[0]]","4","[[2,1,0],[3,0],[0]]","8","0","","","","","","6","","","","","","","","",""
"","","","","","single-stim-button","145","339037","0.0-2.0-34.3-1.3","6337875a4d0587706d8f2543","F1","batch6","","880","tol_toboard","","","","tol_peg_3","880","880","0","[[1,0,0],[2,0],[3]]","4","[[2,1,0],[3,0],[0]]","8","0","","","","","","6","","","","","","","","",""
"","","","","","single-stim-button","146","340877","0.0-2.0-34.4-0.4","6337875a4d0587706d8f2543","F1","batch6","","1839","tol_tohand","","","","tol_peg_2","1839","1839","0","[[1,0,0],[0,0],[3]]","5","[[2,1,0],[3,0],[0]]","8","0","","","","","","6","","","","","","","","",""
"","","","","","single-stim-button","147","345053","0.0-2.0-34.4-1.4","6337875a4d0587706d8f2543","F1","batch6","","4175","tol_toboard","","","","tol_peg_1","4175","4175","0","[[1,2,0],[0,0],[3]]","5","[[2,1,0],[3,0],[0]]","8","0","","","","","","6","","","","","","","","",""
"","","","","","single-stim-button","148","345828","0.0-2.0-34.5-0.5","6337875a4d0587706d8f2543","F1","batch6","","775","tol_tohand","","","","tol_peg_3","775","775","0","[[1,2,0],[0,0],[0]]","6","[[2,1,0],[3,0],[0]]","8","0","","","","","","6","","","","","","","","",""
"","","","","","single-stim-button","149","346605","0.0-2.0-34.5-1.5","6337875a4d0587706d8f2543","F1","batch6","","777","tol_toboard","","","","tol_peg_2","777","777","0","[[1,2,0],[3,0],[0]]","6","[[2,1,0],[3,0],[0]]","8","0","","","","","","6","","","","","","","","",""
"","","","","","single-stim-button","150","347220","0.0-2.0-34.6-0.6","6337875a4d0587706d8f2543","F1","batch6","","615","tol_tohand","","","","tol_peg_1","615","615","0","[[1,0,0],[3,0],[0]]","7","[[2,1,0],[3,0],[0]]","8","0","","","","","","6","","","","","","","","",""
"","","","","","single-stim-button","151","347957","0.0-2.0-34.6-1.6","6337875a4d0587706d8f2543","F1","batch6","","737","tol_toboard","","","","tol_peg_3","737","737","0","[[1,0,0],[3,0],[2]]","7","[[2,1,0],[3,0],[0]]","8","0","","","","","","6","","","","","","","","",""
"","","","","","single-stim-button","152","348612","0.0-2.0-34.7-0.7","6337875a4d0587706d8f2543","F1","batch6","","653","tol_tohand","","","","tol_peg_1","653","653","0","[[0,0,0],[3,0],[2]]","8","[[2,1,0],[3,0],[0]]","8","0","","","","","","6","","","","","","","","",""
"","","","","","single-stim-button","153","349404","0.0-2.0-34.7-1.7","6337875a4d0587706d8f2543","F1","batch6","","792","tol_toboard","","","","tol_peg_2","792","792","0","[[0,0,0],[3,1],[2]]","8","[[2,1,0],[3,0],[0]]","8","0","","","","","","6","","","","","","","","",""
"","","","","","single-stim-button","154","350021","0.0-2.0-34.8-0.8","6337875a4d0587706d8f2543","F1","batch6","","616","tol_tohand","","","","tol_peg_3","616","616","0","[[0,0,0],[3,1],[0]]","9","[[2,1,0],[3,0],[0]]","8","0","","","","","","6","","","","","","","","",""
"","","","","","single-stim-button","155","350822","0.0-2.0-34.8-1.8","6337875a4d0587706d8f2543","F1","batch6","","800","tol_toboard","","","","tol_peg_1","800","800","0","[[2,0,0],[3,1],[0]]","9","[[2,1,0],[3,0],[0]]","8","0","","","","","","6","","","","","","","","",""
"","","","","","single-stim-button","156","351294","0.0-2.0-34.9-0.9","6337875a4d0587706d8f2543","F1","batch6","","471","tol_tohand","","","","tol_peg_2","471","471","0","[[2,0,0],[3,0],[0]]","10","[[2,1,0],[3,0],[0]]","8","0","","","","","","6","","","","","","","","",""
"","","","","","single-stim-button","157","351933","0.0-2.0-34.9-1.9","6337875a4d0587706d8f2543","F1","batch6","","639","tol_toboard","","","","tol_peg_1","639","639","0","[[2,1,0],[3,0],[0]]","10","[[2,1,0],[3,0],[0]]","8","0","","","","","","6","","","","","","","","",""
"","","","","","poldrack-single-stim","158","352934","0.0-2.0-35.0","6337875a4d0587706d8f2543","F1","batch6","","-1","tol_feedback","","","true","","1000","1000","500","","","","","","-1","none","true","15417","25449","","","","","","","","","",""
"","","","","","html-button-response","159","354069","0.0-2.0-36.0","6337875a4d0587706d8f2543","F1","batch6","","1133","tol_trial_num","<div class = centerbox><p class = center-block-text>problem <strong>10</strong> out of 25 problems</p></div>","0","","","","","","","","","","","","","","","","","","","","","","","","",""
"","","","","","single-stim-button","160","357413","0.0-2.0-37.0-0.0","6337875a4d0587706d8f2543","F1","batch6","","3343","tol_tohand","","","","tol_peg_2","3343","3343","0","[[3,0,0],[0,0],[2]]","1","[[3,0,0],[2,1],[0]]","9","0","","","","","","3","","","","","","","","",""
"","","","","","single-stim-button","161","358174","0.0-2.0-37.0-1.0","6337875a4d0587706d8f2543","F1","batch6","","761","tol_toboard","","","","tol_peg_1","761","761","0","[[3,1,0],[0,0],[2]]","1","[[3,0,0],[2,1],[0]]","9","0","","","","","","3","","","","","","","","",""
"","","","","","single-stim-button","162","359198","0.0-2.0-37.1-0.1","6337875a4d0587706d8f2543","F1","batch6","","1022","tol_tohand","","","","tol_peg_3","1022","1022","0","[[3,1,0],[0,0],[0]]","2","[[3,0,0],[2,1],[0]]","9","0","","","","","","3","","","","","","","","",""
"","","","","","single-stim-button","163","359885","0.0-2.0-37.1-1.1","6337875a4d0587706d8f2543","F1","batch6","","687","tol_toboard","","","","tol_peg_2","687","687","0","[[3,1,0],[2,0],[0]]","2","[[3,0,0],[2,1],[0]]","9","0","","","","","","3","","","","","","","","",""
"","","","","","single-stim-button","164","360462","0.0-2.0-37.2-0.2","6337875a4d0587706d8f2543","F1","batch6","","575","tol_tohand","","","","tol_peg_1","575","575","0","[[3,0,0],[2,0],[0]]","3","[[3,0,0],[2,1],[0]]","9","0","","","","","","3","","","","","","","","",""
"","","","","","single-stim-button","165","361142","0.0-2.0-37.2-1.2","6337875a4d0587706d8f2543","F1","batch6","","679","tol_toboard","","","","tol_peg_2","679","679","0","[[3,0,0],[2,1],[0]]","3","[[3,0,0],[2,1],[0]]","9","0","","","","","","3","","","","","","","","",""
"","","","","","poldrack-single-stim","166","362143","0.0-2.0-38.0","6337875a4d0587706d8f2543","F1","batch6","","-1","tol_feedback","","","true","","1000","1000","500","","","","","","-1","none","true","3343","4940","","","","","","","","","",""
"","","","","","html-button-response","167","363190","0.0-2.0-39.0","6337875a4d0587706d8f2543","F1","batch6","","1046","tol_trial_num","<div class = centerbox><p class = center-block-text>problem <strong>11</strong> out of 25 problems</p></div>","0","","","","","","","","","","","","","","","","","","","","","","","","",""
"","","","","","single-stim-button","168","366495","0.0-2.0-40.0-0.0","6337875a4d0587706d8f2543","F1","batch6","","3304","tol_tohand","","","","tol_peg_1","3304","3304","0","[[1,0,0],[3,0],[0]]","1","[[2,0,0],[1,3],[0]]","10","0","","","","","","6","","","","","","","","",""
"","","","","","single-stim-button","169","367390","0.0-2.0-40.0-1.0","6337875a4d0587706d8f2543","F1","batch6","","895","tol_toboard","","","","tol_peg_3","895","895","0","[[1,0,0],[3,0],[2]]","1","[[2,0,0],[1,3],[0]]","10","0","","","","","","6","","","","","","","","",""
"","","","","","single-stim-button","170","371839","0.0-2.0-40.1-0.1","6337875a4d0587706d8f2543","F1","batch6","","4448","tol_tohand","","","","tol_peg_2","4448","4448","0","[[1,0,0],[0,0],[2]]","2","[[2,0,0],[1,3],[0]]","10","0","","","","","","6","","","","","","","","",""
"","","","","","single-stim-button","171","373687","0.0-2.0-40.1-1.1","6337875a4d0587706d8f2543","F1","batch6","","1847","tol_toboard","","","","tol_peg_1","1847","1847","0","[[1,3,0],[0,0],[2]]","2","[[2,0,0],[1,3],[0]]","10","0","","","","","","6","","","","","","","","",""
"","","","","","single-stim-button","172","374687","0.0-2.0-40.2-0.2","6337875a4d0587706d8f2543","F1","batch6","","1000","tol_tohand","","","","tol_peg_3","1000","1000","0","[[1,3,0],[0,0],[0]]","3","[[2,0,0],[1,3],[0]]","10","0","","","","","","6","","","","","","","","",""
"","","","","","single-stim-button","173","375311","0.0-2.0-40.2-1.2","6337875a4d0587706d8f2543","F1","batch6","","622","tol_toboard","","","","tol_peg_2","622","622","0","[[1,3,0],[2,0],[0]]","3","[[2,0,0],[1,3],[0]]","10","0","","","","","","6","","","","","","","","",""
"","","","","","single-stim-button","174","376207","0.0-2.0-40.3-0.3","6337875a4d0587706d8f2543","F1","batch6","","895","tol_tohand","","","","tol_peg_1","895","895","0","[[1,0,0],[2,0],[0]]","4","[[2,0,0],[1,3],[0]]","10","0","","","","","","6","","","","","","","","",""
"","","","","","single-stim-button","175","377175","0.0-2.0-40.3-1.3","6337875a4d0587706d8f2543","F1","batch6","","967","tol_toboard","","","","tol_peg_3","967","967","0","[[1,0,0],[2,0],[3]]","4","[[2,0,0],[1,3],[0]]","10","0","","","","","","6","","","","","","","","",""
"","","","","","single-stim-button","176","378230","0.0-2.0-40.4-0.4","6337875a4d0587706d8f2543","F1","batch6","","1055","tol_tohand","","","","tol_peg_1","1055","1055","0","[[0,0,0],[2,0],[3]]","5","[[2,0,0],[1,3],[0]]","10","0","","","","","","6","","","","","","","","",""
"","","","","","single-stim-button","177","378823","0.0-2.0-40.4-1.4","6337875a4d0587706d8f2543","F1","batch6","","591","tol_toboard","","","","tol_peg_2","591","591","0","[[0,0,0],[2,1],[3]]","5","[[2,0,0],[1,3],[0]]","10","0","","","","","","6","","","","","","","","",""
"","","","","","single-stim-button","178","379576","0.0-2.0-40.5-0.5","6337875a4d0587706d8f2543","F1","batch6","","751","tol_tohand","","","","tol_peg_3","751","751","0","[[0,0,0],[2,1],[0]]","6","[[2,0,0],[1,3],[0]]","10","0","","","","","","6","","","","","","","","",""
"","","","","","single-stim-button","179","382855","0.0-2.0-40.5-1.5","6337875a4d0587706d8f2543","F1","batch6","","3279","tol_toboard","","","","tol_peg_1","3279","3279","0","[[3,0,0],[2,1],[0]]","6","[[2,0,0],[1,3],[0]]","10","0","","","","","","6","","","","","","","","",""
"","","","","","single-stim-button","180","383455","0.0-2.0-40.6-0.6","6337875a4d0587706d8f2543","F1","batch6","","599","tol_tohand","","","","tol_peg_2","599","599","0","[[3,0,0],[2,0],[0]]","7","[[2,0,0],[1,3],[0]]","10","0","","","","","","6","","","","","","","","",""
"","","","","","single-stim-button","181","384400","0.0-2.0-40.6-1.6","6337875a4d0587706d8f2543","F1","batch6","","944","tol_toboard","","","","tol_peg_3","944","944","0","[[3,0,0],[2,0],[1]]","7","[[2,0,0],[1,3],[0]]","10","0","","","","","","6","","","","","","","","",""
"","","","","","single-stim-button","182","386896","0.0-2.0-40.7-0.7","6337875a4d0587706d8f2543","F1","batch6","","2495","tol_tohand","","","","tol_peg_1","2495","2495","0","[[0,0,0],[2,0],[1]]","8","[[2,0,0],[1,3],[0]]","10","0","","","","","","6","","","","","","","","",""
"","","","","","single-stim-button","183","387735","0.0-2.0-40.7-1.7","6337875a4d0587706d8f2543","F1","batch6","","839","tol_toboard","","","","tol_peg_2","839","839","0","[[0,0,0],[2,3],[1]]","8","[[2,0,0],[1,3],[0]]","10","0","","","","","","6","","","","","","","","",""
"","","","","","single-stim-button","184","389696","0.0-2.0-40.8-0.8","6337875a4d0587706d8f2543","F1","batch6","","1960","tol_tohand","","","","tol_peg_2","1960","1960","0","[[0,0,0],[2,0],[1]]","9","[[2,0,0],[1,3],[0]]","10","0","","","","","","6","","","","","","","","",""
"","","","","","single-stim-button","185","390520","0.0-2.0-40.8-1.8","6337875a4d0587706d8f2543","F1","batch6","","823","tol_toboard","","","","tol_peg_1","823","823","0","[[3,0,0],[2,0],[1]]","9","[[2,0,0],[1,3],[0]]","10","0","","","","","","6","","","","","","","","",""
"","","","","","single-stim-button","186","391168","0.0-2.0-40.9-0.9","6337875a4d0587706d8f2543","F1","batch6","","648","tol_tohand","","","","tol_peg_2","648","648","0","[[3,0,0],[0,0],[1]]","10","[[2,0,0],[1,3],[0]]","10","0","","","","","","6","","","","","","","","",""
"","","","","","single-stim-button","187","392040","0.0-2.0-40.9-1.9","6337875a4d0587706d8f2543","F1","batch6","","872","tol_toboard","","","","tol_peg_1","872","872","0","[[3,2,0],[0,0],[1]]","10","[[2,0,0],[1,3],[0]]","10","0","","","","","","6","","","","","","","","",""
"","","","","","single-stim-button","188","392736","0.0-2.0-40.10-0.10","6337875a4d0587706d8f2543","F1","batch6","","695","tol_tohand","","","","tol_peg_3","695","695","0","[[3,2,0],[0,0],[0]]","11","[[2,0,0],[1,3],[0]]","10","0","","","","","","6","","","","","","","","",""
"","","","","","single-stim-button","189","393472","0.0-2.0-40.10-1.10","6337875a4d0587706d8f2543","F1","batch6","","735","tol_toboard","","","","tol_peg_2","735","735","0","[[3,2,0],[1,0],[0]]","11","[[2,0,0],[1,3],[0]]","10","0","","","","","","6","","","","","","","","",""
"","","","","","single-stim-button","190","394223","0.0-2.0-40.11-0.11","6337875a4d0587706d8f2543","F1","batch6","","751","tol_tohand","","","","tol_peg_1","751","751","0","[[3,0,0],[1,0],[0]]","12","[[2,0,0],[1,3],[0]]","10","0","","","","","","6","","","","","","","","",""
"","","","","","single-stim-button","191","395161","0.0-2.0-40.11-1.11","6337875a4d0587706d8f2543","F1","batch6","","936","tol_toboard","","","","tol_peg_3","936","936","0","[[3,0,0],[1,0],[2]]","12","[[2,0,0],[1,3],[0]]","10","0","","","","","","6","","","","","","","","",""
"","","","","","single-stim-button","192","395991","0.0-2.0-40.12-0.12","6337875a4d0587706d8f2543","F1","batch6","","830","tol_tohand","","","","tol_peg_1","830","830","0","[[0,0,0],[1,0],[2]]","13","[[2,0,0],[1,3],[0]]","10","0","","","","","","6","","","","","","","","",""
"","","","","","single-stim-button","193","396545","0.0-2.0-40.12-1.12","6337875a4d0587706d8f2543","F1","batch6","","552","tol_toboard","","","","tol_peg_2","552","552","0","[[0,0,0],[1,3],[2]]","13","[[2,0,0],[1,3],[0]]","10","0","","","","","","6","","","","","","","","",""
"","","","","","single-stim-button","194","397088","0.0-2.0-40.13-0.13","6337875a4d0587706d8f2543","F1","batch6","","543","tol_tohand","","","","tol_peg_3","543","543","0","[[0,0,0],[1,3],[0]]","14","[[2,0,0],[1,3],[0]]","10","0","","","","","","6","","","","","","","","",""
"","","","","","single-stim-button","195","398072","0.0-2.0-40.13-1.13","6337875a4d0587706d8f2543","F1","batch6","","983","tol_toboard","","","","tol_peg_1","983","983","0","[[2,0,0],[1,3],[0]]","14","[[2,0,0],[1,3],[0]]","10","0","","","","","","6","","","","","","","","",""
"","","","","","poldrack-single-stim","196","399074","0.0-2.0-41.0","6337875a4d0587706d8f2543","F1","batch6","","-1","tol_feedback","","","true","","1000","1000","500","","","","","","-1","none","true","3304","19974","","","","","","","","","",""
"","","","","","html-button-response","197","400376","0.0-2.0-42.0","6337875a4d0587706d8f2543","F1","batch6","","1302","tol_trial_num","<div class = centerbox><p class = center-block-text>problem <strong>12</strong> out of 25 problems</p></div>","0","","","","","","","","","","","","","","","","","","","","","","","","",""
"","","","","","single-stim-button","198","405753","0.0-2.0-43.0-0.0","6337875a4d0587706d8f2543","F1","batch6","","5375","tol_tohand","","","","tol_peg_1","5375","5375","0","[[1,0,0],[3,0],[0]]","1","[[2,3,0],[0,0],[1]]","11","0","","","","","","4","","","","","","","","",""
"","","","","","single-stim-button","199","406993","0.0-2.0-43.0-1.0","6337875a4d0587706d8f2543","F1","batch6","","1240","tol_toboard","","","","tol_peg_2","1240","1240","0","[[1,0,0],[3,2],[0]]","1","[[2,3,0],[0,0],[1]]","11","0","","","","","","4","","","","","","","","",""
"","","","","","single-stim-button","200","407913","0.0-2.0-43.1-0.1","6337875a4d0587706d8f2543","F1","batch6","","918","tol_tohand","","","","tol_peg_1","918","918","0","[[0,0,0],[3,2],[0]]","2","[[2,3,0],[0,0],[1]]","11","0","","","","","","4","","","","","","","","",""
"","","","","","single-stim-button","201","408984","0.0-2.0-43.1-1.1","6337875a4d0587706d8f2543","F1","batch6","","1071","tol_toboard","","","","tol_peg_3","1071","1071","0","[[0,0,0],[3,2],[1]]","2","[[2,3,0],[0,0],[1]]","11","0","","","","","","4","","","","","","","","",""
"","","","","","single-stim-button","202","409841","0.0-2.0-43.2-0.2","6337875a4d0587706d8f2543","F1","batch6","","855","tol_tohand","","","","tol_peg_2","855","855","0","[[0,0,0],[3,0],[1]]","3","[[2,3,0],[0,0],[1]]","11","0","","","","","","4","","","","","","","","",""
"","","","","","single-stim-button","203","410681","0.0-2.0-43.2-1.2","6337875a4d0587706d8f2543","F1","batch6","","839","tol_toboard","","","","tol_peg_1","839","839","0","[[2,0,0],[3,0],[1]]","3","[[2,3,0],[0,0],[1]]","11","0","","","","","","4","","","","","","","","",""
"","","","","","single-stim-button","204","411161","0.0-2.0-43.3-0.3","6337875a4d0587706d8f2543","F1","batch6","","480","tol_tohand","","","","tol_peg_2","480","480","0","[[2,0,0],[0,0],[1]]","4","[[2,3,0],[0,0],[1]]","11","0","","","","","","4","","","","","","","","",""
"","","","","","single-stim-button","205","411657","0.0-2.0-43.3-1.3","6337875a4d0587706d8f2543","F1","batch6","","495","tol_toboard","","","","tol_peg_1","495","495","0","[[2,3,0],[0,0],[1]]","4","[[2,3,0],[0,0],[1]]","11","0","","","","","","4","","","","","","","","",""
"","","","","","poldrack-single-stim","206","412660","0.0-2.0-44.0","6337875a4d0587706d8f2543","F1","batch6","","-1","tol_feedback","","","true","","1000","1000","500","","","","","","-1","none","true","5375","7628","","","","","","","","","",""
"","","","","","html-button-response","207","413769","0.0-2.0-45.0","6337875a4d0587706d8f2543","F1","batch6","","1109","tol_trial_num","<div class = centerbox><p class = center-block-text>problem <strong>13</strong> out of 25 problems</p></div>","0","","","","","","","","","","","","","","","","","","","","","","","","",""
"","","","","","single-stim-button","208","445819","0.0-2.0-46.0-0.0","6337875a4d0587706d8f2543","F1","batch6","","32048","tol_tohand","","","","tol_peg_2","32048","32048","0","[[1,2,0],[0,0],[0]]","1","[[0,0,0],[2,3],[1]]","12","0","","","","","","4","","","","","","","","",""
"","","","","","single-stim-button","209","446692","0.0-2.0-46.0-1.0","6337875a4d0587706d8f2543","F1","batch6","","872","tol_toboard","","","","tol_peg_3","872","872","0","[[1,2,0],[0,0],[3]]","1","[[0,0,0],[2,3],[1]]","12","0","","","","","","4","","","","","","","","",""
"","","","","","single-stim-button","210","447523","0.0-2.0-46.1-0.1","6337875a4d0587706d8f2543","F1","batch6","","831","tol_tohand","","","","tol_peg_1","831","831","0","[[1,0,0],[0,0],[3]]","2","[[0,0,0],[2,3],[1]]","12","0","","","","","","4","","","","","","","","",""
"","","","","","single-stim-button","211","448330","0.0-2.0-46.1-1.1","6337875a4d0587706d8f2543","F1","batch6","","806","tol_toboard","","","","tol_peg_2","806","806","0","[[1,0,0],[2,0],[3]]","2","[[0,0,0],[2,3],[1]]","12","0","","","","","","4","","","","","","","","",""
"","","","","","single-stim-button","212","448875","0.0-2.0-46.2-0.2","6337875a4d0587706d8f2543","F1","batch6","","545","tol_tohand","","","","tol_peg_3","545","545","0","[[1,0,0],[2,0],[0]]","3","[[0,0,0],[2,3],[1]]","12","0","","","","","","4","","","","","","","","",""
"","","","","","single-stim-button","213","449451","0.0-2.0-46.2-1.2","6337875a4d0587706d8f2543","F1","batch6","","574","tol_toboard","","","","tol_peg_2","574","574","0","[[1,0,0],[2,3],[0]]","3","[[0,0,0],[2,3],[1]]","12","0","","","","","","4","","","","","","","","",""
"","","","","","single-stim-button","214","450203","0.0-2.0-46.3-0.3","6337875a4d0587706d8f2543","F1","batch6","","752","tol_tohand","","","","tol_peg_1","752","752","0","[[0,0,0],[2,3],[0]]","4","[[0,0,0],[2,3],[1]]","12","0","","","","","","4","","","","","","","","",""
"","","","","","single-stim-button","215","451331","0.0-2.0-46.3-1.3","6337875a4d0587706d8f2543","F1","batch6","","1127","tol_toboard","","","","tol_peg_3","1127","1127","0","[[0,0,0],[2,3],[1]]","4","[[0,0,0],[2,3],[1]]","12","0","","","","","","4","","","","","","","","",""
"","","","","","poldrack-single-stim","216","452332","0.0-2.0-47.0","6337875a4d0587706d8f2543","F1","batch6","","-1","tol_feedback","","","true","","1000","1000","500","","","","","","-1","none","true","32048","34176","","","","","","","","","",""
"","","","","","html-button-response","217","456387","0.0-2.0-48.0","6337875a4d0587706d8f2543","F1","batch6","","4053","attention_check","<p class = block-text>How many balls are in your board<br></p>","1","true","","","","","","","","","","","","","","","","","","","","","","","",""
"","","","","","html-button-response","218","457227","0.0-2.0-49.0","6337875a4d0587706d8f2543","F1","batch6","","837","tol_trial_num","<div class = centerbox><p class = center-block-text>problem <strong>14</strong> out of 25 problems</p></div>","0","","","","","","","","","","","","","","","","","","","","","","","","",""
"","","","","","single-stim-button","219","459628","0.0-2.0-50.0-0.0","6337875a4d0587706d8f2543","F1","batch6","","2400","tol_tohand","","","","tol_peg_1","2400","2400","0","[[2,0,0],[3,0],[0]]","1","[[1,2,0],[3,0],[0]]","13","0","","","","","","4","","","","","","","","",""
"","","","","","single-stim-button","220","460716","0.0-2.0-50.0-1.0","6337875a4d0587706d8f2543","F1","batch6","","1087","tol_toboard","","","","tol_peg_3","1087","1087","0","[[2,0,0],[3,0],[1]]","1","[[1,2,0],[3,0],[0]]","13","0","","","","","","4","","","","","","","","",""
"","","","","","single-stim-button","221","461540","0.0-2.0-50.1-0.1","6337875a4d0587706d8f2543","F1","batch6","","823","tol_tohand","","","","tol_peg_1","823","823","0","[[0,0,0],[3,0],[1]]","2","[[1,2,0],[3,0],[0]]","13","0","","","","","","4","","","","","","","","",""
"","","","","","single-stim-button","222","462244","0.0-2.0-50.1-1.1","6337875a4d0587706d8f2543","F1","batch6","","704","tol_toboard","","","","tol_peg_2","704","704","0","[[0,0,0],[3,2],[1]]","2","[[1,2,0],[3,0],[0]]","13","0","","","","","","4","","","","","","","","",""
"","","","","","single-stim-button","223","463029","0.0-2.0-50.2-0.2","6337875a4d0587706d8f2543","F1","batch6","","784","tol_tohand","","","","tol_peg_3","784","784","0","[[0,0,0],[3,2],[0]]","3","[[1,2,0],[3,0],[0]]","13","0","","","","","","4","","","","","","","","",""
"","","","","","single-stim-button","224","464019","0.0-2.0-50.2-1.2","6337875a4d0587706d8f2543","F1","batch6","","990","tol_toboard","","","","tol_peg_1","990","990","0","[[1,0,0],[3,2],[0]]","3","[[1,2,0],[3,0],[0]]","13","0","","","","","","4","","","","","","","","",""
"","","","","","single-stim-button","225","464636","0.0-2.0-50.3-0.3","6337875a4d0587706d8f2543","F1","batch6","","616","tol_tohand","","","","tol_peg_2","616","616","0","[[1,0,0],[3,0],[0]]","4","[[1,2,0],[3,0],[0]]","13","0","","","","","","4","","","","","","","","",""
"","","","","","single-stim-button","226","465460","0.0-2.0-50.3-1.3","6337875a4d0587706d8f2543","F1","batch6","","823","tol_toboard","","","","tol_peg_1","823","823","0","[[1,2,0],[3,0],[0]]","4","[[1,2,0],[3,0],[0]]","13","0","","","","","","4","","","","","","","","",""
"","","","","","poldrack-single-stim","227","466462","0.0-2.0-51.0","6337875a4d0587706d8f2543","F1","batch6","","-1","tol_feedback","","","true","","1000","1000","500","","","","","","-1","none","true","2400","4623","","","","","","","","","",""
"","","","","","html-button-response","228","467524","0.0-2.0-52.0","6337875a4d0587706d8f2543","F1","batch6","","1060","tol_trial_num","<div class = centerbox><p class = center-block-text>problem <strong>15</strong> out of 25 problems</p></div>","0","","","","","","","","","","","","","","","","","","","","","","","","",""
"","","","","","single-stim-button","229","471093","0.0-2.0-53.0-0.0","6337875a4d0587706d8f2543","F1","batch6","","3567","tol_tohand","","","","tol_peg_1","3567","3567","0","[[1,0,0],[3,0],[0]]","1","[[2,0,0],[3,0],[1]]","14","0","","","","","","3","","","","","","","","",""
"","","","","","single-stim-button","230","472876","0.0-2.0-53.0-1.0","6337875a4d0587706d8f2543","F1","batch6","","1782","tol_toboard","","","","tol_peg_2","1782","1782","0","[[1,0,0],[3,2],[0]]","1","[[2,0,0],[3,0],[1]]","14","0","","","","","","3","","","","","","","","",""
"","","","","","single-stim-button","231","473860","0.0-2.0-53.1-0.1","6337875a4d0587706d8f2543","F1","batch6","","984","tol_tohand","","","","tol_peg_1","984","984","0","[[0,0,0],[3,2],[0]]","2","[[2,0,0],[3,0],[1]]","14","0","","","","","","3","","","","","","","","",""
"","","","","","single-stim-button","232","474932","0.0-2.0-53.1-1.1","6337875a4d0587706d8f2543","F1","batch6","","1070","tol_toboard","","","","tol_peg_3","1070","1070","0","[[0,0,0],[3,2],[1]]","2","[[2,0,0],[3,0],[1]]","14","0","","","","","","3","","","","","","","","",""
"","","","","","single-stim-button","233","475716","0.0-2.0-53.2-0.2","6337875a4d0587706d8f2543","F1","batch6","","784","tol_tohand","","","","tol_peg_2","784","784","0","[[0,0,0],[3,0],[1]]","3","[[2,0,0],[3,0],[1]]","14","0","","","","","","3","","","","","","","","",""
"","","","","","single-stim-button","234","476709","0.0-2.0-53.2-1.2","6337875a4d0587706d8f2543","F1","batch6","","992","tol_toboard","","","","tol_peg_1","992","992","0","[[2,0,0],[3,0],[1]]","3","[[2,0,0],[3,0],[1]]","14","0","","","","","","3","","","","","","","","",""
"","","","","","poldrack-single-stim","235","477710","0.0-2.0-54.0","6337875a4d0587706d8f2543","F1","batch6","","-1","tol_feedback","","","true","","1000","1000","500","","","","","","-1","none","true","3567","5335","","","","","","","","","",""
"","","","","","html-button-response","236","479636","0.0-2.0-55.0","6337875a4d0587706d8f2543","F1","batch6","","1926","tol_trial_num","<div class = centerbox><p class = center-block-text>problem <strong>16</strong> out of 25 problems</p></div>","0","","","","","","","","","","","","","","","","","","","","","","","","",""
"","","","","","single-stim-button","237","497958","0.0-2.0-56.0-0.0","6337875a4d0587706d8f2543","F1","batch6","","18320","tol_tohand","","","","tol_peg_3","18320","18320","0","[[0,0,0],[2,3],[0]]","1","[[2,3,0],[1,0],[0]]","15","0","","","","","","7","","","","","","","","",""
"","","","","","single-stim-button","238","498997","0.0-2.0-56.0-1.0","6337875a4d0587706d8f2543","F1","batch6","","1039","tol_toboard","","","","tol_peg_1","1039","1039","0","[[1,0,0],[2,3],[0]]","1","[[2,3,0],[1,0],[0]]","15","0","","","","","","7","","","","","","","","",""
"","","","","","single-stim-button","239","499885","0.0-2.0-56.1-0.1","6337875a4d0587706d8f2543","F1","batch6","","888","tol_tohand","","","","tol_peg_2","888","888","0","[[1,0,0],[2,0],[0]]","2","[[2,3,0],[1,0],[0]]","15","0","","","","","","7","","","","","","","","",""
"","","","","","single-stim-button","240","501022","0.0-2.0-56.1-1.1","6337875a4d0587706d8f2543","F1","batch6","","1137","tol_toboard","","","","tol_peg_3","1137","1137","0","[[1,0,0],[2,0],[3]]","2","[[2,3,0],[1,0],[0]]","15","0","","","","","","7","","","","","","","","",""
"","","","","","single-stim-button","241","503774","0.0-2.0-56.2-0.2","6337875a4d0587706d8f2543","F1","batch6","","2752","tol_tohand","","","","tol_peg_2","2752","2752","0","[[1,0,0],[0,0],[3]]","3","[[2,3,0],[1,0],[0]]","15","0","","","","","","7","","","","","","","","",""
"","","","","","single-stim-button","242","504805","0.0-2.0-56.2-1.2","6337875a4d0587706d8f2543","F1","batch6","","1031","tol_toboard","","","","tol_peg_1","1031","1031","0","[[1,2,0],[0,0],[3]]","3","[[2,3,0],[1,0],[0]]","15","0","","","","","","7","","","","","","","","",""
"","","","","","single-stim-button","243","505767","0.0-2.0-56.3-0.3","6337875a4d0587706d8f2543","F1","batch6","","960","tol_tohand","","","","tol_peg_3","960","960","0","[[1,2,0],[0,0],[0]]","4","[[2,3,0],[1,0],[0]]","15","0","","","","","","7","","","","","","","","",""
"","","","","","single-stim-button","244","506429","0.0-2.0-56.3-1.3","6337875a4d0587706d8f2543","F1","batch6","","662","tol_toboard","","","","tol_peg_2","662","662","0","[[1,2,0],[3,0],[0]]","4","[[2,3,0],[1,0],[0]]","15","0","","","","","","7","","","","","","","","",""
"","","","","","single-stim-button","245","507158","0.0-2.0-56.4-0.4","6337875a4d0587706d8f2543","F1","batch6","","727","tol_tohand","","","","tol_peg_1","727","727","0","[[1,0,0],[3,0],[0]]","5","[[2,3,0],[1,0],[0]]","15","0","","","","","","7","","","","","","","","",""
"","","","","","single-stim-button","246","508166","0.0-2.0-56.4-1.4","6337875a4d0587706d8f2543","F1","batch6","","1007","tol_toboard","","","","tol_peg_3","1007","1007","0","[[1,0,0],[3,0],[2]]","5","[[2,3,0],[1,0],[0]]","15","0","","","","","","7","","","","","","","","",""
"","","","","","single-stim-button","247","509374","0.0-2.0-56.5-0.5","6337875a4d0587706d8f2543","F1","batch6","","1207","tol_tohand","","","","tol_peg_1","1207","1207","0","[[0,0,0],[3,0],[2]]","6","[[2,3,0],[1,0],[0]]","15","0","","","","","","7","","","","","","","","",""
"","","","","","single-stim-button","248","510142","0.0-2.0-56.5-1.5","6337875a4d0587706d8f2543","F1","batch6","","768","tol_toboard","","","","tol_peg_2","768","768","0","[[0,0,0],[3,1],[2]]","6","[[2,3,0],[1,0],[0]]","15","0","","","","","","7","","","","","","","","",""
"","","","","","single-stim-button","249","511390","0.0-2.0-56.6-0.6","6337875a4d0587706d8f2543","F1","batch6","","1247","tol_tohand","","","","tol_peg_3","1247","1247","0","[[0,0,0],[3,1],[0]]","7","[[2,3,0],[1,0],[0]]","15","0","","","","","","7","","","","","","","","",""
"","","","","","single-stim-button","250","512558","0.0-2.0-56.6-1.6","6337875a4d0587706d8f2543","F1","batch6","","1168","tol_toboard","","","","tol_peg_1","1168","1168","0","[[2,0,0],[3,1],[0]]","7","[[2,3,0],[1,0],[0]]","15","0","","","","","","7","","","","","","","","",""
"","","","","","single-stim-button","251","513254","0.0-2.0-56.7-0.7","6337875a4d0587706d8f2543","F1","batch6","","695","tol_tohand","","","","tol_peg_2","695","695","0","[[2,0,0],[3,0],[0]]","8","[[2,3,0],[1,0],[0]]","15","0","","","","","","7","","","","","","","","",""
"","","","","","single-stim-button","252","514262","0.0-2.0-56.7-1.7","6337875a4d0587706d8f2543","F1","batch6","","1007","tol_toboard","","","","tol_peg_3","1007","1007","0","[[2,0,0],[3,0],[1]]","8","[[2,3,0],[1,0],[0]]","15","0","","","","","","7","","","","","","","","",""
"","","","","","single-stim-button","253","515029","0.0-2.0-56.8-0.8","6337875a4d0587706d8f2543","F1","batch6","","767","tol_tohand","","","","tol_peg_2","767","767","0","[[2,0,0],[0,0],[1]]","9","[[2,3,0],[1,0],[0]]","15","0","","","","","","7","","","","","","","","",""
"","","","","","single-stim-button","254","516006","0.0-2.0-56.8-1.8","6337875a4d0587706d8f2543","F1","batch6","","975","tol_toboard","","","","tol_peg_1","975","975","0","[[2,3,0],[0,0],[1]]","9","[[2,3,0],[1,0],[0]]","15","0","","","","","","7","","","","","","","","",""
"","","","","","single-stim-button","255","516951","0.0-2.0-56.9-0.9","6337875a4d0587706d8f2543","F1","batch6","","944","tol_tohand","","","","tol_peg_3","944","944","0","[[2,3,0],[0,0],[0]]","10","[[2,3,0],[1,0],[0]]","15","0","","","","","","7","","","","","","","","",""
"","","","","","single-stim-button","256","517839","0.0-2.0-56.9-1.9","6337875a4d0587706d8f2543","F1","batch6","","887","tol_toboard","","","","tol_peg_2","887","887","0","[[2,3,0],[1,0],[0]]","10","[[2,3,0],[1,0],[0]]","15","0","","","","","","7","","","","","","","","",""
"","","","","","poldrack-single-stim","257","518840","0.0-2.0-57.0","6337875a4d0587706d8f2543","F1","batch6","","-1","tol_feedback","","","true","","1000","1000","500","","","","","","-1","none","true","18320","28507","","","","","","","","","",""
"","","","","","html-button-response","258","520671","0.0-2.0-58.0","6337875a4d0587706d8f2543","F1","batch6","","1829","tol_trial_num","<div class = centerbox><p class = center-block-text>problem <strong>17</strong> out of 25 problems</p></div>","0","","","","","","","","","","","","","","","","","","","","","","","","",""
"","","","","","single-stim-button","259","527350","0.0-2.0-59.0-0.0","6337875a4d0587706d8f2543","F1","batch6","","6678","tol_tohand","","","","tol_peg_1","6678","6678","0","[[1,0,0],[3,0],[0]]","1","[[3,1,0],[2,0],[0]]","16","0","","","","","","5","","","","","","","","",""
"","","","","","single-stim-button","260","532407","0.0-2.0-59.0-1.0","6337875a4d0587706d8f2543","F1","batch6","","5055","tol_toboard","","","","tol_peg_3","5055","5055","0","[[1,0,0],[3,0],[2]]","1","[[3,1,0],[2,0],[0]]","16","0","","","","","","5","","","","","","","","",""
"","","","","","single-stim-button","261","533903","0.0-2.0-59.1-0.1","6337875a4d0587706d8f2543","F1","batch6","","1495","tol_tohand","","","","tol_peg_2","1495","1495","0","[[1,0,0],[0,0],[2]]","2","[[3,1,0],[2,0],[0]]","16","0","","","","","","5","","","","","","","","",""
"","","","","","single-stim-button","262","534830","0.0-2.0-59.1-1.1","6337875a4d0587706d8f2543","F1","batch6","","927","tol_toboard","","","","tol_peg_1","927","927","0","[[1,3,0],[0,0],[2]]","2","[[3,1,0],[2,0],[0]]","16","0","","","","","","5","","","","","","","","",""
"","","","","","single-stim-button","263","535878","0.0-2.0-59.2-0.2","6337875a4d0587706d8f2543","F1","batch6","","1048","tol_tohand","","","","tol_peg_3","1048","1048","0","[[1,3,0],[0,0],[0]]","3","[[3,1,0],[2,0],[0]]","16","0","","","","","","5","","","","","","","","",""
"","","","","","single-stim-button","264","536679","0.0-2.0-59.2-1.2","6337875a4d0587706d8f2543","F1","batch6","","800","tol_toboard","","","","tol_peg_2","800","800","0","[[1,3,0],[2,0],[0]]","3","[[3,1,0],[2,0],[0]]","16","0","","","","","","5","","","","","","","","",""
"","","","","","single-stim-button","265","537355","0.0-2.0-59.3-0.3","6337875a4d0587706d8f2543","F1","batch6","","676","tol_tohand","","","","tol_peg_1","676","676","0","[[1,0,0],[2,0],[0]]","4","[[3,1,0],[2,0],[0]]","16","0","","","","","","5","","","","","","","","",""
"","","","","","single-stim-button","266","538399","0.0-2.0-59.3-1.3","6337875a4d0587706d8f2543","F1","batch6","","1042","tol_toboard","","","","tol_peg_3","1042","1042","0","[[1,0,0],[2,0],[3]]","4","[[3,1,0],[2,0],[0]]","16","0","","","","","","5","","","","","","","","",""
"","","","","","single-stim-button","267","539383","0.0-2.0-59.4-0.4","6337875a4d0587706d8f2543","F1","batch6","","983","tol_tohand","","","","tol_peg_1","983","983","0","[[0,0,0],[2,0],[3]]","5","[[3,1,0],[2,0],[0]]","16","0","","","","","","5","","","","","","","","",""
"","","","","","single-stim-button","268","540224","0.0-2.0-59.4-1.4","6337875a4d0587706d8f2543","F1","batch6","","840","tol_toboard","","","","tol_peg_2","840","840","0","[[0,0,0],[2,1],[3]]","5","[[3,1,0],[2,0],[0]]","16","0","","","","","","5","","","","","","","","",""
"","","","","","single-stim-button","269","540894","0.0-2.0-59.5-0.5","6337875a4d0587706d8f2543","F1","batch6","","670","tol_tohand","","","","tol_peg_3","670","670","0","[[0,0,0],[2,1],[0]]","6","[[3,1,0],[2,0],[0]]","16","0","","","","","","5","","","","","","","","",""
"","","","","","single-stim-button","270","541904","0.0-2.0-59.5-1.5","6337875a4d0587706d8f2543","F1","batch6","","1008","tol_toboard","","","","tol_peg_1","1008","1008","0","[[3,0,0],[2,1],[0]]","6","[[3,1,0],[2,0],[0]]","16","0","","","","","","5","","","","","","","","",""
"","","","","","single-stim-button","271","542503","0.0-2.0-59.6-0.6","6337875a4d0587706d8f2543","F1","batch6","","599","tol_tohand","","","","tol_peg_2","599","599","0","[[3,0,0],[2,0],[0]]","7","[[3,1,0],[2,0],[0]]","16","0","","","","","","5","","","","","","","","",""
"","","","","","single-stim-button","272","543319","0.0-2.0-59.6-1.6","6337875a4d0587706d8f2543","F1","batch6","","815","tol_toboard","","","","tol_peg_1","815","815","0","[[3,1,0],[2,0],[0]]","7","[[3,1,0],[2,0],[0]]","16","0","","","","","","5","","","","","","","","",""
"","","","","","poldrack-single-stim","273","544321","0.0-2.0-60.0","6337875a4d0587706d8f2543","F1","batch6","","-1","tol_feedback","","","true","","1000","1000","500","","","","","","-1","none","true","6678","12149","","","","","","","","","",""
"","","","","","html-button-response","274","545326","0.0-2.0-61.0","6337875a4d0587706d8f2543","F1","batch6","","1004","tol_trial_num","<div class = centerbox><p class = center-block-text>problem <strong>18</strong> out of 25 problems</p></div>","0","","","","","","","","","","","","","","","","","","","","","","","","",""
"","","","","","single-stim-button","275","551824","0.0-2.0-62.0-0.0","6337875a4d0587706d8f2543","F1","batch6","","6495","tol_tohand","","","","tol_peg_1","6495","6495","0","[[1,0,0],[3,0],[0]]","1","[[3,0,0],[2,0],[1]]","17","0","","","","","","5","","","","","","","","",""
"","","","","","single-stim-button","276","552768","0.0-2.0-62.0-1.0","6337875a4d0587706d8f2543","F1","batch6","","944","tol_toboard","","","","tol_peg_3","944","944","0","[[1,0,0],[3,0],[2]]","1","[[3,0,0],[2,0],[1]]","17","0","","","","","","5","","","","","","","","",""
"","","","","","single-stim-button","277","556511","0.0-2.0-62.1-0.1","6337875a4d0587706d8f2543","F1","batch6","","3743","tol_tohand","","","","tol_peg_2","3743","3743","0","[[1,0,0],[0,0],[2]]","2","[[3,0,0],[2,0],[1]]","17","0","","","","","","5","","","","","","","","",""
"","","","","","single-stim-button","278","557431","0.0-2.0-62.1-1.1","6337875a4d0587706d8f2543","F1","batch6","","919","tol_toboard","","","","tol_peg_1","919","919","0","[[1,3,0],[0,0],[2]]","2","[[3,0,0],[2,0],[1]]","17","0","","","","","","5","","","","","","","","",""
"","","","","","single-stim-button","279","558216","0.0-2.0-62.2-0.2","6337875a4d0587706d8f2543","F1","batch6","","784","tol_tohand","","","","tol_peg_3","784","784","0","[[1,3,0],[0,0],[0]]","3","[[3,0,0],[2,0],[1]]","17","0","","","","","","5","","","","","","","","",""
"","","","","","single-stim-button","280","558976","0.0-2.0-62.2-1.2","6337875a4d0587706d8f2543","F1","batch6","","760","tol_toboard","","","","tol_peg_2","760","760","0","[[1,3,0],[2,0],[0]]","3","[[3,0,0],[2,0],[1]]","17","0","","","","","","5","","","","","","","","",""
"","","","","","single-stim-button","281","559607","0.0-2.0-62.3-0.3","6337875a4d0587706d8f2543","F1","batch6","","630","tol_tohand","","","","tol_peg_1","630","630","0","[[1,0,0],[2,0],[0]]","4","[[3,0,0],[2,0],[1]]","17","0","","","","","","5","","","","","","","","",""
"","","","","","single-stim-button","282","560431","0.0-2.0-62.3-1.3","6337875a4d0587706d8f2543","F1","batch6","","824","tol_toboard","","","","tol_peg_3","824","824","0","[[1,0,0],[2,0],[3]]","4","[[3,0,0],[2,0],[1]]","17","0","","","","","","5","","","","","","","","",""
"","","","","","single-stim-button","283","561390","0.0-2.0-62.4-0.4","6337875a4d0587706d8f2543","F1","batch6","","958","tol_tohand","","","","tol_peg_1","958","958","0","[[0,0,0],[2,0],[3]]","5","[[3,0,0],[2,0],[1]]","17","0","","","","","","5","","","","","","","","",""
"","","","","","single-stim-button","284","562183","0.0-2.0-62.4-1.4","6337875a4d0587706d8f2543","F1","batch6","","791","tol_toboard","","","","tol_peg_2","791","791","0","[[0,0,0],[2,1],[3]]","5","[[3,0,0],[2,0],[1]]","17","0","","","","","","5","","","","","","","","",""
"","","","","","single-stim-button","285","562903","0.0-2.0-62.5-0.5","6337875a4d0587706d8f2543","F1","batch6","","718","tol_tohand","","","","tol_peg_3","718","718","0","[[0,0,0],[2,1],[0]]","6","[[3,0,0],[2,0],[1]]","17","0","","","","","","5","","","","","","","","",""
"","","","","","single-stim-button","286","564232","0.0-2.0-62.5-1.5","6337875a4d0587706d8f2543","F1","batch6","","1328","tol_toboard","","","","tol_peg_1","1328","1328","0","[[3,0,0],[2,1],[0]]","6","[[3,0,0],[2,0],[1]]","17","0","","","","","","5","","","","","","","","",""
"","","","","","single-stim-button","287","565104","0.0-2.0-62.6-0.6","6337875a4d0587706d8f2543","F1","batch6","","872","tol_tohand","","","","tol_peg_2","872","872","0","[[3,0,0],[2,0],[0]]","7","[[3,0,0],[2,0],[1]]","17","0","","","","","","5","","","","","","","","",""
"","","","","","single-stim-button","288","566047","0.0-2.0-62.6-1.6","6337875a4d0587706d8f2543","F1","batch6","","942","tol_toboard","","","","tol_peg_3","942","942","0","[[3,0,0],[2,0],[1]]","7","[[3,0,0],[2,0],[1]]","17","0","","","","","","5","","","","","","","","",""
"","","","","","poldrack-single-stim","289","567049","0.0-2.0-63.0","6337875a4d0587706d8f2543","F1","batch6","","-1","tol_feedback","","","true","","1000","1000","500","","","","","","-1","none","true","6495","14200","","","","","","","","","",""
"","","","","","html-button-response","290","567799","0.0-2.0-64.0","6337875a4d0587706d8f2543","F1","batch6","","749","tol_trial_num","<div class = centerbox><p class = center-block-text>problem <strong>19</strong> out of 25 problems</p></div>","0","","","","","","","","","","","","","","","","","","","","","","","","",""
"","","","","","single-stim-button","291","573184","0.0-2.0-65.0-0.0","6337875a4d0587706d8f2543","F1","batch6","","5383","tol_tohand","","","","tol_peg_2","5383","5383","0","[[1,2,0],[0,0],[0]]","1","[[0,0,0],[1,2],[3]]","18","0","","","","","","7","","","","","","","","",""
"","","","","","single-stim-button","292","575128","0.0-2.0-65.0-1.0","6337875a4d0587706d8f2543","F1","batch6","","1943","tol_toboard","","","","tol_peg_3","1943","1943","0","[[1,2,0],[0,0],[3]]","1","[[0,0,0],[1,2],[3]]","18","0","","","","","","7","","","","","","","","",""
"","","","","","single-stim-button","293","576008","0.0-2.0-65.1-0.1","6337875a4d0587706d8f2543","F1","batch6","","880","tol_tohand","","","","tol_peg_1","880","880","0","[[1,0,0],[0,0],[3]]","2","[[0,0,0],[1,2],[3]]","18","0","","","","","","7","","","","","","","","",""
"","","","","","single-stim-button","294","577000","0.0-2.0-65.1-1.1","6337875a4d0587706d8f2543","F1","batch6","","992","tol_toboard","","","","tol_peg_2","992","992","0","[[1,0,0],[2,0],[3]]","2","[[0,0,0],[1,2],[3]]","18","0","","","","","","7","","","","","","","","",""
"","","","","","single-stim-button","295","578576","0.0-2.0-65.2-0.2","6337875a4d0587706d8f2543","F1","batch6","","1575","tol_tohand","","","","tol_peg_1","1575","1575","0","[[0,0,0],[2,0],[3]]","3","[[0,0,0],[1,2],[3]]","18","0","","","","","","7","","","","","","","","",""
"","","","","","single-stim-button","296","579368","0.0-2.0-65.2-1.2","6337875a4d0587706d8f2543","F1","batch6","","792","tol_toboard","","","","tol_peg_2","792","792","0","[[0,0,0],[2,1],[3]]","3","[[0,0,0],[1,2],[3]]","18","0","","","","","","7","","","","","","","","",""
"","","","","","single-stim-button","297","580128","0.0-2.0-65.3-0.3","6337875a4d0587706d8f2543","F1","batch6","","759","tol_tohand","","","","tol_peg_3","759","759","0","[[0,0,0],[2,1],[0]]","4","[[0,0,0],[1,2],[3]]","18","0","","","","","","7","","","","","","","","",""
"","","","","","single-stim-button","298","580872","0.0-2.0-65.3-1.3","6337875a4d0587706d8f2543","F1","batch6","","744","tol_toboard","","","","tol_peg_1","744","744","0","[[3,0,0],[2,1],[0]]","4","[[0,0,0],[1,2],[3]]","18","0","","","","","","7","","","","","","","","",""
"","","","","","single-stim-button","299","581441","0.0-2.0-65.4-0.4","6337875a4d0587706d8f2543","F1","batch6","","568","tol_tohand","","","","tol_peg_2","568","568","0","[[3,0,0],[2,0],[0]]","5","[[0,0,0],[1,2],[3]]","18","0","","","","","","7","","","","","","","","",""
"","","","","","single-stim-button","300","582328","0.0-2.0-65.4-1.4","6337875a4d0587706d8f2543","F1","batch6","","886","tol_toboard","","","","tol_peg_3","886","886","0","[[3,0,0],[2,0],[1]]","5","[[0,0,0],[1,2],[3]]","18","0","","","","","","7","","","","","","","","",""
"","","","","","single-stim-button","301","583840","0.0-2.0-65.5-0.5","6337875a4d0587706d8f2543","F1","batch6","","1512","tol_tohand","","","","tol_peg_2","1512","1512","0","[[3,0,0],[0,0],[1]]","6","[[0,0,0],[1,2],[3]]","18","0","","","","","","7","","","","","","","","",""
"","","","","","single-stim-button","302","584625","0.0-2.0-65.5-1.5","6337875a4d0587706d8f2543","F1","batch6","","784","tol_toboard","","","","tol_peg_1","784","784","0","[[3,2,0],[0,0],[1]]","6","[[0,0,0],[1,2],[3]]","18","0","","","","","","7","","","","","","","","",""
"","","","","","single-stim-button","303","585816","0.0-2.0-65.6-0.6","6337875a4d0587706d8f2543","F1","batch6","","1191","tol_tohand","","","","tol_peg_3","1191","1191","0","[[3,2,0],[0,0],[0]]","7","[[0,0,0],[1,2],[3]]","18","0","","","","","","7","","","","","","","","",""
"","","","","","single-stim-button","304","586697","0.0-2.0-65.6-1.6","6337875a4d0587706d8f2543","F1","batch6","","881","tol_toboard","","","","tol_peg_2","881","881","0","[[3,2,0],[1,0],[0]]","7","[[0,0,0],[1,2],[3]]","18","0","","","","","","7","","","","","","","","",""
"","","","","","single-stim-button","305","587440","0.0-2.0-65.7-0.7","6337875a4d0587706d8f2543","F1","batch6","","742","tol_tohand","","","","tol_peg_1","742","742","0","[[3,0,0],[1,0],[0]]","8","[[0,0,0],[1,2],[3]]","18","0","","","","","","7","","","","","","","","",""
"","","","","","single-stim-button","306","588057","0.0-2.0-65.7-1.7","6337875a4d0587706d8f2543","F1","batch6","","617","tol_toboard","","","","tol_peg_2","617","617","0","[[3,0,0],[1,2],[0]]","8","[[0,0,0],[1,2],[3]]","18","0","","","","","","7","","","","","","","","",""
"","","","","","single-stim-button","307","588760","0.0-2.0-65.8-0.8","6337875a4d0587706d8f2543","F1","batch6","","702","tol_tohand","","","","tol_peg_1","702","702","0","[[0,0,0],[1,2],[0]]","9","[[0,0,0],[1,2],[3]]","18","0","","","","","","7","","","","","","","","",""
"","","","","","single-stim-button","308","590306","0.0-2.0-65.8-1.8","6337875a4d0587706d8f2543","F1","batch6","","1544","tol_toboard","","","","tol_peg_3","1544","1544","0","[[0,0,0],[1,2],[3]]","9","[[0,0,0],[1,2],[3]]","18","0","","","","","","7","","","","","","","","",""
"","","","","","poldrack-single-stim","309","591307","0.0-2.0-66.0","6337875a4d0587706d8f2543","F1","batch6","","-1","tol_feedback","","","true","","1000","1000","500","","","","","","-1","none","true","5383","13312","","","","","","","","","",""
"","","","","","html-button-response","310","592224","0.0-2.0-67.0","6337875a4d0587706d8f2543","F1","batch6","","917","tol_trial_num","<div class = centerbox><p class = center-block-text>problem <strong>20</strong> out of 25 problems</p></div>","0","","","","","","","","","","","","","","","","","","","","","","","","",""
"","","","","","single-stim-button","311","596569","0.0-2.0-68.0-0.0","6337875a4d0587706d8f2543","F1","batch6","","4343","tol_tohand","","","","tol_peg_1","4343","4343","0","[[1,0,0],[3,0],[0]]","1","[[2,1,0],[0,0],[3]]","19","0","","","","","","5","","","","","","","","",""
"","","","","","single-stim-button","312","597469","0.0-2.0-68.0-1.0","6337875a4d0587706d8f2543","F1","batch6","","900","tol_toboard","","","","tol_peg_3","900","900","0","[[1,0,0],[3,0],[2]]","1","[[2,1,0],[0,0],[3]]","19","0","","","","","","5","","","","","","","","",""
"","","","","","single-stim-button","313","599753","0.0-2.0-68.1-0.1","6337875a4d0587706d8f2543","F1","batch6","","2282","tol_tohand","","","","tol_peg_2","2282","2282","0","[[1,0,0],[0,0],[2]]","2","[[2,1,0],[0,0],[3]]","19","0","","","","","","5","","","","","","","","",""
"","","","","","single-stim-button","314","604489","0.0-2.0-68.1-1.1","6337875a4d0587706d8f2543","F1","batch6","","4736","tol_toboard","","","","tol_peg_2","4736","4736","0","[[1,0,0],[3,0],[2]]","2","[[2,1,0],[0,0],[3]]","19","0","","","","","","5","","","","","","","","",""
"","","","","","single-stim-button","315","605153","0.0-2.0-68.2-0.2","6337875a4d0587706d8f2543","F1","batch6","","664","tol_tohand","","","","tol_peg_1","664","664","0","[[0,0,0],[3,0],[2]]","3","[[2,1,0],[0,0],[3]]","19","0","","","","","","5","","","","","","","","",""
"","","","","","single-stim-button","316","605970","0.0-2.0-68.2-1.2","6337875a4d0587706d8f2543","F1","batch6","","815","tol_toboard","","","","tol_peg_2","815","815","0","[[0,0,0],[3,1],[2]]","3","[[2,1,0],[0,0],[3]]","19","0","","","","","","5","","","","","","","","",""
"","","","","","single-stim-button","317","606641","0.0-2.0-68.3-0.3","6337875a4d0587706d8f2543","F1","batch6","","670","tol_tohand","","","","tol_peg_3","670","670","0","[[0,0,0],[3,1],[0]]","4","[[2,1,0],[0,0],[3]]","19","0","","","","","","5","","","","","","","","",""
"","","","","","single-stim-button","318","607497","0.0-2.0-68.3-1.3","6337875a4d0587706d8f2543","F1","batch6","","856","tol_toboard","","","","tol_peg_1","856","856","0","[[2,0,0],[3,1],[0]]","4","[[2,1,0],[0,0],[3]]","19","0","","","","","","5","","","","","","","","",""
"","","","","","single-stim-button","319","608088","0.0-2.0-68.4-0.4","6337875a4d0587706d8f2543","F1","batch6","","591","tol_tohand","","","","tol_peg_2","591","591","0","[[2,0,0],[3,0],[0]]","5","[[2,1,0],[0,0],[3]]","19","0","","","","","","5","","","","","","","","",""
"","","","","","single-stim-button","320","608849","0.0-2.0-68.4-1.4","6337875a4d0587706d8f2543","F1","batch6","","760","tol_toboard","","","","tol_peg_1","760","760","0","[[2,1,0],[3,0],[0]]","5","[[2,1,0],[0,0],[3]]","19","0","","","","","","5","","","","","","","","",""
"","","","","","single-stim-button","321","609465","0.0-2.0-68.5-0.5","6337875a4d0587706d8f2543","F1","batch6","","614","tol_tohand","","","","tol_peg_2","614","614","0","[[2,1,0],[0,0],[0]]","6","[[2,1,0],[0,0],[3]]","19","0","","","","","","5","","","","","","","","",""
"","","","","","single-stim-button","322","610353","0.0-2.0-68.5-1.5","6337875a4d0587706d8f2543","F1","batch6","","887","tol_toboard","","","","tol_peg_3","887","887","0","[[2,1,0],[0,0],[3]]","6","[[2,1,0],[0,0],[3]]","19","0","","","","","","5","","","","","","","","",""
"","","","","","poldrack-single-stim","323","611354","0.0-2.0-69.0","6337875a4d0587706d8f2543","F1","batch6","","-1","tol_feedback","","","true","","1000","1000","500","","","","","","-1","none","true","4343","9164","","","","","","","","","",""
"","","","","","html-button-response","324","612297","0.0-2.0-70.0","6337875a4d0587706d8f2543","F1","batch6","","942","tol_trial_num","<div class = centerbox><p class = center-block-text>problem <strong>21</strong> out of 25 problems</p></div>","0","","","","","","","","","","","","","","","","","","","","","","","","",""
"","","","","","single-stim-button","325","614186","0.0-2.0-71.0-0.0","6337875a4d0587706d8f2543","F1","batch6","","1887","tol_tohand","","","","tol_peg_1","1887","1887","0","[[1,0,0],[3,0],[0]]","1","[[3,2,0],[0,0],[1]]","20","0","","","","","","6","","","","","","","","",""
"","","","","","single-stim-button","326","615106","0.0-2.0-71.0-1.0","6337875a4d0587706d8f2543","F1","batch6","","919","tol_toboard","","","","tol_peg_3","919","919","0","[[1,0,0],[3,0],[2]]","1","[[3,2,0],[0,0],[1]]","20","0","","","","","","6","","","","","","","","",""
"","","","","","single-stim-button","327","620305","0.0-2.0-71.1-0.1","6337875a4d0587706d8f2543","F1","batch6","","5199","tol_tohand","","","","tol_peg_1","5199","5199","0","[[0,0,0],[3,0],[2]]","2","[[3,2,0],[0,0],[1]]","20","0","","","","","","6","","","","","","","","",""
"","","","","","single-stim-button","328","623218","0.0-2.0-71.1-1.1","6337875a4d0587706d8f2543","F1","batch6","","2913","tol_toboard","","","","tol_peg_2","2913","2913","0","[[0,0,0],[3,1],[2]]","2","[[3,2,0],[0,0],[1]]","20","0","","","","","","6","","","","","","","","",""
"","","","","","single-stim-button","329","624034","0.0-2.0-71.2-0.2","6337875a4d0587706d8f2543","F1","batch6","","816","tol_tohand","","","","tol_peg_3","816","816","0","[[0,0,0],[3,1],[0]]","3","[[3,2,0],[0,0],[1]]","20","0","","","","","","6","","","","","","","","",""
"","","","","","single-stim-button","330","624801","0.0-2.0-71.2-1.2","6337875a4d0587706d8f2543","F1","batch6","","766","tol_toboard","","","","tol_peg_1","766","766","0","[[2,0,0],[3,1],[0]]","3","[[3,2,0],[0,0],[1]]","20","0","","","","","","6","","","","","","","","",""
"","","","","","single-stim-button","331","625409","0.0-2.0-71.3-0.3","6337875a4d0587706d8f2543","F1","batch6","","608","tol_tohand","","","","tol_peg_2","608","608","0","[[2,0,0],[3,0],[0]]","4","[[3,2,0],[0,0],[1]]","20","0","","","","","","6","","","","","","","","",""
"","","","","","single-stim-button","332","626113","0.0-2.0-71.3-1.3","6337875a4d0587706d8f2543","F1","batch6","","703","tol_toboard","","","","tol_peg_3","703","703","0","[[2,0,0],[3,0],[1]]","4","[[3,2,0],[0,0],[1]]","20","0","","","","","","6","","","","","","","","",""
"","","","","","single-stim-button","333","627993","0.0-2.0-71.4-0.4","6337875a4d0587706d8f2543","F1","batch6","","1880","tol_tohand","","","","tol_peg_2","1880","1880","0","[[2,0,0],[0,0],[1]]","5","[[3,2,0],[0,0],[1]]","20","0","","","","","","6","","","","","","","","",""
"","","","","","single-stim-button","334","629449","0.0-2.0-71.4-1.4","6337875a4d0587706d8f2543","F1","batch6","","1455","tol_toboard","","","","tol_peg_2","1455","1455","0","[[2,0,0],[3,0],[1]]","5","[[3,2,0],[0,0],[1]]","20","0","","","","","","6","","","","","","","","",""
"","","","","","single-stim-button","335","631209","0.0-2.0-71.5-0.5","6337875a4d0587706d8f2543","F1","batch6","","1760","tol_tohand","","","","tol_peg_3","1760","1760","0","[[2,0,0],[3,0],[0]]","6","[[3,2,0],[0,0],[1]]","20","0","","","","","","6","","","","","","","","",""
"","","","","","single-stim-button","336","631994","0.0-2.0-71.5-1.5","6337875a4d0587706d8f2543","F1","batch6","","783","tol_toboard","","","","tol_peg_1","783","783","0","[[2,1,0],[3,0],[0]]","6","[[3,2,0],[0,0],[1]]","20","0","","","","","","6","","","","","","","","",""
"","","","","","single-stim-button","337","632705","0.0-2.0-71.6-0.6","6337875a4d0587706d8f2543","F1","batch6","","711","tol_tohand","","","","tol_peg_2","711","711","0","[[2,1,0],[0,0],[0]]","7","[[3,2,0],[0,0],[1]]","20","0","","","","","","6","","","","","","","","",""
"","","","","","single-stim-button","338","633425","0.0-2.0-71.6-1.6","6337875a4d0587706d8f2543","F1","batch6","","720","tol_toboard","","","","tol_peg_3","720","720","0","[[2,1,0],[0,0],[3]]","7","[[3,2,0],[0,0],[1]]","20","0","","","","","","6","","","","","","","","",""
"","","","","","single-stim-button","339","634361","0.0-2.0-71.7-0.7","6337875a4d0587706d8f2543","F1","batch6","","935","tol_tohand","","","","tol_peg_1","935","935","0","[[2,0,0],[0,0],[3]]","8","[[3,2,0],[0,0],[1]]","20","0","","","","","","6","","","","","","","","",""
"","","","","","single-stim-button","340","635138","0.0-2.0-71.7-1.7","6337875a4d0587706d8f2543","F1","batch6","","775","tol_toboard","","","","tol_peg_2","775","775","0","[[2,0,0],[1,0],[3]]","8","[[3,2,0],[0,0],[1]]","20","0","","","","","","6","","","","","","","","",""
"","","","","","single-stim-button","341","636250","0.0-2.0-71.8-0.8","6337875a4d0587706d8f2543","F1","batch6","","1110","tol_tohand","","","","tol_peg_1","1110","1110","0","[[0,0,0],[1,0],[3]]","9","[[3,2,0],[0,0],[1]]","20","0","","","","","","6","","","","","","","","",""
"","","","","","single-stim-button","342","637402","0.0-2.0-71.8-1.8","6337875a4d0587706d8f2543","F1","batch6","","1152","tol_toboard","","","","tol_peg_2","1152","1152","0","[[0,0,0],[1,2],[3]]","9","[[3,2,0],[0,0],[1]]","20","0","","","","","","6","","","","","","","","",""
"","","","","","single-stim-button","343","638162","0.0-2.0-71.9-0.9","6337875a4d0587706d8f2543","F1","batch6","","760","tol_tohand","","","","tol_peg_3","760","760","0","[[0,0,0],[1,2],[0]]","10","[[3,2,0],[0,0],[1]]","20","0","","","","","","6","","","","","","","","",""
"","","","","","single-stim-button","344","638993","0.0-2.0-71.9-1.9","6337875a4d0587706d8f2543","F1","batch6","","831","tol_toboard","","","","tol_peg_1","831","831","0","[[3,0,0],[1,2],[0]]","10","[[3,2,0],[0,0],[1]]","20","0","","","","","","6","","","","","","","","",""
"","","","","","single-stim-button","345","639650","0.0-2.0-71.10-0.10","6337875a4d0587706d8f2543","F1","batch6","","656","tol_tohand","","","","tol_peg_2","656","656","0","[[3,0,0],[1,0],[0]]","11","[[3,2,0],[0,0],[1]]","20","0","","","","","","6","","","","","","","","",""
"","","","","","single-stim-button","346","640218","0.0-2.0-71.10-1.10","6337875a4d0587706d8f2543","F1","batch6","","567","tol_toboard","","","","tol_peg_1","567","567","0","[[3,2,0],[1,0],[0]]","11","[[3,2,0],[0,0],[1]]","20","0","","","","","","6","","","","","","","","",""
"","","","","","single-stim-button","347","640794","0.0-2.0-71.11-0.11","6337875a4d0587706d8f2543","F1","batch6","","575","tol_tohand","","","","tol_peg_2","575","575","0","[[3,2,0],[0,0],[0]]","12","[[3,2,0],[0,0],[1]]","20","0","","","","","","6","","","","","","","","",""
"","","","","","single-stim-button","348","641722","0.0-2.0-71.11-1.11","6337875a4d0587706d8f2543","F1","batch6","","928","tol_toboard","","","","tol_peg_3","928","928","0","[[3,2,0],[0,0],[1]]","12","[[3,2,0],[0,0],[1]]","20","0","","","","","","6","","","","","","","","",""
"","","","","","poldrack-single-stim","349","642723","0.0-2.0-72.0","6337875a4d0587706d8f2543","F1","batch6","","-1","tol_feedback","","","true","","1000","1000","500","","","","","","-1","none","true","1887","16897","","","","","","","","","",""
"","","","","","html-button-response","350","643370","0.0-2.0-73.0","6337875a4d0587706d8f2543","F1","batch6","","644","tol_trial_num","<div class = centerbox><p class = center-block-text>problem <strong>22</strong> out of 25 problems</p></div>","0","","","","","","","","","","","","","","","","","","","","","","","","",""
"","","","","","single-stim-button","351","646939","0.0-2.0-74.0-0.0","6337875a4d0587706d8f2543","F1","batch6","","3567","tol_tohand","","","","tol_peg_2","3567","3567","0","[[1,0,0],[2,0],[0]]","1","[[0,0,0],[1,2],[3]]","21","0","","","","","","6","","","","","","","","",""
"","","","","","single-stim-button","352","649906","0.0-2.0-74.0-1.0","6337875a4d0587706d8f2543","F1","batch6","","2967","tol_toboard","","","","tol_peg_1","2967","2967","0","[[1,3,0],[2,0],[0]]","1","[[0,0,0],[1,2],[3]]","21","0","","","","","","6","","","","","","","","",""
"","","","","","single-stim-button","353","650626","0.0-2.0-74.1-0.1","6337875a4d0587706d8f2543","F1","batch6","","720","tol_tohand","","","","tol_peg_2","720","720","0","[[1,3,0],[0,0],[0]]","2","[[0,0,0],[1,2],[3]]","21","0","","","","","","6","","","","","","","","",""
"","","","","","single-stim-button","354","651490","0.0-2.0-74.1-1.1","6337875a4d0587706d8f2543","F1","batch6","","864","tol_toboard","","","","tol_peg_3","864","864","0","[[1,3,0],[0,0],[2]]","2","[[0,0,0],[1,2],[3]]","21","0","","","","","","6","","","","","","","","",""
"","","","","","single-stim-button","355","652899","0.0-2.0-74.2-0.2","6337875a4d0587706d8f2543","F1","batch6","","1408","tol_tohand","","","","tol_peg_1","1408","1408","0","[[1,0,0],[0,0],[2]]","3","[[0,0,0],[1,2],[3]]","21","0","","","","","","6","","","","","","","","",""
"","","","","","single-stim-button","356","654803","0.0-2.0-74.2-1.2","6337875a4d0587706d8f2543","F1","batch6","","1904","tol_toboard","","","","tol_peg_2","1904","1904","0","[[1,0,0],[3,0],[2]]","3","[[0,0,0],[1,2],[3]]","21","0","","","","","","6","","","","","","","","",""
"","","","","","single-stim-button","357","655866","0.0-2.0-74.3-0.3","6337875a4d0587706d8f2543","F1","batch6","","1062","tol_tohand","","","","tol_peg_1","1062","1062","0","[[0,0,0],[3,0],[2]]","4","[[0,0,0],[1,2],[3]]","21","0","","","","","","6","","","","","","","","",""
