"success","timeout","failed_images","failed_audio","failed_video","trial_type","trial_index","time_elapsed","internal_node_id","subject_id","study_id","session_id","view_history","rt","task","stimulus","response","correct","mouse_click","stim_duration","block_duration","timing_post_trial","current_position","tol_num_moves_made","tol_target","tol_problem_id","tol_rt","key_press","possible_responses","tol_correct","preplanning","tol_rt_per_trial","tol_min_moves","answer","item","fiar_detect_rt","fiar_detect_correct","total_correct_fiar_detect","post_trial_gap","choices","spm_correct","spm_rt"
"true","false","[]","[]","[]","preload","0","4601","0.0-0.0","633cbe0c6fa76f7cc4ca1099","E1","batch5","","","","","","","","","","","","","","","","","","","","","","","","","","","","","",""
"true","","","","","fullscreen","1","11908","0.0-1.0-0.0","633cbe0c6fa76f7cc4ca1099","E1","batch5","","","","","","","","","","","","","","","","","","","","","","","","","","","","","",""
"true","","","","","fullscreen","2","15077","0.0-2.0-0.0","633cbe0c6fa76f7cc4ca1099","E1","batch5","","","","","","","","","","","","","","","","","","","","","","","","","","","","","",""
"","","","","","instructions","3","65812","0.0-2.0-1.0-0.0-0.0","633cbe0c6fa76f7cc4ca1099","E1","batch5","[{""page_index"":0,""viewing_time"":10171.40000000596},{""page_index"":1,""viewing_time"":5070.5999999940395},{""page_index"":2,""viewing_time"":6106.9000000059605},{""page_index"":3,""viewing_time"":6572.0999999940395},{""page_index"":4,""viewing_time"":5404.60000000149},{""page_index"":5,""viewing_time"":5637},{""page_index"":4,""viewing_time"":6563.60000000149},{""page_index"":5,""viewing_time"":3870.39999999851},{""page_index"":6,""viewing_time"":1335.2000000029802}]","50732.10000000149","tol-instructions","","","","","","","","","","","","","","","","","","","","","","","","","","",""
"","","","","","html-button-response","4","67007","0.0-2.0-1.0-1.0-0.0","633cbe0c6fa76f7cc4ca1099","E1","batch5","","1193.3999999985099","tol_enter_quiz","<p class=block-text> Let's answer a few questions <br>","0","","","","","","","","","","","","","","","","","","","","","","","","",""
"","","","","","html-button-response","5","70742","0.0-2.0-1.0-1.0-1.0","633cbe0c6fa76f7cc4ca1099","E1","batch5","","3732.89999999851","tol_quiz","<p class = block-text>True or False: You can only move the ball on top of a peg. <br></p>","0","true","","","","","","","","","","","","","","","","","","","","","","","",""
"","","","","","html-button-response","6","73645","0.0-2.0-1.0-1.0-2.0","633cbe0c6fa76f7cc4ca1099","E1","batch5","","2901.60000000149","tol_quiz_feedback","<p class = block-text>Correct! You can only move the ball on top of a peg.</p>","0","","","","","","","","","","","","","","","","","","","","","","","","",""
"","","","","","html-button-response","7","76313","0.0-2.0-1.0-1.0-3.0","633cbe0c6fa76f7cc4ca1099","E1","batch5","","2666.2999999970198","tol_quiz","<p class = block-text>True or False: You should try to match your board with the target board with fewest moves possible. <br></p>","0","true","","","","","","","","","","","","","","","","","","","","","","","",""
"","","","","","html-button-response","8","76874","0.0-2.0-1.0-1.0-4.0","633cbe0c6fa76f7cc4ca1099","E1","batch5","","558.2999999970198","tol_quiz_feedback","<p class = block-text>Correct! </p>","0","","","","","","","","","","","","","","","","","","","","","","","","",""
"","","","","","html-button-response","9","78538","0.0-2.0-2.0","633cbe0c6fa76f7cc4ca1099","E1","batch5","","1661.0999999940395","","<p class=block-text> Now that you've understood the game, let's practice a few easier examples before we start!<br> <br>","0","","","","","","","","","","","","","","","","","","","","","","","","",""
"","","","","","single-stim-button","10","80307","0.0-2.0-3.0-0.0","633cbe0c6fa76f7cc4ca1099","E1","batch5","","1767","tol_practice","","","","tol_peg_2","1767","1767","0","[[1,2,0],[0,0],[0]]","1","[[1,2,0],[0,0],[3]]","practice","1767","","","","","","","","","","","","","","",""
"","","","","","single-stim-button","11","81598","0.0-2.0-3.0-1.0","633cbe0c6fa76f7cc4ca1099","E1","batch5","","1289","tol_practice","","","","tol_peg_3","1289","1289","0","[[1,2,0],[0,0],[3]]","1","[[1,2,0],[0,0],[3]]","practice","1289","","","","","","","","","","","","","","",""
"","","","","","poldrack-single-stim","12","82609","0.0-2.0-4.0","633cbe0c6fa76f7cc4ca1099","E1","batch5","","-1","tol_feedback","","","true","","1000","1000","500","","","","","","-1","none","true","","0","","","","","","","","","",""
"","","","","","single-stim-button","13","86413","0.0-2.0-5.0-0.0","633cbe0c6fa76f7cc4ca1099","E1","batch5","","3802","tol_practice","","","","tol_peg_1","3802","3802","0","[[1,0,0],[3,0],[0]]","2","[[0,0,0],[3,1],[2]]","practice","3802","","","","","","","","","","","","","","",""
"","","","","","single-stim-button","14","87822","0.0-2.0-5.0-1.0","633cbe0c6fa76f7cc4ca1099","E1","batch5","","1408","tol_practice","","","","tol_peg_3","1408","1408","0","[[1,0,0],[3,0],[2]]","2","[[0,0,0],[3,1],[2]]","practice","1408","","","","","","","","","","","","","","",""
"","","","","","single-stim-button","15","88562","0.0-2.0-5.1-0.1","633cbe0c6fa76f7cc4ca1099","E1","batch5","","739","tol_practice","","","","tol_peg_1","739","739","0","[[0,0,0],[3,0],[2]]","3","[[0,0,0],[3,1],[2]]","practice","739","","","","","","","","","","","","","","",""
"","","","","","single-stim-button","16","89386","0.0-2.0-5.1-1.1","633cbe0c6fa76f7cc4ca1099","E1","batch5","","824","tol_practice","","","","tol_peg_2","824","824","0","[[0,0,0],[3,1],[2]]","3","[[0,0,0],[3,1],[2]]","practice","824","","","","","","","","","","","","","","",""
"","","","","","poldrack-single-stim","17","90395","0.0-2.0-6.0","633cbe0c6fa76f7cc4ca1099","E1","batch5","","-1","tol_feedback","","","true","","1000","1000","500","","","","","","-1","none","true","","0","","","","","","","","","",""
"","","","","","single-stim-button","18","92770","0.0-2.0-7.0-0.0","633cbe0c6fa76f7cc4ca1099","E1","batch5","","2373","tol_practice","","","","tol_peg_2","2373","2373","0","[[1,2,0],[0,0],[0]]","4","[[1,0,0],[2,0],[3]]","practice","2373","","","","","","","","","","","","","","",""
"","","","","","single-stim-button","19","93553","0.0-2.0-7.0-1.0","633cbe0c6fa76f7cc4ca1099","E1","batch5","","783","tol_practice","","","","tol_peg_3","783","783","0","[[1,2,0],[0,0],[3]]","4","[[1,0,0],[2,0],[3]]","practice","783","","","","","","","","","","","","","","",""
"","","","","","single-stim-button","20","94293","0.0-2.0-7.1-0.1","633cbe0c6fa76f7cc4ca1099","E1","batch5","","738","tol_practice","","","","tol_peg_1","738","738","0","[[1,0,0],[0,0],[3]]","5","[[1,0,0],[2,0],[3]]","practice","738","","","","","","","","","","","","","","",""
"","","","","","single-stim-button","21","95032","0.0-2.0-7.1-1.1","633cbe0c6fa76f7cc4ca1099","E1","batch5","","739","tol_practice","","","","tol_peg_2","739","739","0","[[1,0,0],[2,0],[3]]","5","[[1,0,0],[2,0],[3]]","practice","739","","","","","","","","","","","","","","",""
"","","","","","poldrack-single-stim","22","96041","0.0-2.0-8.0","633cbe0c6fa76f7cc4ca1099","E1","batch5","","-1","tol_feedback","","","true","","1000","1000","500","","","","","","-1","none","true","","0","","","","","","","","","",""
"","","","","","html-button-response","23","97915","0.0-2.0-9.0","633cbe0c6fa76f7cc4ca1099","E1","batch5","","1872.2999999970198","tol_instruction","<div class = centerbox><p class = center-block-text>Great job! You are done with practice trials<br>You are about to start official trials.<br> <br> Problem <strong>1</strong> out of 25 problems</p></div>","0","","","","","","","","","","","","","","","","","","","","","","","","",""
"","","","","","single-stim-button","24","104585","0.0-2.0-10.0-0.0","633cbe0c6fa76f7cc4ca1099","E1","batch5","","5664","tol_tohand","","","","tol_peg_1","5664","5664","0","[[1,0,0],[3,0],[0]]","1","[[1,3,0],[2,0],[0]]","0","0","","","","","","3","","","","","","","","",""
"","","","","","single-stim-button","25","105476","0.0-2.0-10.0-1.0","633cbe0c6fa76f7cc4ca1099","E1","batch5","","891","tol_toboard","","","","tol_peg_3","891","891","0","[[1,0,0],[3,0],[2]]","1","[[1,3,0],[2,0],[0]]","0","0","","","","","","3","","","","","","","","",""
"","","","","","single-stim-button","26","106015","0.0-2.0-10.1-0.1","633cbe0c6fa76f7cc4ca1099","E1","batch5","","537","tol_tohand","","","","tol_peg_2","537","537","0","[[1,0,0],[0,0],[2]]","2","[[1,3,0],[2,0],[0]]","0","0","","","","","","3","","","","","","","","",""
"","","","","","single-stim-button","27","106969","0.0-2.0-10.1-1.1","633cbe0c6fa76f7cc4ca1099","E1","batch5","","953","tol_toboard","","","","tol_peg_1","953","953","0","[[1,3,0],[0,0],[2]]","2","[[1,3,0],[2,0],[0]]","0","0","","","","","","3","","","","","","","","",""
"","","","","","single-stim-button","28","107625","0.0-2.0-10.2-0.2","633cbe0c6fa76f7cc4ca1099","E1","batch5","","656","tol_tohand","","","","tol_peg_3","656","656","0","[[1,3,0],[0,0],[0]]","3","[[1,3,0],[2,0],[0]]","0","0","","","","","","3","","","","","","","","",""
"","","","","","single-stim-button","29","108312","0.0-2.0-10.2-1.2","633cbe0c6fa76f7cc4ca1099","E1","batch5","","687","tol_toboard","","","","tol_peg_2","687","687","0","[[1,3,0],[2,0],[0]]","3","[[1,3,0],[2,0],[0]]","0","0","","","","","","3","","","","","","","","",""
"","","","","","poldrack-single-stim","30","109323","0.0-2.0-11.0","633cbe0c6fa76f7cc4ca1099","E1","batch5","","-1","tol_feedback","","","true","","1000","1000","500","","","","","","-1","none","true","5664","6857","","","","","","","","","",""
"","","","","","html-button-response","31","110450","0.0-2.0-12.0","633cbe0c6fa76f7cc4ca1099","E1","batch5","","1125.6000000014901","tol_trial_num","<div class = centerbox><p class = center-block-text>problem <strong>2</strong> out of 25 problems</p></div>","0","","","","","","","","","","","","","","","","","","","","","","","","",""
"","","","","","single-stim-button","32","113612","0.0-2.0-13.0-0.0","633cbe0c6fa76f7cc4ca1099","E1","batch5","","3161","tol_tohand","","","","tol_peg_2","3161","3161","0","[[1,2,0],[0,0],[0]]","1","[[2,1,3],[0,0],[0]]","1","0","","","","","","5","","","","","","","","",""
"","","","","","single-stim-button","33","117597","0.0-2.0-13.0-1.0","633cbe0c6fa76f7cc4ca1099","E1","batch5","","3984","tol_toboard","","","","tol_peg_3","3984","3984","0","[[1,2,0],[0,0],[3]]","1","[[2,1,3],[0,0],[0]]","1","0","","","","","","5","","","","","","","","",""
"","","","","","single-stim-button","34","118233","0.0-2.0-13.1-0.1","633cbe0c6fa76f7cc4ca1099","E1","batch5","","635","tol_tohand","","","","tol_peg_1","635","635","0","[[1,0,0],[0,0],[3]]","2","[[2,1,3],[0,0],[0]]","1","0","","","","","","5","","","","","","","","",""
"","","","","","single-stim-button","35","119205","0.0-2.0-13.1-1.1","633cbe0c6fa76f7cc4ca1099","E1","batch5","","971","tol_toboard","","","","tol_peg_2","971","971","0","[[1,0,0],[2,0],[3]]","2","[[2,1,3],[0,0],[0]]","1","0","","","","","","5","","","","","","","","",""
"","","","","","single-stim-button","36","119978","0.0-2.0-13.2-0.2","633cbe0c6fa76f7cc4ca1099","E1","batch5","","772","tol_tohand","","","","tol_peg_1","772","772","0","[[0,0,0],[2,0],[3]]","3","[[2,1,3],[0,0],[0]]","1","0","","","","","","5","","","","","","","","",""
"","","","","","single-stim-button","37","124854","0.0-2.0-13.2-1.2","633cbe0c6fa76f7cc4ca1099","E1","batch5","","4876","tol_toboard","","","","tol_peg_1","4876","4876","0","[[1,0,0],[2,0],[3]]","3","[[2,1,3],[0,0],[0]]","1","0","","","","","","5","","","","","","","","",""
"","","","","","single-stim-button","38","125525","0.0-2.0-13.3-0.3","633cbe0c6fa76f7cc4ca1099","E1","batch5","","670","tol_tohand","","","","tol_peg_3","670","670","0","[[1,0,0],[2,0],[0]]","4","[[2,1,3],[0,0],[0]]","1","0","","","","","","5","","","","","","","","",""
"","","","","","single-stim-button","39","126709","0.0-2.0-13.3-1.3","633cbe0c6fa76f7cc4ca1099","E1","batch5","","1184","tol_toboard","","","","tol_peg_1","1184","1184","0","[[1,3,0],[2,0],[0]]","4","[[2,1,3],[0,0],[0]]","1","0","","","","","","5","","","","","","","","",""
"","","","","","single-stim-button","40","127347","0.0-2.0-13.4-0.4","633cbe0c6fa76f7cc4ca1099","E1","batch5","","636","tol_tohand","","","","tol_peg_2","636","636","0","[[1,3,0],[0,0],[0]]","5","[[2,1,3],[0,0],[0]]","1","0","","","","","","5","","","","","","","","",""
"","","","","","single-stim-button","41","128236","0.0-2.0-13.4-1.4","633cbe0c6fa76f7cc4ca1099","E1","batch5","","888","tol_toboard","","","","tol_peg_3","888","888","0","[[1,3,0],[0,0],[2]]","5","[[2,1,3],[0,0],[0]]","1","0","","","","","","5","","","","","","","","",""
"","","","","","single-stim-button","42","129726","0.0-2.0-13.5-0.5","633cbe0c6fa76f7cc4ca1099","E1","batch5","","1490","tol_tohand","","","","tol_peg_1","1490","1490","0","[[1,0,0],[0,0],[2]]","6","[[2,1,3],[0,0],[0]]","1","0","","","","","","5","","","","","","","","",""
"","","","","","single-stim-button","43","130417","0.0-2.0-13.5-1.5","633cbe0c6fa76f7cc4ca1099","E1","batch5","","691","tol_toboard","","","","tol_peg_2","691","691","0","[[1,0,0],[3,0],[2]]","6","[[2,1,3],[0,0],[0]]","1","0","","","","","","5","","","","","","","","",""
"","","","","","single-stim-button","44","130940","0.0-2.0-13.6-0.6","633cbe0c6fa76f7cc4ca1099","E1","batch5","","522","tol_tohand","","","","tol_peg_1","522","522","0","[[0,0,0],[3,0],[2]]","7","[[2,1,3],[0,0],[0]]","1","0","","","","","","5","","","","","","","","",""
"","","","","","single-stim-button","45","131560","0.0-2.0-13.6-1.6","633cbe0c6fa76f7cc4ca1099","E1","batch5","","620","tol_toboard","","","","tol_peg_2","620","620","0","[[0,0,0],[3,1],[2]]","7","[[2,1,3],[0,0],[0]]","1","0","","","","","","5","","","","","","","","",""
"","","","","","single-stim-button","46","132183","0.0-2.0-13.7-0.7","633cbe0c6fa76f7cc4ca1099","E1","batch5","","622","tol_tohand","","","","tol_peg_3","622","622","0","[[0,0,0],[3,1],[0]]","8","[[2,1,3],[0,0],[0]]","1","0","","","","","","5","","","","","","","","",""
"","","","","","single-stim-button","47","132990","0.0-2.0-13.7-1.7","633cbe0c6fa76f7cc4ca1099","E1","batch5","","806","tol_toboard","","","","tol_peg_1","806","806","0","[[2,0,0],[3,1],[0]]","8","[[2,1,3],[0,0],[0]]","1","0","","","","","","5","","","","","","","","",""
"","","","","","single-stim-button","48","133711","0.0-2.0-13.8-0.8","633cbe0c6fa76f7cc4ca1099","E1","batch5","","719","tol_tohand","","","","tol_peg_2","719","719","0","[[2,0,0],[3,0],[0]]","9","[[2,1,3],[0,0],[0]]","1","0","","","","","","5","","","","","","","","",""
"","","","","","single-stim-button","49","134383","0.0-2.0-13.8-1.8","633cbe0c6fa76f7cc4ca1099","E1","batch5","","672","tol_toboard","","","","tol_peg_1","672","672","0","[[2,1,0],[3,0],[0]]","9","[[2,1,3],[0,0],[0]]","1","0","","","","","","5","","","","","","","","",""
"","","","","","single-stim-button","50","134995","0.0-2.0-13.9-0.9","633cbe0c6fa76f7cc4ca1099","E1","batch5","","611","tol_tohand","","","","tol_peg_2","611","611","0","[[2,1,0],[0,0],[0]]","10","[[2,1,3],[0,0],[0]]","1","0","","","","","","5","","","","","","","","",""
"","","","","","single-stim-button","51","135627","0.0-2.0-13.9-1.9","633cbe0c6fa76f7cc4ca1099","E1","batch5","","632","tol_toboard","","","","tol_peg_1","632","632","0","[[2,1,3],[0,0],[0]]","10","[[2,1,3],[0,0],[0]]","1","0","","","","","","5","","","","","","","","",""
"","","","","","poldrack-single-stim","52","136632","0.0-2.0-14.0","633cbe0c6fa76f7cc4ca1099","E1","batch5","","-1","tol_feedback","","","true","","1000","1000","500","","","","","","-1","none","true","3161","9838","","","","","","","","","",""
"","","","","","html-button-response","53","137713","0.0-2.0-15.0","633cbe0c6fa76f7cc4ca1099","E1","batch5","","1079.2000000029802","tol_trial_num","<div class = centerbox><p class = center-block-text>problem <strong>3</strong> out of 25 problems</p></div>","0","","","","","","","","","","","","","","","","","","","","","","","","",""
"","","","","","single-stim-button","54","147069","0.0-2.0-16.0-0.0","633cbe0c6fa76f7cc4ca1099","E1","batch5","","9356","tol_tohand","","","","tol_peg_1","9356","9356","0","[[2,0,0],[0,0],[1]]","1","[[1,2,0],[3,0],[0]]","2","0","","","","","","4","","","","","","","","",""
"","","","","","single-stim-button","55","147842","0.0-2.0-16.0-1.0","633cbe0c6fa76f7cc4ca1099","E1","batch5","","772","tol_toboard","","","","tol_peg_2","772","772","0","[[2,0,0],[3,0],[1]]","1","[[1,2,0],[3,0],[0]]","2","0","","","","","","4","","","","","","","","",""
"","","","","","single-stim-button","56","149413","0.0-2.0-16.1-0.1","633cbe0c6fa76f7cc4ca1099","E1","batch5","","1571","tol_tohand","","","","tol_peg_1","1571","1571","0","[[0,0,0],[3,0],[1]]","2","[[1,2,0],[3,0],[0]]","2","0","","","","","","4","","","","","","","","",""
"","","","","","single-stim-button","57","150052","0.0-2.0-16.1-1.1","633cbe0c6fa76f7cc4ca1099","E1","batch5","","639","tol_toboard","","","","tol_peg_2","639","639","0","[[0,0,0],[3,2],[1]]","2","[[1,2,0],[3,0],[0]]","2","0","","","","","","4","","","","","","","","",""
"","","","","","single-stim-button","58","151326","0.0-2.0-16.2-0.2","633cbe0c6fa76f7cc4ca1099","E1","batch5","","1274","tol_tohand","","","","tol_peg_3","1274","1274","0","[[0,0,0],[3,2],[0]]","3","[[1,2,0],[3,0],[0]]","2","0","","","","","","4","","","","","","","","",""
"","","","","","single-stim-button","59","152065","0.0-2.0-16.2-1.2","633cbe0c6fa76f7cc4ca1099","E1","batch5","","739","tol_toboard","","","","tol_peg_1","739","739","0","[[1,0,0],[3,2],[0]]","3","[[1,2,0],[3,0],[0]]","2","0","","","","","","4","","","","","","","","",""
"","","","","","single-stim-button","60","152653","0.0-2.0-16.3-0.3","633cbe0c6fa76f7cc4ca1099","E1","batch5","","588","tol_tohand","","","","tol_peg_2","588","588","0","[[1,0,0],[3,0],[0]]","4","[[1,2,0],[3,0],[0]]","2","0","","","","","","4","","","","","","","","",""
"","","","","","single-stim-button","61","153209","0.0-2.0-16.3-1.3","633cbe0c6fa76f7cc4ca1099","E1","batch5","","556","tol_toboard","","","","tol_peg_1","556","556","0","[[1,2,0],[3,0],[0]]","4","[[1,2,0],[3,0],[0]]","2","0","","","","","","4","","","","","","","","",""
"","","","","","poldrack-single-stim","62","154217","0.0-2.0-17.0","633cbe0c6fa76f7cc4ca1099","E1","batch5","","-1","tol_feedback","","","true","","1000","1000","500","","","","","","-1","none","true","9356","12789","","","","","","","","","",""
"","","","","","html-button-response","63","155705","0.0-2.0-18.0","633cbe0c6fa76f7cc4ca1099","E1","batch5","","1486.7000000029802","tol_trial_num","<div class = centerbox><p class = center-block-text>problem <strong>4</strong> out of 25 problems</p></div>","0","","","","","","","","","","","","","","","","","","","","","","","","",""
"","","","","","single-stim-button","64","159325","0.0-2.0-19.0-0.0","633cbe0c6fa76f7cc4ca1099","E1","batch5","","3620","tol_tohand","","","","tol_peg_2","3620","3620","0","[[3,0,0],[2,0],[0]]","1","[[3,0,0],[1,0],[2]]","3","0","","","","","","3","","","","","","","","",""
"","","","","","single-stim-button","65","160048","0.0-2.0-19.0-1.0","633cbe0c6fa76f7cc4ca1099","E1","batch5","","721","tol_toboard","","","","tol_peg_1","721","721","0","[[3,1,0],[2,0],[0]]","1","[[3,0,0],[1,0],[2]]","3","0","","","","","","3","","","","","","","","",""
"","","","","","single-stim-button","66","160687","0.0-2.0-19.1-0.1","633cbe0c6fa76f7cc4ca1099","E1","batch5","","638","tol_tohand","","","","tol_peg_2","638","638","0","[[3,1,0],[0,0],[0]]","2","[[3,0,0],[1,0],[2]]","3","0","","","","","","3","","","","","","","","",""
"","","","","","single-stim-button","67","161609","0.0-2.0-19.1-1.1","633cbe0c6fa76f7cc4ca1099","E1","batch5","","922","tol_toboard","","","","tol_peg_3","922","922","0","[[3,1,0],[0,0],[2]]","2","[[3,0,0],[1,0],[2]]","3","0","","","","","","3","","","","","","","","",""
"","","","","","single-stim-button","68","162347","0.0-2.0-19.2-0.2","633cbe0c6fa76f7cc4ca1099","E1","batch5","","737","tol_tohand","","","","tol_peg_1","737","737","0","[[3,0,0],[0,0],[2]]","3","[[3,0,0],[1,0],[2]]","3","0","","","","","","3","","","","","","","","",""
"","","","","","single-stim-button","69","163022","0.0-2.0-19.2-1.2","633cbe0c6fa76f7cc4ca1099","E1","batch5","","674","tol_toboard","","","","tol_peg_2","674","674","0","[[3,0,0],[1,0],[2]]","3","[[3,0,0],[1,0],[2]]","3","0","","","","","","3","","","","","","","","",""
"","","","","","poldrack-single-stim","70","164025","0.0-2.0-20.0","633cbe0c6fa76f7cc4ca1099","E1","batch5","","-1","tol_feedback","","","true","","1000","1000","500","","","","","","-1","none","true","3620","4995","","","","","","","","","",""
"","","","","","html-button-response","71","165147","0.0-2.0-21.0","633cbe0c6fa76f7cc4ca1099","E1","batch5","","1120.3999999985099","tol_trial_num","<div class = centerbox><p class = center-block-text>problem <strong>5</strong> out of 25 problems</p></div>","0","","","","","","","","","","","","","","","","","","","","","","","","",""
"","","","","","single-stim-button","72","172123","0.0-2.0-22.0-0.0","633cbe0c6fa76f7cc4ca1099","E1","batch5","","6975","tol_tohand","","","","tol_peg_3","6975","6975","0","[[1,0,0],[2,0],[0]]","1","[[0,0,0],[1,2],[3]]","4","0","","","","","","7","","","","","","","","",""
"","","","","","single-stim-button","73","172811","0.0-2.0-22.0-1.0","633cbe0c6fa76f7cc4ca1099","E1","batch5","","688","tol_toboard","","","","tol_peg_1","688","688","0","[[1,3,0],[2,0],[0]]","1","[[0,0,0],[1,2],[3]]","4","0","","","","","","7","","","","","","","","",""
"","","","","","single-stim-button","74","173465","0.0-2.0-22.1-0.1","633cbe0c6fa76f7cc4ca1099","E1","batch5","","653","tol_tohand","","","","tol_peg_2","653","653","0","[[1,3,0],[0,0],[0]]","2","[[0,0,0],[1,2],[3]]","4","0","","","","","","7","","","","","","","","",""
"","","","","","single-stim-button","75","174421","0.0-2.0-22.1-1.1","633cbe0c6fa76f7cc4ca1099","E1","batch5","","955","tol_toboard","","","","tol_peg_3","955","955","0","[[1,3,0],[0,0],[2]]","2","[[0,0,0],[1,2],[3]]","4","0","","","","","","7","","","","","","","","",""
"","","","","","single-stim-button","76","182455","0.0-2.0-22.2-0.2","633cbe0c6fa76f7cc4ca1099","E1","batch5","","8033","tol_tohand","","","","tol_peg_1","8033","8033","0","[[1,0,0],[0,0],[2]]","3","[[0,0,0],[1,2],[3]]","4","0","","","","","","7","","","","","","","","",""
"","","","","","single-stim-button","77","183471","0.0-2.0-22.2-1.2","633cbe0c6fa76f7cc4ca1099","E1","batch5","","1016","tol_toboard","","","","tol_peg_2","1016","1016","0","[[1,0,0],[3,0],[2]]","3","[[0,0,0],[1,2],[3]]","4","0","","","","","","7","","","","","","","","",""
"","","","","","single-stim-button","78","187014","0.0-2.0-22.3-0.3","633cbe0c6fa76f7cc4ca1099","E1","batch5","","3541","tol_tohand","","","","tol_peg_3","3541","3541","0","[[1,0,0],[3,0],[0]]","4","[[0,0,0],[1,2],[3]]","4","0","","","","","","7","","","","","","","","",""
"","","","","","single-stim-button","79","190073","0.0-2.0-22.3-1.3","633cbe0c6fa76f7cc4ca1099","E1","batch5","","3059","tol_toboard","","","","tol_peg_2","3059","3059","0","[[1,0,0],[3,2],[0]]","4","[[0,0,0],[1,2],[3]]","4","0","","","","","","7","","","","","","","","",""
"","","","","","single-stim-button","80","191325","0.0-2.0-22.4-0.4","633cbe0c6fa76f7cc4ca1099","E1","batch5","","1251","tol_tohand","","","","tol_peg_1","1251","1251","0","[[0,0,0],[3,2],[0]]","5","[[0,0,0],[1,2],[3]]","4","0","","","","","","7","","","","","","","","",""
"","","","","","single-stim-button","81","192447","0.0-2.0-22.4-1.4","633cbe0c6fa76f7cc4ca1099","E1","batch5","","1122","tol_toboard","","","","tol_peg_3","1122","1122","0","[[0,0,0],[3,2],[1]]","5","[[0,0,0],[1,2],[3]]","4","0","","","","","","7","","","","","","","","",""
"","","","","","single-stim-button","82","196509","0.0-2.0-22.5-0.5","633cbe0c6fa76f7cc4ca1099","E1","batch5","","4062","tol_tohand","","","","tol_peg_2","4062","4062","0","[[0,0,0],[3,0],[1]]","6","[[0,0,0],[1,2],[3]]","4","0","","","","","","7","","","","","","","","",""
"","","","","","single-stim-button","83","197278","0.0-2.0-22.5-1.5","633cbe0c6fa76f7cc4ca1099","E1","batch5","","769","tol_toboard","","","","tol_peg_1","769","769","0","[[2,0,0],[3,0],[1]]","6","[[0,0,0],[1,2],[3]]","4","0","","","","","","7","","","","","","","","",""
"","","","","","single-stim-button","84","198134","0.0-2.0-22.6-0.6","633cbe0c6fa76f7cc4ca1099","E1","batch5","","855","tol_tohand","","","","tol_peg_3","855","855","0","[[2,0,0],[3,0],[0]]","7","[[0,0,0],[1,2],[3]]","4","0","","","","","","7","","","","","","","","",""
"","","","","","single-stim-button","85","199435","0.0-2.0-22.6-1.6","633cbe0c6fa76f7cc4ca1099","E1","batch5","","1300","tol_toboard","","","","tol_peg_1","1300","1300","0","[[2,1,0],[3,0],[0]]","7","[[0,0,0],[1,2],[3]]","4","0","","","","","","7","","","","","","","","",""
"","","","","","single-stim-button","86","200023","0.0-2.0-22.7-0.7","633cbe0c6fa76f7cc4ca1099","E1","batch5","","588","tol_tohand","","","","tol_peg_2","588","588","0","[[2,1,0],[0,0],[0]]","8","[[0,0,0],[1,2],[3]]","4","0","","","","","","7","","","","","","","","",""
"","","","","","single-stim-button","87","200695","0.0-2.0-22.7-1.7","633cbe0c6fa76f7cc4ca1099","E1","batch5","","671","tol_toboard","","","","tol_peg_3","671","671","0","[[2,1,0],[0,0],[3]]","8","[[0,0,0],[1,2],[3]]","4","0","","","","","","7","","","","","","","","",""
"","","","","","single-stim-button","88","201469","0.0-2.0-22.8-0.8","633cbe0c6fa76f7cc4ca1099","E1","batch5","","772","tol_tohand","","","","tol_peg_1","772","772","0","[[2,0,0],[0,0],[3]]","9","[[0,0,0],[1,2],[3]]","4","0","","","","","","7","","","","","","","","",""
"","","","","","single-stim-button","89","202075","0.0-2.0-22.8-1.8","633cbe0c6fa76f7cc4ca1099","E1","batch5","","605","tol_toboard","","","","tol_peg_2","605","605","0","[[2,0,0],[1,0],[3]]","9","[[0,0,0],[1,2],[3]]","4","0","","","","","","7","","","","","","","","",""
"","","","","","single-stim-button","90","202681","0.0-2.0-22.9-0.9","633cbe0c6fa76f7cc4ca1099","E1","batch5","","604","tol_tohand","","","","tol_peg_1","604","604","0","[[0,0,0],[1,0],[3]]","10","[[0,0,0],[1,2],[3]]","4","0","","","","","","7","","","","","","","","",""
"","","","","","single-stim-button","91","203220","0.0-2.0-22.9-1.9","633cbe0c6fa76f7cc4ca1099","E1","batch5","","539","tol_toboard","","","","tol_peg_2","539","539","0","[[0,0,0],[1,2],[3]]","10","[[0,0,0],[1,2],[3]]","4","0","","","","","","7","","","","","","","","",""
"","","","","","poldrack-single-stim","92","204226","0.0-2.0-23.0","633cbe0c6fa76f7cc4ca1099","E1","batch5","","-1","tol_feedback","","","true","","1000","1000","500","","","","","","-1","none","true","6975","27334","","","","","","","","","",""
"","","","","","html-button-response","93","205446","0.0-2.0-24.0","633cbe0c6fa76f7cc4ca1099","E1","batch5","","1217.7999999970198","tol_trial_num","<div class = centerbox><p class = center-block-text>problem <strong>6</strong> out of 25 problems</p></div>","0","","","","","","","","","","","","","","","","","","","","","","","","",""
"","","","","","single-stim-button","94","259617","0.0-2.0-25.0-0.0","633cbe0c6fa76f7cc4ca1099","E1","batch5","","54171","tol_tohand","","","","tol_peg_3","54171","54171","0","[[0,0,0],[1,2],[0]]","1","[[1,0,0],[2,3],[0]]","5","0","","","","","","6","","","","","","","","",""
"","","","","","single-stim-button","95","261129","0.0-2.0-25.0-1.0","633cbe0c6fa76f7cc4ca1099","E1","batch5","","1512","tol_toboard","","","","tol_peg_1","1512","1512","0","[[3,0,0],[1,2],[0]]","1","[[1,0,0],[2,3],[0]]","5","0","","","","","","6","","","","","","","","",""
"","","","","","single-stim-button","96","261711","0.0-2.0-25.1-0.1","633cbe0c6fa76f7cc4ca1099","E1","batch5","","581","tol_tohand","","","","tol_peg_2","581","581","0","[[3,0,0],[1,0],[0]]","2","[[1,0,0],[2,3],[0]]","5","0","","","","","","6","","","","","","","","",""
"","","","","","single-stim-button","97","262277","0.0-2.0-25.1-1.1","633cbe0c6fa76f7cc4ca1099","E1","batch5","","565","tol_toboard","","","","tol_peg_1","565","565","0","[[3,2,0],[1,0],[0]]","2","[[1,0,0],[2,3],[0]]","5","0","","","","","","6","","","","","","","","",""
"","","","","","single-stim-button","98","262848","0.0-2.0-25.2-0.2","633cbe0c6fa76f7cc4ca1099","E1","batch5","","571","tol_tohand","","","","tol_peg_2","571","571","0","[[3,2,0],[0,0],[0]]","3","[[1,0,0],[2,3],[0]]","5","0","","","","","","6","","","","","","","","",""
"","","","","","single-stim-button","99","263420","0.0-2.0-25.2-1.2","633cbe0c6fa76f7cc4ca1099","E1","batch5","","571","tol_toboard","","","","tol_peg_3","571","571","0","[[3,2,0],[0,0],[1]]","3","[[1,0,0],[2,3],[0]]","5","0","","","","","","6","","","","","","","","",""
"","","","","","single-stim-button","100","264075","0.0-2.0-25.3-0.3","633cbe0c6fa76f7cc4ca1099","E1","batch5","","655","tol_tohand","","","","tol_peg_1","655","655","0","[[3,0,0],[0,0],[1]]","4","[[1,0,0],[2,3],[0]]","5","0","","","","","","6","","","","","","","","",""
"","","","","","single-stim-button","101","264798","0.0-2.0-25.3-1.3","633cbe0c6fa76f7cc4ca1099","E1","batch5","","721","tol_toboard","","","","tol_peg_2","721","721","0","[[3,0,0],[2,0],[1]]","4","[[1,0,0],[2,3],[0]]","5","0","","","","","","6","","","","","","","","",""
"","","","","","single-stim-button","102","265252","0.0-2.0-25.4-0.4","633cbe0c6fa76f7cc4ca1099","E1","batch5","","454","tol_tohand","","","","tol_peg_1","454","454","0","[[0,0,0],[2,0],[1]]","5","[[1,0,0],[2,3],[0]]","5","0","","","","","","6","","","","","","","","",""
"","","","","","single-stim-button","103","265788","0.0-2.0-25.4-1.4","633cbe0c6fa76f7cc4ca1099","E1","batch5","","536","tol_toboard","","","","tol_peg_2","536","536","0","[[0,0,0],[2,3],[1]]","5","[[1,0,0],[2,3],[0]]","5","0","","","","","","6","","","","","","","","",""
"","","","","","single-stim-button","104","266394","0.0-2.0-25.5-0.5","633cbe0c6fa76f7cc4ca1099","E1","batch5","","605","tol_tohand","","","","tol_peg_3","605","605","0","[[0,0,0],[2,3],[0]]","6","[[1,0,0],[2,3],[0]]","5","0","","","","","","6","","","","","","","","",""
"","","","","","single-stim-button","105","267217","0.0-2.0-25.5-1.5","633cbe0c6fa76f7cc4ca1099","E1","batch5","","822","tol_toboard","","","","tol_peg_1","822","822","0","[[1,0,0],[2,3],[0]]","6","[[1,0,0],[2,3],[0]]","5","0","","","","","","6","","","","","","","","",""
"","","","","","poldrack-single-stim","106","268221","0.0-2.0-26.0","633cbe0c6fa76f7cc4ca1099","E1","batch5","","-1","tol_feedback","","","true","","1000","1000","500","","","","","","-1","none","true","54171","57037","","","","","","","","","",""
"","","","","","html-button-response","107","270032","0.0-2.0-27.0","633cbe0c6fa76f7cc4ca1099","E1","batch5","","1810.2000000029802","tol_trial_num","<div class = centerbox><p class = center-block-text>problem <strong>7</strong> out of 25 problems</p></div>","0","","","","","","","","","","","","","","","","","","","","","","","","",""
"","","","","","single-stim-button","108","278884","0.0-2.0-28.0-0.0","633cbe0c6fa76f7cc4ca1099","E1","batch5","","8850","tol_tohand","","","","tol_peg_3","8850","8850","0","[[2,1,0],[0,0],[0]]","1","[[1,2,0],[3,0],[0]]","6","0","","","","","","5","","","","","","","","",""
"","","","","","single-stim-button","109","279708","0.0-2.0-28.0-1.0","633cbe0c6fa76f7cc4ca1099","E1","batch5","","824","tol_toboard","","","","tol_peg_2","824","824","0","[[2,1,0],[3,0],[0]]","1","[[1,2,0],[3,0],[0]]","6","0","","","","","","5","","","","","","","","",""
"","","","","","single-stim-button","110","280463","0.0-2.0-28.1-0.1","633cbe0c6fa76f7cc4ca1099","E1","batch5","","754","tol_tohand","","","","tol_peg_1","754","754","0","[[2,0,0],[3,0],[0]]","2","[[1,2,0],[3,0],[0]]","6","0","","","","","","5","","","","","","","","",""
"","","","","","single-stim-button","111","281220","0.0-2.0-28.1-1.1","633cbe0c6fa76f7cc4ca1099","E1","batch5","","756","tol_toboard","","","","tol_peg_2","756","756","0","[[2,0,0],[3,1],[0]]","2","[[1,2,0],[3,0],[0]]","6","0","","","","","","5","","","","","","","","",""
"","","","","","single-stim-button","112","281934","0.0-2.0-28.2-0.2","633cbe0c6fa76f7cc4ca1099","E1","batch5","","713","tol_tohand","","","","tol_peg_1","713","713","0","[[0,0,0],[3,1],[0]]","3","[[1,2,0],[3,0],[0]]","6","0","","","","","","5","","","","","","","","",""
"","","","","","single-stim-button","113","282752","0.0-2.0-28.2-1.2","633cbe0c6fa76f7cc4ca1099","E1","batch5","","818","tol_toboard","","","","tol_peg_3","818","818","0","[[0,0,0],[3,1],[2]]","3","[[1,2,0],[3,0],[0]]","6","0","","","","","","5","","","","","","","","",""
"","","","","","single-stim-button","114","283292","0.0-2.0-28.3-0.3","633cbe0c6fa76f7cc4ca1099","E1","batch5","","538","tol_tohand","","","","tol_peg_2","538","538","0","[[0,0,0],[3,0],[2]]","4","[[1,2,0],[3,0],[0]]","6","0","","","","","","5","","","","","","","","",""
"","","","","","single-stim-button","115","283997","0.0-2.0-28.3-1.3","633cbe0c6fa76f7cc4ca1099","E1","batch5","","705","tol_toboard","","","","tol_peg_1","705","705","0","[[1,0,0],[3,0],[2]]","4","[[1,2,0],[3,0],[0]]","6","0","","","","","","5","","","","","","","","",""
"","","","","","single-stim-button","116","284636","0.0-2.0-28.4-0.4","633cbe0c6fa76f7cc4ca1099","E1","batch5","","637","tol_tohand","","","","tol_peg_3","637","637","0","[[1,0,0],[3,0],[0]]","5","[[1,2,0],[3,0],[0]]","6","0","","","","","","5","","","","","","","","",""
"","","","","","single-stim-button","117","285275","0.0-2.0-28.4-1.4","633cbe0c6fa76f7cc4ca1099","E1","batch5","","639","tol_toboard","","","","tol_peg_1","639","639","0","[[1,2,0],[3,0],[0]]","5","[[1,2,0],[3,0],[0]]","6","0","","","","","","5","","","","","","","","",""
"","","","","","poldrack-single-stim","118","286284","0.0-2.0-29.0","633cbe0c6fa76f7cc4ca1099","E1","batch5","","-1","tol_feedback","","","true","","1000","1000","500","","","","","","-1","none","true","8850","11492","","","","","","","","","",""
"","","","","","html-button-response","119","287527","0.0-2.0-30.0","633cbe0c6fa76f7cc4ca1099","E1","batch5","","1241.0999999940395","tol_trial_num","<div class = centerbox><p class = center-block-text>problem <strong>8</strong> out of 25 problems</p></div>","0","","","","","","","","","","","","","","","","","","","","","","","","",""
"","","","","","single-stim-button","120","291579","0.0-2.0-31.0-0.0","633cbe0c6fa76f7cc4ca1099","E1","batch5","","4050","tol_tohand","","","","tol_peg_3","4050","4050","0","[[0,0,0],[2,3],[0]]","1","[[1,2,0],[3,0],[0]]","7","0","","","","","","4","","","","","","","","",""
"","","","","","single-stim-button","121","292350","0.0-2.0-31.0-1.0","633cbe0c6fa76f7cc4ca1099","E1","batch5","","771","tol_toboard","","","","tol_peg_1","771","771","0","[[1,0,0],[2,3],[0]]","1","[[1,2,0],[3,0],[0]]","7","0","","","","","","4","","","","","","","","",""
"","","","","","single-stim-button","122","292986","0.0-2.0-31.1-0.1","633cbe0c6fa76f7cc4ca1099","E1","batch5","","635","tol_tohand","","","","tol_peg_2","635","635","0","[[1,0,0],[2,0],[0]]","2","[[1,2,0],[3,0],[0]]","7","0","","","","","","4","","","","","","","","",""
"","","","","","single-stim-button","123","293842","0.0-2.0-31.1-1.1","633cbe0c6fa76f7cc4ca1099","E1","batch5","","856","tol_toboard","","","","tol_peg_3","856","856","0","[[1,0,0],[2,0],[3]]","2","[[1,2,0],[3,0],[0]]","7","0","","","","","","4","","","","","","","","",""
"","","","","","single-stim-button","124","295013","0.0-2.0-31.2-0.2","633cbe0c6fa76f7cc4ca1099","E1","batch5","","1170","tol_tohand","","","","tol_peg_2","1170","1170","0","[[1,0,0],[0,0],[3]]","3","[[1,2,0],[3,0],[0]]","7","0","","","","","","4","","","","","","","","",""
"","","","","","single-stim-button","125","295535","0.0-2.0-31.2-1.2","633cbe0c6fa76f7cc4ca1099","E1","batch5","","520","tol_toboard","","","","tol_peg_1","520","520","0","[[1,2,0],[0,0],[3]]","3","[[1,2,0],[3,0],[0]]","7","0","","","","","","4","","","","","","","","",""
"","","","","","single-stim-button","126","296155","0.0-2.0-31.3-0.3","633cbe0c6fa76f7cc4ca1099","E1","batch5","","620","tol_tohand","","","","tol_peg_3","620","620","0","[[1,2,0],[0,0],[0]]","4","[[1,2,0],[3,0],[0]]","7","0","","","","","","4","","","","","","","","",""
"","","","","","single-stim-button","127","296860","0.0-2.0-31.3-1.3","633cbe0c6fa76f7cc4ca1099","E1","batch5","","704","tol_toboard","","","","tol_peg_2","704","704","0","[[1,2,0],[3,0],[0]]","4","[[1,2,0],[3,0],[0]]","7","0","","","","","","4","","","","","","","","",""
"","","","","","poldrack-single-stim","128","297871","0.0-2.0-32.0","633cbe0c6fa76f7cc4ca1099","E1","batch5","","-1","tol_feedback","","","true","","1000","1000","500","","","","","","-1","none","true","4050","6475","","","","","","","","","",""
"","","","","","html-button-response","129","299017","0.0-2.0-33.0","633cbe0c6fa76f7cc4ca1099","E1","batch5","","1144.8999999985099","tol_trial_num","<div class = centerbox><p class = center-block-text>problem <strong>9</strong> out of 25 problems</p></div>","0","","","","","","","","","","","","","","","","","","","","","","","","",""
"","","","","","single-stim-button","130","310587","0.0-2.0-34.0-0.0","633cbe0c6fa76f7cc4ca1099","E1","batch5","","11569","tol_tohand","","","","tol_peg_3","11569","11569","0","[[3,2,0],[0,0],[0]]","1","[[2,1,0],[3,0],[0]]","8","0","","","","","","6","","","","","","","","",""
"","","","","","single-stim-button","131","311330","0.0-2.0-34.0-1.0","633cbe0c6fa76f7cc4ca1099","E1","batch5","","741","tol_toboard","","","","tol_peg_2","741","741","0","[[3,2,0],[1,0],[0]]","1","[[2,1,0],[3,0],[0]]","8","0","","","","","","6","","","","","","","","",""
"","","","","","single-stim-button","132","311934","0.0-2.0-34.1-0.1","633cbe0c6fa76f7cc4ca1099","E1","batch5","","604","tol_tohand","","","","tol_peg_1","604","604","0","[[3,0,0],[1,0],[0]]","2","[[2,1,0],[3,0],[0]]","8","0","","","","","","6","","","","","","","","",""
"","","","","","single-stim-button","133","312440","0.0-2.0-34.1-1.1","633cbe0c6fa76f7cc4ca1099","E1","batch5","","505","tol_toboard","","","","tol_peg_2","505","505","0","[[3,0,0],[1,2],[0]]","2","[[2,1,0],[3,0],[0]]","8","0","","","","","","6","","","","","","","","",""
"","","","","","single-stim-button","134","312946","0.0-2.0-34.2-0.2","633cbe0c6fa76f7cc4ca1099","E1","batch5","","505","tol_tohand","","","","tol_peg_1","505","505","0","[[0,0,0],[1,2],[0]]","3","[[2,1,0],[3,0],[0]]","8","0","","","","","","6","","","","","","","","",""
"","","","","","single-stim-button","135","313682","0.0-2.0-34.2-1.2","633cbe0c6fa76f7cc4ca1099","E1","batch5","","734","tol_toboard","","","","tol_peg_3","734","734","0","[[0,0,0],[1,2],[3]]","3","[[2,1,0],[3,0],[0]]","8","0","","","","","","6","","","","","","","","",""
"","","","","","single-stim-button","136","314337","0.0-2.0-34.3-0.3","633cbe0c6fa76f7cc4ca1099","E1","batch5","","655","tol_tohand","","","","tol_peg_2","655","655","0","[[0,0,0],[1,0],[3]]","4","[[2,1,0],[3,0],[0]]","8","0","","","","","","6","","","","","","","","",""
"","","","","","single-stim-button","137","314994","0.0-2.0-34.3-1.3","633cbe0c6fa76f7cc4ca1099","E1","batch5","","656","tol_toboard","","","","tol_peg_1","656","656","0","[[2,0,0],[1,0],[3]]","4","[[2,1,0],[3,0],[0]]","8","0","","","","","","6","","","","","","","","",""
"","","","","","single-stim-button","138","315584","0.0-2.0-34.4-0.4","633cbe0c6fa76f7cc4ca1099","E1","batch5","","590","tol_tohand","","","","tol_peg_2","590","590","0","[[2,0,0],[0,0],[3]]","5","[[2,1,0],[3,0],[0]]","8","0","","","","","","6","","","","","","","","",""
"","","","","","single-stim-button","139","316141","0.0-2.0-34.4-1.4","633cbe0c6fa76f7cc4ca1099","E1","batch5","","557","tol_toboard","","","","tol_peg_1","557","557","0","[[2,1,0],[0,0],[3]]","5","[[2,1,0],[3,0],[0]]","8","0","","","","","","6","","","","","","","","",""
"","","","","","single-stim-button","140","316779","0.0-2.0-34.5-0.5","633cbe0c6fa76f7cc4ca1099","E1","batch5","","638","tol_tohand","","","","tol_peg_3","638","638","0","[[2,1,0],[0,0],[0]]","6","[[2,1,0],[3,0],[0]]","8","0","","","","","","6","","","","","","","","",""
"","","","","","single-stim-button","141","317416","0.0-2.0-34.5-1.5","633cbe0c6fa76f7cc4ca1099","E1","batch5","","637","tol_toboard","","","","tol_peg_2","637","637","0","[[2,1,0],[3,0],[0]]","6","[[2,1,0],[3,0],[0]]","8","0","","","","","","6","","","","","","","","",""
"","","","","","poldrack-single-stim","142","318425","0.0-2.0-35.0","633cbe0c6fa76f7cc4ca1099","E1","batch5","","-1","tol_feedback","","","true","","1000","1000","500","","","","","","-1","none","true","11569","14561","","","","","","","","","",""
"","","","","","html-button-response","143","319505","0.0-2.0-36.0","633cbe0c6fa76f7cc4ca1099","E1","batch5","","1078.6000000014901","tol_trial_num","<div class = centerbox><p class = center-block-text>problem <strong>10</strong> out of 25 problems</p></div>","0","","","","","","","","","","","","","","","","","","","","","","","","",""
"","","","","","single-stim-button","144","322388","0.0-2.0-37.0-0.0","633cbe0c6fa76f7cc4ca1099","E1","batch5","","2882","tol_tohand","","","","tol_peg_2","2882","2882","0","[[3,0,0],[0,0],[2]]","1","[[3,0,0],[2,1],[0]]","9","0","","","","","","3","","","","","","","","",""
"","","","","","single-stim-button","145","322860","0.0-2.0-37.0-1.0","633cbe0c6fa76f7cc4ca1099","E1","batch5","","472","tol_toboard","","","","tol_peg_1","472","472","0","[[3,1,0],[0,0],[2]]","1","[[3,0,0],[2,1],[0]]","9","0","","","","","","3","","","","","","","","",""
"","","","","","single-stim-button","146","323433","0.0-2.0-37.1-0.1","633cbe0c6fa76f7cc4ca1099","E1","batch5","","572","tol_tohand","","","","tol_peg_3","572","572","0","[[3,1,0],[0,0],[0]]","2","[[3,0,0],[2,1],[0]]","9","0","","","","","","3","","","","","","","","",""
"","","","","","single-stim-button","147","324075","0.0-2.0-37.1-1.1","633cbe0c6fa76f7cc4ca1099","E1","batch5","","641","tol_toboard","","","","tol_peg_2","641","641","0","[[3,1,0],[2,0],[0]]","2","[[3,0,0],[2,1],[0]]","9","0","","","","","","3","","","","","","","","",""
"","","","","","single-stim-button","148","324592","0.0-2.0-37.2-0.2","633cbe0c6fa76f7cc4ca1099","E1","batch5","","515","tol_tohand","","","","tol_peg_1","515","515","0","[[3,0,0],[2,0],[0]]","3","[[3,0,0],[2,1],[0]]","9","0","","","","","","3","","","","","","","","",""
"","","","","","single-stim-button","149","325197","0.0-2.0-37.2-1.2","633cbe0c6fa76f7cc4ca1099","E1","batch5","","605","tol_toboard","","","","tol_peg_2","605","605","0","[[3,0,0],[2,1],[0]]","3","[[3,0,0],[2,1],[0]]","9","0","","","","","","3","","","","","","","","",""
"","","","","","poldrack-single-stim","150","326202","0.0-2.0-38.0","633cbe0c6fa76f7cc4ca1099","E1","batch5","","-1","tol_feedback","","","true","","1000","1000","500","","","","","","-1","none","true","2882","3969","","","","","","","","","",""
"","","","","","html-button-response","151","327224","0.0-2.0-39.0","633cbe0c6fa76f7cc4ca1099","E1","batch5","","1020.3999999985099","tol_trial_num","<div class = centerbox><p class = center-block-text>problem <strong>11</strong> out of 25 problems</p></div>","0","","","","","","","","","","","","","","","","","","","","","","","","",""
"","","","","","single-stim-button","152","331194","0.0-2.0-40.0-0.0","633cbe0c6fa76f7cc4ca1099","E1","batch5","","3968","tol_tohand","","","","tol_peg_1","3968","3968","0","[[1,0,0],[3,0],[0]]","1","[[2,0,0],[1,3],[0]]","10","0","","","","","","6","","","","","","","","",""
"","","","","","single-stim-button","153","346897","0.0-2.0-40.0-1.0","633cbe0c6fa76f7cc4ca1099","E1","batch5","","15703","tol_toboard","","","","tol_peg_2","15703","15703","0","[[1,0,0],[3,2],[0]]","1","[[2,0,0],[1,3],[0]]","10","0","","","","","","6","","","","","","","","",""
"","","","","","single-stim-button","154","347613","0.0-2.0-40.1-0.1","633cbe0c6fa76f7cc4ca1099","E1","batch5","","716","tol_tohand","","","","tol_peg_1","716","716","0","[[0,0,0],[3,2],[0]]","2","[[2,0,0],[1,3],[0]]","10","0","","","","","","6","","","","","","","","",""
"","","","","","single-stim-button","155","348452","0.0-2.0-40.1-1.1","633cbe0c6fa76f7cc4ca1099","E1","batch5","","838","tol_toboard","","","","tol_peg_3","838","838","0","[[0,0,0],[3,2],[1]]","2","[[2,0,0],[1,3],[0]]","10","0","","","","","","6","","","","","","","","",""
"","","","","","single-stim-button","156","349041","0.0-2.0-40.2-0.2","633cbe0c6fa76f7cc4ca1099","E1","batch5","","589","tol_tohand","","","","tol_peg_2","589","589","0","[[0,0,0],[3,0],[1]]","3","[[2,0,0],[1,3],[0]]","10","0","","","","","","6","","","","","","","","",""
"","","","","","single-stim-button","157","349894","0.0-2.0-40.2-1.2","633cbe0c6fa76f7cc4ca1099","E1","batch5","","853","tol_toboard","","","","tol_peg_1","853","853","0","[[2,0,0],[3,0],[1]]","3","[[2,0,0],[1,3],[0]]","10","0","","","","","","6","","","","","","","","",""
"","","","","","single-stim-button","158","350685","0.0-2.0-40.3-0.3","633cbe0c6fa76f7cc4ca1099","E1","batch5","","790","tol_tohand","","","","tol_peg_2","790","790","0","[[2,0,0],[0,0],[1]]","4","[[2,0,0],[1,3],[0]]","10","0","","","","","","6","","","","","","","","",""
"","","","","","single-stim-button","159","351240","0.0-2.0-40.3-1.3","633cbe0c6fa76f7cc4ca1099","E1","batch5","","554","tol_toboard","","","","tol_peg_1","554","554","0","[[2,3,0],[0,0],[1]]","4","[[2,0,0],[1,3],[0]]","10","0","","","","","","6","","","","","","","","",""
"","","","","","single-stim-button","160","351912","0.0-2.0-40.4-0.4","633cbe0c6fa76f7cc4ca1099","E1","batch5","","670","tol_tohand","","","","tol_peg_3","670","670","0","[[2,3,0],[0,0],[0]]","5","[[2,0,0],[1,3],[0]]","10","0","","","","","","6","","","","","","","","",""
"","","","","","single-stim-button","161","352768","0.0-2.0-40.4-1.4","633cbe0c6fa76f7cc4ca1099","E1","batch5","","856","tol_toboard","","","","tol_peg_2","856","856","0","[[2,3,0],[1,0],[0]]","5","[[2,0,0],[1,3],[0]]","10","0","","","","","","6","","","","","","","","",""
"","","","","","single-stim-button","162","353272","0.0-2.0-40.5-0.5","633cbe0c6fa76f7cc4ca1099","E1","batch5","","503","tol_tohand","","","","tol_peg_1","503","503","0","[[2,0,0],[1,0],[0]]","6","[[2,0,0],[1,3],[0]]","10","0","","","","","","6","","","","","","","","",""
"","","","","","single-stim-button","163","353811","0.0-2.0-40.5-1.5","633cbe0c6fa76f7cc4ca1099","E1","batch5","","537","tol_toboard","","","","tol_peg_2","537","537","0","[[2,0,0],[1,3],[0]]","6","[[2,0,0],[1,3],[0]]","10","0","","","","","","6","","","","","","","","",""
"","","","","","poldrack-single-stim","164","354813","0.0-2.0-41.0","633cbe0c6fa76f7cc4ca1099","E1","batch5","","-1","tol_feedback","","","true","","1000","1000","500","","","","","","-1","none","true","3968","7236","","","","","","","","","",""
"","","","","","html-button-response","165","370151","0.0-2.0-42.0","633cbe0c6fa76f7cc4ca1099","E1","batch5","","15335.80000000447","tol_trial_num","<div class = centerbox><p class = center-block-text>problem <strong>12</strong> out of 25 problems</p></div>","0","","","","","","","","","","","","","","","","","","","","","","","","",""
"","","","","","single-stim-button","166","376053","0.0-2.0-43.0-0.0","633cbe0c6fa76f7cc4ca1099","E1","batch5","","5901","tol_tohand","","","","tol_peg_1","5901","5901","0","[[1,0,0],[3,0],[0]]","1","[[2,3,0],[0,0],[1]]","11","0","","","","","","4","","","","","","","","",""
"","","","","","single-stim-button","167","376592","0.0-2.0-43.0-1.0","633cbe0c6fa76f7cc4ca1099","E1","batch5","","538","tol_toboard","","","","tol_peg_2","538","538","0","[[1,0,0],[3,2],[0]]","1","[[2,3,0],[0,0],[1]]","11","0","","","","","","4","","","","","","","","",""
"","","","","","single-stim-button","168","377065","0.0-2.0-43.1-0.1","633cbe0c6fa76f7cc4ca1099","E1","batch5","","471","tol_tohand","","","","tol_peg_1","471","471","0","[[0,0,0],[3,2],[0]]","2","[[2,3,0],[0,0],[1]]","11","0","","","","","","4","","","","","","","","",""
"","","","","","single-stim-button","169","377889","0.0-2.0-43.1-1.1","633cbe0c6fa76f7cc4ca1099","E1","batch5","","822","tol_toboard","","","","tol_peg_3","822","822","0","[[0,0,0],[3,2],[1]]","2","[[2,3,0],[0,0],[1]]","11","0","","","","","","4","","","","","","","","",""
"","","","","","single-stim-button","170","378463","0.0-2.0-43.2-0.2","633cbe0c6fa76f7cc4ca1099","E1","batch5","","573","tol_tohand","","","","tol_peg_2","573","573","0","[[0,0,0],[3,0],[1]]","3","[[2,3,0],[0,0],[1]]","11","0","","","","","","4","","","","","","","","",""
"","","","","","single-stim-button","171","379185","0.0-2.0-43.2-1.2","633cbe0c6fa76f7cc4ca1099","E1","batch5","","722","tol_toboard","","","","tol_peg_1","722","722","0","[[2,0,0],[3,0],[1]]","3","[[2,3,0],[0,0],[1]]","11","0","","","","","","4","","","","","","","","",""
"","","","","","single-stim-button","172","379742","0.0-2.0-43.3-0.3","633cbe0c6fa76f7cc4ca1099","E1","batch5","","556","tol_tohand","","","","tol_peg_2","556","556","0","[[2,0,0],[0,0],[1]]","4","[[2,3,0],[0,0],[1]]","11","0","","","","","","4","","","","","","","","",""
"","","","","","single-stim-button","173","380231","0.0-2.0-43.3-1.3","633cbe0c6fa76f7cc4ca1099","E1","batch5","","489","tol_toboard","","","","tol_peg_1","489","489","0","[[2,3,0],[0,0],[1]]","4","[[2,3,0],[0,0],[1]]","11","0","","","","","","4","","","","","","","","",""
"","","","","","poldrack-single-stim","174","381239","0.0-2.0-44.0","633cbe0c6fa76f7cc4ca1099","E1","batch5","","-1","tol_feedback","","","true","","1000","1000","500","","","","","","-1","none","true","5901","7501","","","","","","","","","",""
"","","","","","html-button-response","175","382276","0.0-2.0-45.0","633cbe0c6fa76f7cc4ca1099","E1","batch5","","1036.1000000014901","tol_trial_num","<div class = centerbox><p class = center-block-text>problem <strong>13</strong> out of 25 problems</p></div>","0","","","","","","","","","","","","","","","","","","","","","","","","",""
"","","","","","single-stim-button","176","391518","0.0-2.0-46.0-0.0","633cbe0c6fa76f7cc4ca1099","E1","batch5","","9240","tol_tohand","","","","tol_peg_1","9240","9240","0","[[1,0,0],[3,0],[0]]","1","[[0,0,0],[2,3],[1]]","12","0","","","","","","4","","","","","","","","",""
"","","","","","single-stim-button","177","394738","0.0-2.0-46.0-1.0","633cbe0c6fa76f7cc4ca1099","E1","batch5","","3220","tol_toboard","","","","tol_peg_2","3220","3220","0","[[1,0,0],[3,2],[0]]","1","[[0,0,0],[2,3],[1]]","12","0","","","","","","4","","","","","","","","",""
"","","","","","single-stim-button","178","395542","0.0-2.0-46.1-0.1","633cbe0c6fa76f7cc4ca1099","E1","batch5","","804","tol_tohand","","","","tol_peg_1","804","804","0","[[0,0,0],[3,2],[0]]","2","[[0,0,0],[2,3],[1]]","12","0","","","","","","4","","","","","","","","",""
"","","","","","single-stim-button","179","396665","0.0-2.0-46.1-1.1","633cbe0c6fa76f7cc4ca1099","E1","batch5","","1123","tol_toboard","","","","tol_peg_3","1123","1123","0","[[0,0,0],[3,2],[1]]","2","[[0,0,0],[2,3],[1]]","12","0","","","","","","4","","","","","","","","",""
"","","","","","single-stim-button","180","403492","0.0-2.0-46.2-0.2","633cbe0c6fa76f7cc4ca1099","E1","batch5","","6827","tol_tohand","","","","tol_peg_3","6827","6827","0","[[0,0,0],[3,2],[0]]","3","[[0,0,0],[2,3],[1]]","12","0","","","","","","4","","","","","","","","",""
"","","","","","single-stim-button","181","404395","0.0-2.0-46.2-1.2","633cbe0c6fa76f7cc4ca1099","E1","batch5","","902","tol_toboard","","","","tol_peg_1","902","902","0","[[1,0,0],[3,2],[0]]","3","[[0,0,0],[2,3],[1]]","12","0","","","","","","4","","","","","","","","",""
"","","","","","single-stim-button","182","404999","0.0-2.0-46.3-0.3","633cbe0c6fa76f7cc4ca1099","E1","batch5","","603","tol_tohand","","","","tol_peg_2","603","603","0","[[1,0,0],[3,0],[0]]","4","[[0,0,0],[2,3],[1]]","12","0","","","","","","4","","","","","","","","",""
"","","","","","single-stim-button","183","405762","0.0-2.0-46.3-1.3","633cbe0c6fa76f7cc4ca1099","E1","batch5","","761","tol_toboard","","","","tol_peg_3","761","761","0","[[1,0,0],[3,0],[2]]","4","[[0,0,0],[2,3],[1]]","12","0","","","","","","4","","","","","","","","",""
"","","","","","single-stim-button","184","406427","0.0-2.0-46.4-0.4","633cbe0c6fa76f7cc4ca1099","E1","batch5","","665","tol_tohand","","","","tol_peg_2","665","665","0","[[1,0,0],[0,0],[2]]","5","[[0,0,0],[2,3],[1]]","12","0","","","","","","4","","","","","","","","",""
"","","","","","single-stim-button","185","407200","0.0-2.0-46.4-1.4","633cbe0c6fa76f7cc4ca1099","E1","batch5","","772","tol_toboard","","","","tol_peg_1","772","772","0","[[1,3,0],[0,0],[2]]","5","[[0,0,0],[2,3],[1]]","12","0","","","","","","4","","","","","","","","",""
"","","","","","single-stim-button","186","407916","0.0-2.0-46.5-0.5","633cbe0c6fa76f7cc4ca1099","E1","batch5","","716","tol_tohand","","","","tol_peg_3","716","716","0","[[1,3,0],[0,0],[0]]","6","[[0,0,0],[2,3],[1]]","12","0","","","","","","4","","","","","","","","",""
"","","","","","single-stim-button","187","408488","0.0-2.0-46.5-1.5","633cbe0c6fa76f7cc4ca1099","E1","batch5","","571","tol_toboard","","","","tol_peg_2","571","571","0","[[1,3,0],[2,0],[0]]","6","[[0,0,0],[2,3],[1]]","12","0","","","","","","4","","","","","","","","",""
"","","","","","single-stim-button","188","409060","0.0-2.0-46.6-0.6","633cbe0c6fa76f7cc4ca1099","E1","batch5","","571","tol_tohand","","","","tol_peg_1","571","571","0","[[1,0,0],[2,0],[0]]","7","[[0,0,0],[2,3],[1]]","12","0","","","","","","4","","","","","","","","",""
"","","","","","single-stim-button","189","409664","0.0-2.0-46.6-1.6","633cbe0c6fa76f7cc4ca1099","E1","batch5","","603","tol_toboard","","","","tol_peg_2","603","603","0","[[1,0,0],[2,3],[0]]","7","[[0,0,0],[2,3],[1]]","12","0","","","","","","4","","","","","","","","",""
"","","","","","single-stim-button","190","410238","0.0-2.0-46.7-0.7","633cbe0c6fa76f7cc4ca1099","E1","batch5","","572","tol_tohand","","","","tol_peg_1","572","572","0","[[0,0,0],[2,3],[0]]","8","[[0,0,0],[2,3],[1]]","12","0","","","","","","4","","","","","","","","",""
"","","","","","single-stim-button","191","411073","0.0-2.0-46.7-1.7","633cbe0c6fa76f7cc4ca1099","E1","batch5","","834","tol_toboard","","","","tol_peg_3","834","834","0","[[0,0,0],[2,3],[1]]","8","[[0,0,0],[2,3],[1]]","12","0","","","","","","4","","","","","","","","",""
"","","","","","poldrack-single-stim","192","412084","0.0-2.0-47.0","633cbe0c6fa76f7cc4ca1099","E1","batch5","","-1","tol_feedback","","","true","","1000","1000","500","","","","","","-1","none","true","9240","19998","","","","","","","","","",""
"","","","","","html-button-response","193","414292","0.0-2.0-48.0","633cbe0c6fa76f7cc4ca1099","E1","batch5","","2206.89999999851","attention_check","<p class = block-text>How many balls are in your board<br></p>","1","true","","","","","","","","","","","","","","","","","","","","","","","",""
"","","","","","html-button-response","194","415196","0.0-2.0-49.0","633cbe0c6fa76f7cc4ca1099","E1","batch5","","902.1000000014901","tol_trial_num","<div class = centerbox><p class = center-block-text>problem <strong>14</strong> out of 25 problems</p></div>","0","","","","","","","","","","","","","","","","","","","","","","","","",""
"","","","","","single-stim-button","195","462862","0.0-2.0-50.0-0.0","633cbe0c6fa76f7cc4ca1099","E1","batch5","","47666","tol_tohand","","","","tol_peg_1","47666","47666","0","[[2,0,0],[3,0],[0]]","1","[[1,2,0],[3,0],[0]]","13","0","","","","","","4","","","","","","","","",""
"","","","","","single-stim-button","196","463663","0.0-2.0-50.0-1.0","633cbe0c6fa76f7cc4ca1099","E1","batch5","","799","tol_toboard","","","","tol_peg_3","799","799","0","[[2,0,0],[3,0],[1]]","1","[[1,2,0],[3,0],[0]]","13","0","","","","","","4","","","","","","","","",""
"","","","","","single-stim-button","197","464268","0.0-2.0-50.1-0.1","633cbe0c6fa76f7cc4ca1099","E1","batch5","","605","tol_tohand","","","","tol_peg_1","605","605","0","[[0,0,0],[3,0],[1]]","2","[[1,2,0],[3,0],[0]]","13","0","","","","","","4","","","","","","","","",""
"","","","","","single-stim-button","198","464756","0.0-2.0-50.1-1.1","633cbe0c6fa76f7cc4ca1099","E1","batch5","","487","tol_toboard","","","","tol_peg_2","487","487","0","[[0,0,0],[3,2],[1]]","2","[[1,2,0],[3,0],[0]]","13","0","","","","","","4","","","","","","","","",""
"","","","","","single-stim-button","199","465253","0.0-2.0-50.2-0.2","633cbe0c6fa76f7cc4ca1099","E1","batch5","","497","tol_tohand","","","","tol_peg_3","497","497","0","[[0,0,0],[3,2],[0]]","3","[[1,2,0],[3,0],[0]]","13","0","","","","","","4","","","","","","","","",""
"","","","","","single-stim-button","200","466035","0.0-2.0-50.2-1.2","633cbe0c6fa76f7cc4ca1099","E1","batch5","","781","tol_toboard","","","","tol_peg_1","781","781","0","[[1,0,0],[3,2],[0]]","3","[[1,2,0],[3,0],[0]]","13","0","","","","","","4","","","","","","","","",""
"","","","","","single-stim-button","201","466541","0.0-2.0-50.3-0.3","633cbe0c6fa76f7cc4ca1099","E1","batch5","","504","tol_tohand","","","","tol_peg_2","504","504","0","[[1,0,0],[3,0],[0]]","4","[[1,2,0],[3,0],[0]]","13","0","","","","","","4","","","","","","","","",""
"","","","","","single-stim-button","202","467126","0.0-2.0-50.3-1.3","633cbe0c6fa76f7cc4ca1099","E1","batch5","","584","tol_toboard","","","","tol_peg_1","584","584","0","[[1,2,0],[3,0],[0]]","4","[[1,2,0],[3,0],[0]]","13","0","","","","","","4","","","","","","","","",""
"","","","","","poldrack-single-stim","203","468130","0.0-2.0-51.0","633cbe0c6fa76f7cc4ca1099","E1","batch5","","-1","tol_feedback","","","true","","1000","1000","500","","","","","","-1","none","true","47666","49272","","","","","","","","","",""
"","","","","","html-button-response","204","468964","0.0-2.0-52.0","633cbe0c6fa76f7cc4ca1099","E1","batch5","","834.1000000014901","tol_trial_num","<div class = centerbox><p class = center-block-text>problem <strong>15</strong> out of 25 problems</p></div>","0","","","","","","","","","","","","","","","","","","","","","","","","",""
"","","","","","single-stim-button","205","472896","0.0-2.0-53.0-0.0","633cbe0c6fa76f7cc4ca1099","E1","batch5","","3930","tol_tohand","","","","tol_peg_1","3930","3930","0","[[1,0,0],[3,0],[0]]","1","[[2,0,0],[3,0],[1]]","14","0","","","","","","3","","","","","","","","",""
"","","","","","single-stim-button","206","473563","0.0-2.0-53.0-1.0","633cbe0c6fa76f7cc4ca1099","E1","batch5","","666","tol_toboard","","","","tol_peg_2","666","666","0","[[1,0,0],[3,2],[0]]","1","[[2,0,0],[3,0],[1]]","14","0","","","","","","3","","","","","","","","",""
"","","","","","single-stim-button","207","474002","0.0-2.0-53.1-0.1","633cbe0c6fa76f7cc4ca1099","E1","batch5","","438","tol_tohand","","","","tol_peg_1","438","438","0","[[0,0,0],[3,2],[0]]","2","[[2,0,0],[3,0],[1]]","14","0","","","","","","3","","","","","","","","",""
"","","","","","single-stim-button","208","474675","0.0-2.0-53.1-1.1","633cbe0c6fa76f7cc4ca1099","E1","batch5","","672","tol_toboard","","","","tol_peg_3","672","672","0","[[0,0,0],[3,2],[1]]","2","[[2,0,0],[3,0],[1]]","14","0","","","","","","3","","","","","","","","",""
"","","","","","single-stim-button","209","475165","0.0-2.0-53.2-0.2","633cbe0c6fa76f7cc4ca1099","E1","batch5","","490","tol_tohand","","","","tol_peg_2","490","490","0","[[0,0,0],[3,0],[1]]","3","[[2,0,0],[3,0],[1]]","14","0","","","","","","3","","","","","","","","",""
"","","","","","single-stim-button","210","475800","0.0-2.0-53.2-1.2","633cbe0c6fa76f7cc4ca1099","E1","batch5","","635","tol_toboard","","","","tol_peg_1","635","635","0","[[2,0,0],[3,0],[1]]","3","[[2,0,0],[3,0],[1]]","14","0","","","","","","3","","","","","","","","",""
"","","","","","poldrack-single-stim","211","476811","0.0-2.0-54.0","633cbe0c6fa76f7cc4ca1099","E1","batch5","","-1","tol_feedback","","","true","","1000","1000","500","","","","","","-1","none","true","3930","4858","","","","","","","","","",""
"","","","","","html-button-response","212","477942","0.0-2.0-55.0","633cbe0c6fa76f7cc4ca1099","E1","batch5","","1130.1000000014901","tol_trial_num","<div class = centerbox><p class = center-block-text>problem <strong>16</strong> out of 25 problems</p></div>","0","","","","","","","","","","","","","","","","","","","","","","","","",""
"","","","","","single-stim-button","213","483380","0.0-2.0-56.0-0.0","633cbe0c6fa76f7cc4ca1099","E1","batch5","","5436","tol_tohand","","","","tol_peg_3","5436","5436","0","[[0,0,0],[2,3],[0]]","1","[[2,3,0],[1,0],[0]]","15","0","","","","","","7","","","","","","","","",""
"","","","","","single-stim-button","214","484802","0.0-2.0-56.0-1.0","633cbe0c6fa76f7cc4ca1099","E1","batch5","","1422","tol_toboard","","","","tol_peg_1","1422","1422","0","[[1,0,0],[2,3],[0]]","1","[[2,3,0],[1,0],[0]]","15","0","","","","","","7","","","","","","","","",""
"","","","","","single-stim-button","215","485406","0.0-2.0-56.1-0.1","633cbe0c6fa76f7cc4ca1099","E1","batch5","","602","tol_tohand","","","","tol_peg_2","602","602","0","[[1,0,0],[2,0],[0]]","2","[[2,3,0],[1,0],[0]]","15","0","","","","","","7","","","","","","","","",""
"","","","","","single-stim-button","216","485963","0.0-2.0-56.1-1.1","633cbe0c6fa76f7cc4ca1099","E1","batch5","","556","tol_toboard","","","","tol_peg_1","556","556","0","[[1,3,0],[2,0],[0]]","2","[[2,3,0],[1,0],[0]]","15","0","","","","","","7","","","","","","","","",""
"","","","","","single-stim-button","217","486536","0.0-2.0-56.2-0.2","633cbe0c6fa76f7cc4ca1099","E1","batch5","","573","tol_tohand","","","","tol_peg_2","573","573","0","[[1,3,0],[0,0],[0]]","3","[[2,3,0],[1,0],[0]]","15","0","","","","","","7","","","","","","","","",""
"","","","","","single-stim-button","218","487306","0.0-2.0-56.2-1.2","633cbe0c6fa76f7cc4ca1099","E1","batch5","","770","tol_toboard","","","","tol_peg_3","770","770","0","[[1,3,0],[0,0],[2]]","3","[[2,3,0],[1,0],[0]]","15","0","","","","","","7","","","","","","","","",""
"","","","","","single-stim-button","219","488360","0.0-2.0-56.3-0.3","633cbe0c6fa76f7cc4ca1099","E1","batch5","","1053","tol_tohand","","","","tol_peg_1","1053","1053","0","[[1,0,0],[0,0],[2]]","4","[[2,3,0],[1,0],[0]]","15","0","","","","","","7","","","","","","","","",""
"","","","","","single-stim-button","220","489365","0.0-2.0-56.3-1.3","633cbe0c6fa76f7cc4ca1099","E1","batch5","","1005","tol_toboard","","","","tol_peg_2","1005","1005","0","[[1,0,0],[3,0],[2]]","4","[[2,3,0],[1,0],[0]]","15","0","","","","","","7","","","","","","","","",""
"","","","","","single-stim-button","221","489905","0.0-2.0-56.4-0.4","633cbe0c6fa76f7cc4ca1099","E1","batch5","","539","tol_tohand","","","","tol_peg_1","539","539","0","[[0,0,0],[3,0],[2]]","5","[[2,3,0],[1,0],[0]]","15","0","","","","","","7","","","","","","","","",""
"","","","","","single-stim-button","222","490493","0.0-2.0-56.4-1.4","633cbe0c6fa76f7cc4ca1099","E1","batch5","","588","tol_toboard","","","","tol_peg_2","588","588","0","[[0,0,0],[3,1],[2]]","5","[[2,3,0],[1,0],[0]]","15","0","","","","","","7","","","","","","","","",""
"","","","","","single-stim-button","223","491063","0.0-2.0-56.5-0.5","633cbe0c6fa76f7cc4ca1099","E1","batch5","","570","tol_tohand","","","","tol_peg_3","570","570","0","[[0,0,0],[3,1],[0]]","6","[[2,3,0],[1,0],[0]]","15","0","","","","","","7","","","","","","","","",""
"","","","","","single-stim-button","224","491776","0.0-2.0-56.5-1.5","633cbe0c6fa76f7cc4ca1099","E1","batch5","","711","tol_toboard","","","","tol_peg_1","711","711","0","[[2,0,0],[3,1],[0]]","6","[[2,3,0],[1,0],[0]]","15","0","","","","","","7","","","","","","","","",""
"","","","","","single-stim-button","225","492393","0.0-2.0-56.6-0.6","633cbe0c6fa76f7cc4ca1099","E1","batch5","","617","tol_tohand","","","","tol_peg_2","617","617","0","[[2,0,0],[3,0],[0]]","7","[[2,3,0],[1,0],[0]]","15","0","","","","","","7","","","","","","","","",""
"","","","","","single-stim-button","226","493162","0.0-2.0-56.6-1.6","633cbe0c6fa76f7cc4ca1099","E1","batch5","","769","tol_toboard","","","","tol_peg_3","769","769","0","[[2,0,0],[3,0],[1]]","7","[[2,3,0],[1,0],[0]]","15","0","","","","","","7","","","","","","","","",""
"","","","","","single-stim-button","227","493614","0.0-2.0-56.7-0.7","633cbe0c6fa76f7cc4ca1099","E1","batch5","","451","tol_tohand","","","","tol_peg_2","451","451","0","[[2,0,0],[0,0],[1]]","8","[[2,3,0],[1,0],[0]]","15","0","","","","","","7","","","","","","","","",""
"","","","","","single-stim-button","228","494086","0.0-2.0-56.7-1.7","633cbe0c6fa76f7cc4ca1099","E1","batch5","","471","tol_toboard","","","","tol_peg_1","471","471","0","[[2,3,0],[0,0],[1]]","8","[[2,3,0],[1,0],[0]]","15","0","","","","","","7","","","","","","","","",""
"","","","","","single-stim-button","229","494691","0.0-2.0-56.8-0.8","633cbe0c6fa76f7cc4ca1099","E1","batch5","","605","tol_tohand","","","","tol_peg_3","605","605","0","[[2,3,0],[0,0],[0]]","9","[[2,3,0],[1,0],[0]]","15","0","","","","","","7","","","","","","","","",""
"","","","","","single-stim-button","230","495297","0.0-2.0-56.8-1.8","633cbe0c6fa76f7cc4ca1099","E1","batch5","","604","tol_toboard","","","","tol_peg_2","604","604","0","[[2,3,0],[1,0],[0]]","9","[[2,3,0],[1,0],[0]]","15","0","","","","","","7","","","","","","","","",""
"","","","","","poldrack-single-stim","231","496307","0.0-2.0-57.0","633cbe0c6fa76f7cc4ca1099","E1","batch5","","-1","tol_feedback","","","true","","1000","1000","500","","","","","","-1","none","true","5436","10446","","","","","","","","","",""
"","","","","","html-button-response","232","497188","0.0-2.0-58.0","633cbe0c6fa76f7cc4ca1099","E1","batch5","","880.7999999970198","tol_trial_num","<div class = centerbox><p class = center-block-text>problem <strong>17</strong> out of 25 problems</p></div>","0","","","","","","","","","","","","","","","","","","","","","","","","",""
"","","","","","single-stim-button","233","502127","0.0-2.0-59.0-0.0","633cbe0c6fa76f7cc4ca1099","E1","batch5","","4937","tol_tohand","","","","tol_peg_1","4937","4937","0","[[1,0,0],[3,0],[0]]","1","[[3,1,0],[2,0],[0]]","16","0","","","","","","5","","","","","","","","",""
"","","","","","single-stim-button","234","502764","0.0-2.0-59.0-1.0","633cbe0c6fa76f7cc4ca1099","E1","batch5","","637","tol_toboard","","","","tol_peg_2","637","637","0","[[1,0,0],[3,2],[0]]","1","[[3,1,0],[2,0],[0]]","16","0","","","","","","5","","","","","","","","",""
"","","","","","single-stim-button","235","503202","0.0-2.0-59.1-0.1","633cbe0c6fa76f7cc4ca1099","E1","batch5","","437","tol_tohand","","","","tol_peg_1","437","437","0","[[0,0,0],[3,2],[0]]","2","[[3,1,0],[2,0],[0]]","16","0","","","","","","5","","","","","","","","",""
"","","","","","single-stim-button","236","504140","0.0-2.0-59.1-1.1","633cbe0c6fa76f7cc4ca1099","E1","batch5","","936","tol_toboard","","","","tol_peg_3","936","936","0","[[0,0,0],[3,2],[1]]","2","[[3,1,0],[2,0],[0]]","16","0","","","","","","5","","","","","","","","",""
"","","","","","single-stim-button","237","510925","0.0-2.0-59.2-0.2","633cbe0c6fa76f7cc4ca1099","E1","batch5","","6785","tol_tohand","","","","tol_peg_2","6785","6785","0","[[0,0,0],[3,0],[1]]","3","[[3,1,0],[2,0],[0]]","16","0","","","","","","5","","","","","","","","",""
"","","","","","single-stim-button","238","512039","0.0-2.0-59.2-1.2","633cbe0c6fa76f7cc4ca1099","E1","batch5","","1112","tol_toboard","","","","tol_peg_1","1112","1112","0","[[2,0,0],[3,0],[1]]","3","[[3,1,0],[2,0],[0]]","16","0","","","","","","5","","","","","","","","",""
"","","","","","single-stim-button","239","513289","0.0-2.0-59.3-0.3","633cbe0c6fa76f7cc4ca1099","E1","batch5","","1250","tol_tohand","","","","tol_peg_3","1250","1250","0","[[2,0,0],[3,0],[0]]","4","[[3,1,0],[2,0],[0]]","16","0","","","","","","5","","","","","","","","",""
"","","","","","single-stim-button","240","514091","0.0-2.0-59.3-1.3","633cbe0c6fa76f7cc4ca1099","E1","batch5","","801","tol_toboard","","","","tol_peg_1","801","801","0","[[2,1,0],[3,0],[0]]","4","[[3,1,0],[2,0],[0]]","16","0","","","","","","5","","","","","","","","",""
"","","","","","single-stim-button","241","514648","0.0-2.0-59.4-0.4","633cbe0c6fa76f7cc4ca1099","E1","batch5","","556","tol_tohand","","","","tol_peg_2","556","556","0","[[2,1,0],[0,0],[0]]","5","[[3,1,0],[2,0],[0]]","16","0","","","","","","5","","","","","","","","",""
"","","","","","single-stim-button","242","515220","0.0-2.0-59.4-1.4","633cbe0c6fa76f7cc4ca1099","E1","batch5","","571","tol_toboard","","","","tol_peg_3","571","571","0","[[2,1,0],[0,0],[3]]","5","[[3,1,0],[2,0],[0]]","16","0","","","","","","5","","","","","","","","",""
"","","","","","single-stim-button","243","516024","0.0-2.0-59.5-0.5","633cbe0c6fa76f7cc4ca1099","E1","batch5","","802","tol_tohand","","","","tol_peg_1","802","802","0","[[2,0,0],[0,0],[3]]","6","[[3,1,0],[2,0],[0]]","16","0","","","","","","5","","","","","","","","",""
"","","","","","single-stim-button","244","517781","0.0-2.0-59.5-1.5","633cbe0c6fa76f7cc4ca1099","E1","batch5","","1756","tol_toboard","","","","tol_peg_2","1756","1756","0","[[2,0,0],[1,0],[3]]","6","[[3,1,0],[2,0],[0]]","16","0","","","","","","5","","","","","","","","",""
"","","","","","single-stim-button","245","518284","0.0-2.0-59.6-0.6","633cbe0c6fa76f7cc4ca1099","E1","batch5","","503","tol_tohand","","","","tol_peg_1","503","503","0","[[0,0,0],[1,0],[3]]","7","[[3,1,0],[2,0],[0]]","16","0","","","","","","5","","","","","","","","",""
"","","","","","single-stim-button","246","518756","0.0-2.0-59.6-1.6","633cbe0c6fa76f7cc4ca1099","E1","batch5","","471","tol_toboard","","","","tol_peg_2","471","471","0","[[0,0,0],[1,2],[3]]","7","[[3,1,0],[2,0],[0]]","16","0","","","","","","5","","","","","","","","",""
"","","","","","single-stim-button","247","519277","0.0-2.0-59.7-0.7","633cbe0c6fa76f7cc4ca1099","E1","batch5","","520","tol_tohand","","","","tol_peg_3","520","520","0","[[0,0,0],[1,2],[0]]","8","[[3,1,0],[2,0],[0]]","16","0","","","","","","5","","","","","","","","",""
"","","","","","single-stim-button","248","520050","0.0-2.0-59.7-1.7","633cbe0c6fa76f7cc4ca1099","E1","batch5","","773","tol_toboard","","","","tol_peg_1","773","773","0","[[3,0,0],[1,2],[0]]","8","[[3,1,0],[2,0],[0]]","16","0","","","","","","5","","","","","","","","",""
"","","","","","single-stim-button","249","520655","0.0-2.0-59.8-0.8","633cbe0c6fa76f7cc4ca1099","E1","batch5","","605","tol_tohand","","","","tol_peg_2","605","605","0","[[3,0,0],[1,0],[0]]","9","[[3,1,0],[2,0],[0]]","16","0","","","","","","5","","","","","","","","",""
"","","","","","single-stim-button","250","521276","0.0-2.0-59.8-1.8","633cbe0c6fa76f7cc4ca1099","E1","batch5","","619","tol_toboard","","","","tol_peg_3","619","619","0","[[3,0,0],[1,0],[2]]","9","[[3,1,0],[2,0],[0]]","16","0","","","","","","5","","","","","","","","",""
"","","","","","single-stim-button","251","521732","0.0-2.0-59.9-0.9","633cbe0c6fa76f7cc4ca1099","E1","batch5","","456","tol_tohand","","","","tol_peg_2","456","456","0","[[3,0,0],[0,0],[2]]","10","[[3,1,0],[2,0],[0]]","16","0","","","","","","5","","","","","","","","",""
"","","","","","single-stim-button","252","522205","0.0-2.0-59.9-1.9","633cbe0c6fa76f7cc4ca1099","E1","batch5","","472","tol_toboard","","","","tol_peg_1","472","472","0","[[3,1,0],[0,0],[2]]","10","[[3,1,0],[2,0],[0]]","16","0","","","","","","5","","","","","","","","",""
"","","","","","single-stim-button","253","523295","0.0-2.0-59.10-0.10","633cbe0c6fa76f7cc4ca1099","E1","batch5","","1089","tol_tohand","","","","tol_peg_3","1089","1089","0","[[3,1,0],[0,0],[0]]","11","[[3,1,0],[2,0],[0]]","16","0","","","","","","5","","","","","","","","",""
"","","","","","single-stim-button","254","524052","0.0-2.0-59.10-1.10","633cbe0c6fa76f7cc4ca1099","E1","batch5","","756","tol_toboard","","","","tol_peg_2","756","756","0","[[3,1,0],[2,0],[0]]","11","[[3,1,0],[2,0],[0]]","16","0","","","","","","5","","","","","","","","",""
"","","","","","poldrack-single-stim","255","525059","0.0-2.0-60.0","633cbe0c6fa76f7cc4ca1099","E1","batch5","","-1","tol_feedback","","","true","","1000","1000","500","","","","","","-1","none","true","4937","17940","","","","","","","","","",""
"","","","","","html-button-response","256","526038","0.0-2.0-61.0","633cbe0c6fa76f7cc4ca1099","E1","batch5","","978.2999999970198","tol_trial_num","<div class = centerbox><p class = center-block-text>problem <strong>18</strong> out of 25 problems</p></div>","0","","","","","","","","","","","","","","","","","","","","","","","","",""
"","","","","","single-stim-button","257","530317","0.0-2.0-62.0-0.0","633cbe0c6fa76f7cc4ca1099","E1","batch5","","4277","tol_tohand","","","","tol_peg_1","4277","4277","0","[[1,0,0],[3,0],[0]]","1","[[3,0,0],[2,0],[1]]","17","0","","","","","","5","","","","","","","","",""
"","","","","","single-stim-button","258","530840","0.0-2.0-62.0-1.0","633cbe0c6fa76f7cc4ca1099","E1","batch5","","523","tol_toboard","","","","tol_peg_2","523","523","0","[[1,0,0],[3,2],[0]]","1","[[3,0,0],[2,0],[1]]","17","0","","","","","","5","","","","","","","","",""
"","","","","","single-stim-button","259","531545","0.0-2.0-62.1-0.1","633cbe0c6fa76f7cc4ca1099","E1","batch5","","703","tol_tohand","","","","tol_peg_1","703","703","0","[[0,0,0],[3,2],[0]]","2","[[3,0,0],[2,0],[1]]","17","0","","","","","","5","","","","","","","","",""
"","","","","","single-stim-button","260","534473","0.0-2.0-62.1-1.1","633cbe0c6fa76f7cc4ca1099","E1","batch5","","2928","tol_toboard","","","","tol_peg_3","2928","2928","0","[[0,0,0],[3,2],[1]]","2","[[3,0,0],[2,0],[1]]","17","0","","","","","","5","","","","","","","","",""
"","","","","","single-stim-button","261","535340","0.0-2.0-62.2-0.2","633cbe0c6fa76f7cc4ca1099","E1","batch5","","867","tol_tohand","","","","tol_peg_2","867","867","0","[[0,0,0],[3,0],[1]]","3","[[3,0,0],[2,0],[1]]","17","0","","","","","","5","","","","","","","","",""
"","","","","","single-stim-button","262","536079","0.0-2.0-62.2-1.2","633cbe0c6fa76f7cc4ca1099","E1","batch5","","738","tol_toboard","","","","tol_peg_1","738","738","0","[[2,0,0],[3,0],[1]]","3","[[3,0,0],[2,0],[1]]","17","0","","","","","","5","","","","","","","","",""
"","","","","","single-stim-button","263","536816","0.0-2.0-62.3-0.3","633cbe0c6fa76f7cc4ca1099","E1","batch5","","737","tol_tohand","","","","tol_peg_2","737","737","0","[[2,0,0],[0,0],[1]]","4","[[3,0,0],[2,0],[1]]","17","0","","","","","","5","","","","","","","","",""
"","","","","","single-stim-button","264","539233","0.0-2.0-62.3-1.3","633cbe0c6fa76f7cc4ca1099","E1","batch5","","2415","tol_toboard","","","","tol_peg_1","2415","2415","0","[[2,3,0],[0,0],[1]]","4","[[3,0,0],[2,0],[1]]","17","0","","","","","","5","","","","","","","","",""
"","","","","","single-stim-button","265","539871","0.0-2.0-62.4-0.4","633cbe0c6fa76f7cc4ca1099","E1","batch5","","638","tol_tohand","","","","tol_peg_3","638","638","0","[[2,3,0],[0,0],[0]]","5","[[3,0,0],[2,0],[1]]","17","0","","","","","","5","","","","","","","","",""
"","","","","","single-stim-button","266","540427","0.0-2.0-62.4-1.4","633cbe0c6fa76f7cc4ca1099","E1","batch5","","555","tol_toboard","","","","tol_peg_2","555","555","0","[[2,3,0],[1,0],[0]]","5","[[3,0,0],[2,0],[1]]","17","0","","","","","","5","","","","","","","","",""
"","","","","","single-stim-button","267","540998","0.0-2.0-62.5-0.5","633cbe0c6fa76f7cc4ca1099","E1","batch5","","571","tol_tohand","","","","tol_peg_1","571","571","0","[[2,0,0],[1,0],[0]]","6","[[3,0,0],[2,0],[1]]","17","0","","","","","","5","","","","","","","","",""
"","","","","","single-stim-button","268","541787","0.0-2.0-62.5-1.5","633cbe0c6fa76f7cc4ca1099","E1","batch5","","788","tol_toboard","","","","tol_peg_3","788","788","0","[[2,0,0],[1,0],[3]]","6","[[3,0,0],[2,0],[1]]","17","0","","","","","","5","","","","","","","","",""
"","","","","","single-stim-button","269","544632","0.0-2.0-62.6-0.6","633cbe0c6fa76f7cc4ca1099","E1","batch5","","2844","tol_tohand","","","","tol_peg_1","2844","2844","0","[[0,0,0],[1,0],[3]]","7","[[3,0,0],[2,0],[1]]","17","0","","","","","","5","","","","","","","","",""
"","","","","","single-stim-button","270","545221","0.0-2.0-62.6-1.6","633cbe0c6fa76f7cc4ca1099","E1","batch5","","587","tol_toboard","","","","tol_peg_2","587","587","0","[[0,0,0],[1,2],[3]]","7","[[3,0,0],[2,0],[1]]","17","0","","","","","","5","","","","","","","","",""
"","","","","","single-stim-button","271","545655","0.0-2.0-62.7-0.7","633cbe0c6fa76f7cc4ca1099","E1","batch5","","434","tol_tohand","","","","tol_peg_3","434","434","0","[[0,0,0],[1,2],[0]]","8","[[3,0,0],[2,0],[1]]","17","0","","","","","","5","","","","","","","","",""
"","","","","","single-stim-button","272","546511","0.0-2.0-62.7-1.7","633cbe0c6fa76f7cc4ca1099","E1","batch5","","855","tol_toboard","","","","tol_peg_1","855","855","0","[[3,0,0],[1,2],[0]]","8","[[3,0,0],[2,0],[1]]","17","0","","","","","","5","","","","","","","","",""
"","","","","","single-stim-button","273","547331","0.0-2.0-62.8-0.8","633cbe0c6fa76f7cc4ca1099","E1","batch5","","818","tol_tohand","","","","tol_peg_2","818","818","0","[[3,0,0],[1,0],[0]]","9","[[3,0,0],[2,0],[1]]","17","0","","","","","","5","","","","","","","","",""
"","","","","","single-stim-button","274","548002","0.0-2.0-62.8-1.8","633cbe0c6fa76f7cc4ca1099","E1","batch5","","670","tol_toboard","","","","tol_peg_3","670","670","0","[[3,0,0],[1,0],[2]]","9","[[3,0,0],[2,0],[1]]","17","0","","","","","","5","","","","","","","","",""
"","","","","","single-stim-button","275","550310","0.0-2.0-62.9-0.9","633cbe0c6fa76f7cc4ca1099","E1","batch5","","2307","tol_tohand","","","","tol_peg_2","2307","2307","0","[[3,0,0],[0,0],[2]]","10","[[3,0,0],[2,0],[1]]","17","0","","","","","","5","","","","","","","","",""
"","","","","","single-stim-button","276","550866","0.0-2.0-62.9-1.9","633cbe0c6fa76f7cc4ca1099","E1","batch5","","556","tol_toboard","","","","tol_peg_1","556","556","0","[[3,1,0],[0,0],[2]]","10","[[3,0,0],[2,0],[1]]","17","0","","","","","","5","","","","","","","","",""
"","","","","","single-stim-button","277","551404","0.0-2.0-62.10-0.10","633cbe0c6fa76f7cc4ca1099","E1","batch5","","537","tol_tohand","","","","tol_peg_3","537","537","0","[[3,1,0],[0,0],[0]]","11","[[3,0,0],[2,0],[1]]","17","0","","","","","","5","","","","","","","","",""
"","","","","","single-stim-button","278","551992","0.0-2.0-62.10-1.10","633cbe0c6fa76f7cc4ca1099","E1","batch5","","588","tol_toboard","","","","tol_peg_2","588","588","0","[[3,1,0],[2,0],[0]]","11","[[3,0,0],[2,0],[1]]","17","0","","","","","","5","","","","","","","","",""
"","","","","","single-stim-button","279","552664","0.0-2.0-62.11-0.11","633cbe0c6fa76f7cc4ca1099","E1","batch5","","670","tol_tohand","","","","tol_peg_1","670","670","0","[[3,0,0],[2,0],[0]]","12","[[3,0,0],[2,0],[1]]","17","0","","","","","","5","","","","","","","","",""
"","","","","","single-stim-button","280","553950","0.0-2.0-62.11-1.11","633cbe0c6fa76f7cc4ca1099","E1","batch5","","1286","tol_toboard","","","","tol_peg_3","1286","1286","0","[[3,0,0],[2,0],[1]]","12","[[3,0,0],[2,0],[1]]","17","0","","","","","","5","","","","","","","","",""
"","","","","","poldrack-single-stim","281","554958","0.0-2.0-63.0","633cbe0c6fa76f7cc4ca1099","E1","batch5","","-1","tol_feedback","","","true","","1000","1000","500","","","","","","-1","none","true","4277","15403","","","","","","","","","",""
"","","","","","html-button-response","282","556272","0.0-2.0-64.0","633cbe0c6fa76f7cc4ca1099","E1","batch5","","1313.3999999985099","tol_trial_num","<div class = centerbox><p class = center-block-text>problem <strong>19</strong> out of 25 problems</p></div>","0","","","","","","","","","","","","","","","","","","","","","","","","",""
"","","","","","single-stim-button","283","562714","0.0-2.0-65.0-0.0","633cbe0c6fa76f7cc4ca1099","E1","batch5","","6440","tol_tohand","","","","tol_peg_1","6440","6440","0","[[1,0,0],[3,0],[0]]","1","[[0,0,0],[1,2],[3]]","18","0","","","","","","7","","","","","","","","",""
"","","","","","single-stim-button","284","563603","0.0-2.0-65.0-1.0","633cbe0c6fa76f7cc4ca1099","E1","batch5","","889","tol_toboard","","","","tol_peg_2","889","889","0","[[1,0,0],[3,2],[0]]","1","[[0,0,0],[1,2],[3]]","18","0","","","","","","7","","","","","","","","",""
"","","","","","single-stim-button","285","564243","0.0-2.0-65.1-0.1","633cbe0c6fa76f7cc4ca1099","E1","batch5","","639","tol_tohand","","","","tol_peg_1","639","639","0","[[0,0,0],[3,2],[0]]","2","[[0,0,0],[1,2],[3]]","18","0","","","","","","7","","","","","","","","",""
"","","","","","single-stim-button","286","565349","0.0-2.0-65.1-1.1","633cbe0c6fa76f7cc4ca1099","E1","batch5","","1106","tol_toboard","","","","tol_peg_3","1106","1106","0","[[0,0,0],[3,2],[1]]","2","[[0,0,0],[1,2],[3]]","18","0","","","","","","7","","","","","","","","",""
"","","","","","single-stim-button","287","565955","0.0-2.0-65.2-0.2","633cbe0c6fa76f7cc4ca1099","E1","batch5","","606","tol_tohand","","","","tol_peg_2","606","606","0","[[0,0,0],[3,0],[1]]","3","[[0,0,0],[1,2],[3]]","18","0","","","","","","7","","","","","","","","",""
"","","","","","single-stim-button","288","566693","0.0-2.0-65.2-1.2","633cbe0c6fa76f7cc4ca1099","E1","batch5","","736","tol_toboard","","","","tol_peg_1","736","736","0","[[2,0,0],[3,0],[1]]","3","[[0,0,0],[1,2],[3]]","18","0","","","","","","7","","","","","","","","",""
"","","","","","single-stim-button","289","567315","0.0-2.0-65.3-0.3","633cbe0c6fa76f7cc4ca1099","E1","batch5","","622","tol_tohand","","","","tol_peg_3","622","622","0","[[2,0,0],[3,0],[0]]","4","[[0,0,0],[1,2],[3]]","18","0","","","","","","7","","","","","","","","",""
"","","","","","single-stim-button","290","567973","0.0-2.0-65.3-1.3","633cbe0c6fa76f7cc4ca1099","E1","batch5","","657","tol_toboard","","","","tol_peg_1","657","657","0","[[2,1,0],[3,0],[0]]","4","[[0,0,0],[1,2],[3]]","18","0","","","","","","7","","","","","","","","",""
"","","","","","single-stim-button","291","568462","0.0-2.0-65.4-0.4","633cbe0c6fa76f7cc4ca1099","E1","batch5","","487","tol_tohand","","","","tol_peg_2","487","487","0","[[2,1,0],[0,0],[0]]","5","[[0,0,0],[1,2],[3]]","18","0","","","","","","7","","","","","","","","",""
"","","","","","single-stim-button","292","569132","0.0-2.0-65.4-1.4","633cbe0c6fa76f7cc4ca1099","E1","batch5","","670","tol_toboard","","","","tol_peg_3","670","670","0","[[2,1,0],[0,0],[3]]","5","[[0,0,0],[1,2],[3]]","18","0","","","","","","7","","","","","","","","",""
"","","","","","single-stim-button","293","569805","0.0-2.0-65.5-0.5","633cbe0c6fa76f7cc4ca1099","E1","batch5","","671","tol_tohand","","","","tol_peg_1","671","671","0","[[2,0,0],[0,0],[3]]","6","[[0,0,0],[1,2],[3]]","18","0","","","","","","7","","","","","","","","",""
"","","","","","single-stim-button","294","570460","0.0-2.0-65.5-1.5","633cbe0c6fa76f7cc4ca1099","E1","batch5","","655","tol_toboard","","","","tol_peg_2","655","655","0","[[2,0,0],[1,0],[3]]","6","[[0,0,0],[1,2],[3]]","18","0","","","","","","7","","","","","","","","",""
"","","","","","single-stim-button","295","570982","0.0-2.0-65.6-0.6","633cbe0c6fa76f7cc4ca1099","E1","batch5","","521","tol_tohand","","","","tol_peg_1","521","521","0","[[0,0,0],[1,0],[3]]","7","[[0,0,0],[1,2],[3]]","18","0","","","","","","7","","","","","","","","",""
"","","","","","single-stim-button","296","571521","0.0-2.0-65.6-1.6","633cbe0c6fa76f7cc4ca1099","E1","batch5","","537","tol_toboard","","","","tol_peg_2","537","537","0","[[0,0,0],[1,2],[3]]","7","[[0,0,0],[1,2],[3]]","18","0","","","","","","7","","","","","","","","",""
"","","","","","poldrack-single-stim","297","572526","0.0-2.0-66.0","633cbe0c6fa76f7cc4ca1099","E1","batch5","","-1","tol_feedback","","","true","","1000","1000","500","","","","","","-1","none","true","6440","9986","","","","","","","","","",""
"","","","","","html-button-response","298","573507","0.0-2.0-67.0","633cbe0c6fa76f7cc4ca1099","E1","batch5","","980.2999999970198","tol_trial_num","<div class = centerbox><p class = center-block-text>problem <strong>20</strong> out of 25 problems</p></div>","0","","","","","","","","","","","","","","","","","","","","","","","","",""
"","","","","","single-stim-button","299","575901","0.0-2.0-68.0-0.0","633cbe0c6fa76f7cc4ca1099","E1","batch5","","2393","tol_tohand","","","","tol_peg_2","2393","2393","0","[[1,2,0],[0,0],[0]]","1","[[2,1,0],[0,0],[3]]","19","0","","","","","","5","","","","","","","","",""
"","","","","","single-stim-button","300","578404","0.0-2.0-68.0-1.0","633cbe0c6fa76f7cc4ca1099","E1","batch5","","2502","tol_toboard","","","","tol_peg_2","2502","2502","0","[[1,2,0],[3,0],[0]]","1","[[2,1,0],[0,0],[3]]","19","0","","","","","","5","","","","","","","","",""
"","","","","","single-stim-button","301","579041","0.0-2.0-68.1-0.1","633cbe0c6fa76f7cc4ca1099","E1","batch5","","637","tol_tohand","","","","tol_peg_1","637","637","0","[[1,0,0],[3,0],[0]]","2","[[2,1,0],[0,0],[3]]","19","0","","","","","","5","","","","","","","","",""
"","","","","","single-stim-button","302","579595","0.0-2.0-68.1-1.1","633cbe0c6fa76f7cc4ca1099","E1","batch5","","552","tol_toboard","","","","tol_peg_2","552","552","0","[[1,0,0],[3,2],[0]]","2","[[2,1,0],[0,0],[3]]","19","0","","","","","","5","","","","","","","","",""
"","","","","","single-stim-button","303","580116","0.0-2.0-68.2-0.2","633cbe0c6fa76f7cc4ca1099","E1","batch5","","521","tol_tohand","","","","tol_peg_1","521","521","0","[[0,0,0],[3,2],[0]]","3","[[2,1,0],[0,0],[3]]","19","0","","","","","","5","","","","","","","","",""
"","","","","","single-stim-button","304","580718","0.0-2.0-68.2-1.2","633cbe0c6fa76f7cc4ca1099","E1","batch5","","600","tol_toboard","","","","tol_peg_3","600","600","0","[[0,0,0],[3,2],[1]]","3","[[2,1,0],[0,0],[3]]","19","0","","","","","","5","","","","","","","","",""
"","","","","","single-stim-button","305","581205","0.0-2.0-68.3-0.3","633cbe0c6fa76f7cc4ca1099","E1","batch5","","486","tol_tohand","","","","tol_peg_2","486","486","0","[[0,0,0],[3,0],[1]]","4","[[2,1,0],[0,0],[3]]","19","0","","","","","","5","","","","","","","","",""
"","","","","","single-stim-button","306","581777","0.0-2.0-68.3-1.3","633cbe0c6fa76f7cc4ca1099","E1","batch5","","572","tol_toboard","","","","tol_peg_1","572","572","0","[[2,0,0],[3,0],[1]]","4","[[2,1,0],[0,0],[3]]","19","0","","","","","","5","","","","","","","","",""
"","","","","","single-stim-button","307","582451","0.0-2.0-68.4-0.4","633cbe0c6fa76f7cc4ca1099","E1","batch5","","672","tol_tohand","","","","tol_peg_3","672","672","0","[[2,0,0],[3,0],[0]]","5","[[2,1,0],[0,0],[3]]","19","0","","","","","","5","","","","","","","","",""
"","","","","","single-stim-button","308","583189","0.0-2.0-68.4-1.4","633cbe0c6fa76f7cc4ca1099","E1","batch5","","738","tol_toboard","","","","tol_peg_1","738","738","0","[[2,1,0],[3,0],[0]]","5","[[2,1,0],[0,0],[3]]","19","0","","","","","","5","","","","","","","","",""
"","","","","","single-stim-button","309","583896","0.0-2.0-68.5-0.5","633cbe0c6fa76f7cc4ca1099","E1","batch5","","707","tol_tohand","","","","tol_peg_2","707","707","0","[[2,1,0],[0,0],[0]]","6","[[2,1,0],[0,0],[3]]","19","0","","","","","","5","","","","","","","","",""
"","","","","","single-stim-button","310","584668","0.0-2.0-68.5-1.5","633cbe0c6fa76f7cc4ca1099","E1","batch5","","770","tol_toboard","","","","tol_peg_3","770","770","0","[[2,1,0],[0,0],[3]]","6","[[2,1,0],[0,0],[3]]","19","0","","","","","","5","","","","","","","","",""
"","","","","","poldrack-single-stim","311","585677","0.0-2.0-69.0","633cbe0c6fa76f7cc4ca1099","E1","batch5","","-1","tol_feedback","","","true","","1000","1000","500","","","","","","-1","none","true","2393","5416","","","","","","","","","",""
"","","","","","html-button-response","312","587051","0.0-2.0-70.0","633cbe0c6fa76f7cc4ca1099","E1","batch5","","1373.3999999985099","tol_trial_num","<div class = centerbox><p class = center-block-text>problem <strong>21</strong> out of 25 problems</p></div>","0","","","","","","","","","","","","","","","","","","","","","","","","",""
"","","","","","single-stim-button","313","591363","0.0-2.0-71.0-0.0","633cbe0c6fa76f7cc4ca1099","E1","batch5","","4311","tol_tohand","","","","tol_peg_1","4311","4311","0","[[1,0,0],[3,0],[0]]","1","[[3,2,0],[0,0],[1]]","20","0","","","","","","6","","","","","","","","",""
"","","","","","single-stim-button","314","593635","0.0-2.0-71.0-1.0","633cbe0c6fa76f7cc4ca1099","E1","batch5","","2270","tol_toboard","","","","tol_peg_2","2270","2270","0","[[1,0,0],[3,2],[0]]","1","[[3,2,0],[0,0],[1]]","20","0","","","","","","6","","","","","","","","",""
"","","","","","single-stim-button","315","597720","0.0-2.0-71.1-0.1","633cbe0c6fa76f7cc4ca1099","E1","batch5","","4085","tol_tohand","","","","tol_peg_2","4085","4085","0","[[1,0,0],[3,0],[0]]","2","[[3,2,0],[0,0],[1]]","20","0","","","","","","6","","","","","","","","",""
"","","","","","single-stim-button","316","598370","0.0-2.0-71.1-1.1","633cbe0c6fa76f7cc4ca1099","E1","batch5","","649","tol_toboard","","","","tol_peg_3","649","649","0","[[1,0,0],[3,0],[2]]","2","[[3,2,0],[0,0],[1]]","20","0","","","","","","6","","","","","","","","",""
"","","","","","single-stim-button","317","599127","0.0-2.0-71.2-0.2","633cbe0c6fa76f7cc4ca1099","E1","batch5","","755","tol_tohand","","","","tol_peg_1","755","755","0","[[0,0,0],[3,0],[2]]","3","[[3,2,0],[0,0],[1]]","20","0","","","","","","6","","","","","","","","",""
"","","","","","single-stim-button","318","603488","0.0-2.0-71.2-1.2","633cbe0c6fa76f7cc4ca1099","E1","batch5","","4360","tol_toboard","","","","tol_peg_2","4360","4360","0","[[0,0,0],[3,1],[2]]","3","[[3,2,0],[0,0],[1]]","20","0","","","","","","6","","","","","","","","",""
"","","","","","single-stim-button","319","604196","0.0-2.0-71.3-0.3","633cbe0c6fa76f7cc4ca1099","E1","batch5","","707","tol_tohand","","","","tol_peg_3","707","707","0","[[0,0,0],[3,1],[0]]","4","[[3,2,0],[0,0],[1]]","20","0","","","","","","6","","","","","","","","",""
"","","","","","single-stim-button","320","604948","0.0-2.0-71.3-1.3","633cbe0c6fa76f7cc4ca1099","E1","batch5","","751","tol_toboard","","","","tol_peg_1","751","751","0","[[2,0,0],[3,1],[0]]","4","[[3,2,0],[0,0],[1]]","20","0","","","","","","6","","","","","","","","",""
"","","","","","single-stim-button","321","605668","0.0-2.0-71.4-0.4","633cbe0c6fa76f7cc4ca1099","E1","batch5","","720","tol_tohand","","","","tol_peg_2","720","720","0","[[2,0,0],[3,0],[0]]","5","[[3,2,0],[0,0],[1]]","20","0","","","","","","6","","","","","","","","",""
"","","","","","single-stim-button","322","606473","0.0-2.0-71.4-1.4","633cbe0c6fa76f7cc4ca1099","E1","batch5","","804","tol_toboard","","","","tol_peg_1","804","804","0","[[2,1,0],[3,0],[0]]","5","[[3,2,0],[0,0],[1]]","20","0","","","","","","6","","","","","","","","",""
"","","","","","single-stim-button","323","607612","0.0-2.0-71.5-0.5","633cbe0c6fa76f7cc4ca1099","E1","batch5","","1139","tol_tohand","","","","tol_peg_2","1139","1139","0","[[2,1,0],[0,0],[0]]","6","[[3,2,0],[0,0],[1]]","20","0","","","","","","6","","","","","","","","",""
"","","","","","single-stim-button","324","608317","0.0-2.0-71.5-1.5","633cbe0c6fa76f7cc4ca1099","E1","batch5","","705","tol_toboard","","","","tol_peg_3","705","705","0","[[2,1,0],[0,0],[3]]","6","[[3,2,0],[0,0],[1]]","20","0","","","","","","6","","","","","","","","",""
"","","","","","single-stim-button","325","609107","0.0-2.0-71.6-0.6","633cbe0c6fa76f7cc4ca1099","E1","batch5","","789","tol_tohand","","","","tol_peg_1","789","789","0","[[2,0,0],[0,0],[3]]","7","[[3,2,0],[0,0],[1]]","20","0","","","","","","6","","","","","","","","",""
"","","","","","single-stim-button","326","609680","0.0-2.0-71.6-1.6","633cbe0c6fa76f7cc4ca1099","E1","batch5","","572","tol_toboard","","","","tol_peg_2","572","572","0","[[2,0,0],[1,0],[3]]","7","[[3,2,0],[0,0],[1]]","20","0","","","","","","6","","","","","","","","",""
"","","","","","single-stim-button","327","610165","0.0-2.0-71.7-0.7","633cbe0c6fa76f7cc4ca1099","E1","batch5","","485","tol_tohand","","","","tol_peg_1","485","485","0","[[0,0,0],[1,0],[3]]","8","[[3,2,0],[0,0],[1]]","20","0","","","","","","6","","","","","","","","",""
"","","","","","single-stim-button","328","610684","0.0-2.0-71.7-1.7","633cbe0c6fa76f7cc4ca1099","E1","batch5","","518","tol_toboard","","","","tol_peg_2","518","518","0","[[0,0,0],[1,2],[3]]","8","[[3,2,0],[0,0],[1]]","20","0","","","","","","6","","","","","","","","",""
"","","","","","single-stim-button","329","611255","0.0-2.0-71.8-0.8","633cbe0c6fa76f7cc4ca1099","E1","batch5","","569","tol_tohand","","","","tol_peg_3","569","569","0","[[0,0,0],[1,2],[0]]","9","[[3,2,0],[0,0],[1]]","20","0","","","","","","6","","","","","","","","",""
"","","","","","single-stim-button","330","612161","0.0-2.0-71.8-1.8","633cbe0c6fa76f7cc4ca1099","E1","batch5","","906","tol_toboard","","","","tol_peg_1","906","906","0","[[3,0,0],[1,2],[0]]","9","[[3,2,0],[0,0],[1]]","20","0","","","","","","6","","","","","","","","",""
"","","","","","single-stim-button","331","612667","0.0-2.0-71.9-0.9","633cbe0c6fa76f7cc4ca1099","E1","batch5","","504","tol_tohand","","","","tol_peg_2","504","504","0","[[3,0,0],[1,0],[0]]","10","[[3,2,0],[0,0],[1]]","20","0","","","","","","6","","","","","","","","",""
"","","","","","single-stim-button","332","613189","0.0-2.0-71.9-1.9","633cbe0c6fa76f7cc4ca1099","E1","batch5","","522","tol_toboard","","","","tol_peg_1","522","522","0","[[3,2,0],[1,0],[0]]","10","[[3,2,0],[0,0],[1]]","20","0","","","","","","6","","","","","","","","",""
"","","","","","single-stim-button","333","613646","0.0-2.0-71.10-0.10","633cbe0c6fa76f7cc4ca1099","E1","batch5","","455","tol_tohand","","","","tol_peg_2","455","455","0","[[3,2,0],[0,0],[0]]","11","[[3,2,0],[0,0],[1]]","20","0","","","","","","6","","","","","","","","",""
"","","","","","single-stim-button","334","614302","0.0-2.0-71.10-1.10","633cbe0c6fa76f7cc4ca1099","E1","batch5","","655","tol_toboard","","","","tol_peg_3","655","655","0","[[3,2,0],[0,0],[1]]","11","[[3,2,0],[0,0],[1]]","20","0","","","","","","6","","","","","","","","",""
"","","","","","poldrack-single-stim","335","615314","0.0-2.0-72.0","633cbe0c6fa76f7cc4ca1099","E1","batch5","","-1","tol_feedback","","","true","","1000","1000","500","","","","","","-1","none","true","4311","14519","","","","","","","","","",""
"","","","","","html-button-response","336","616763","0.0-2.0-73.0","633cbe0c6fa76f7cc4ca1099","E1","batch5","","1448.6000000014901","tol_trial_num","<div class = centerbox><p class = center-block-text>problem <strong>22</strong> out of 25 problems</p></div>","0","","","","","","","","","","","","","","","","","","","","","","","","",""
"","","","","","single-stim-button","337","618942","0.0-2.0-74.0-0.0","633cbe0c6fa76f7cc4ca1099","E1","batch5","","2178","tol_tohand","","","","tol_peg_2","2178","2178","0","[[1,0,0],[2,0],[0]]","1","[[0,0,0],[1,2],[3]]","21","0","","","","","","6","","","","","","","","",""
"","","","","","single-stim-button","338","619677","0.0-2.0-74.0-1.0","633cbe0c6fa76f7cc4ca1099","E1","batch5","","735","tol_toboard","","","","tol_peg_3","735","735","0","[[1,0,0],[2,0],[3]]","1","[[0,0,0],[1,2],[3]]","21","0","","","","","","6","","","","","","","","",""
"","","","","","single-stim-button","339","623406","0.0-2.0-74.1-0.1","633cbe0c6fa76f7cc4ca1099","E1","batch5","","3728","tol_tohand","","","","tol_peg_3","3728","3728","0","[[1,0,0],[2,0],[0]]","2","[[0,0,0],[1,2],[3]]","21","0","","","","","","6","","","","","","","","",""
"","","","","","single-stim-button","340","624012","0.0-2.0-74.1-1.1","633cbe0c6fa76f7cc4ca1099","E1","batch5","","605","tol_toboard","","","","tol_peg_1","605","605","0","[[1,3,0],[2,0],[0]]","2","[[0,0,0],[1,2],[3]]","21","0","","","","","","6","","","","","","","","",""
"","","","","","single-stim-button","341","624499","0.0-2.0-74.2-0.2","633cbe0c6fa76f7cc4ca1099","E1","batch5","","486","tol_tohand","","","","tol_peg_2","486","486","0","[[1,3,0],[0,0],[0]]","3","[[0,0,0],[1,2],[3]]","21","0","","","","","","6","","","","","","","","",""
"","","","","","single-stim-button","342","625102","0.0-2.0-74.2-1.2","633cbe0c6fa76f7cc4ca1099","E1","batch5","","601","tol_toboard","","","","tol_peg_3","601","601","0","[[1,3,0],[0,0],[2]]","3","[[0,0,0],[1,2],[3]]","21","0","","","","","","6","","","","","","","","",""
"","","","","","single-stim-button","343","625891","0.0-2.0-74.3-0.3","633cbe0c6fa76f7cc4ca1099","E1","batch5","","788","tol_tohand","","","","tol_peg_1","788","788","0","[[1,0,0],[0,0],[2]]","4","[[0,0,0],[1,2],[3]]","21","0","","","","","","6","","","","","","","","",""
"","","","","","single-stim-button","344","626693","0.0-2.0-74.3-1.3","633cbe0c6fa76f7cc4ca1099","E1","batch5","","802","tol_toboard","","","","tol_peg_2","802","802","0","[[1,0,0],[3,0],[2]]","4","[[0,0,0],[1,2],[3]]","21","0","","","","","","6","","","","","","","","",""
"","","","","","single-stim-button","345","627214","0.0-2.0-74.4-0.4","633cbe0c6fa76f7cc4ca1099","E1","batch5","","521","tol_tohand","","","","tol_peg_1","521","521","0","[[0,0,0],[3,0],[2]]","5","[[0,0,0],[1,2],[3]]","21","0","","","","","","6","","","","","","","","",""
"","","","","","single-stim-button","346","628184","0.0-2.0-74.4-1.4","633cbe0c6fa76f7cc4ca1099","E1","batch5","","970","tol_toboard","","","","tol_peg_2","970","970","0","[[0,0,0],[3,1],[2]]","5","[[0,0,0],[1,2],[3]]","21","0","","","","","","6","","","","","","","","",""
"","","","","","single-stim-button","347","628819","0.0-2.0-74.5-0.5","633cbe0c6fa76f7cc4ca1099","E1","batch5","","634","tol_tohand","","","","tol_peg_3","634","634","0","[[0,0,0],[3,1],[0]]","6","[[0,0,0],[1,2],[3]]","21","0","","","","","","6","","","","","","","","",""
"","","","","","single-stim-button","348","629556","0.0-2.0-74.5-1.5","633cbe0c6fa76f7cc4ca1099","E1","batch5","","736","tol_toboard","","","","tol_peg_1","736","736","0","[[2,0,0],[3,1],[0]]","6","[[0,0,0],[1,2],[3]]","21","0","","","","","","6","","","","","","","","",""
"","","","","","single-stim-button","349","630177","0.0-2.0-74.6-0.6","633cbe0c6fa76f7cc4ca1099","E1","batch5","","620","tol_tohand","","","","tol_peg_2","620","620","0","[[2,0,0],[3,0],[0]]","7","[[0,0,0],[1,2],[3]]","21","0","","","","","","6","","","","","","","","",""
"","","","","","single-stim-button","350","631168","0.0-2.0-74.6-1.6","633cbe0c6fa76f7cc4ca1099","E1","batch5","","990","tol_toboard","","","","tol_peg_3","990","990","0","[[2,0,0],[3,0],[1]]","7","[[0,0,0],[1,2],[3]]","21","0","","","","","","6","","","","","","","","",""
"","","","","","single-stim-button","351","631708","0.0-2.0-74.7-0.7","633cbe0c6fa76f7cc4ca1099","E1","batch5","","539","tol_tohand","","","","tol_peg_2","539","539","0","[[2,0,0],[0,0],[1]]","8","[[0,0,0],[1,2],[3]]","21","0","","","","","","6","","","","","","","","",""
"","","","","","single-stim-button","352","632497","0.0-2.0-74.7-1.7","633cbe0c6fa76f7cc4ca1099","E1","batch5","","787","tol_toboard","","","","tol_peg_1","787","787","0","[[2,3,0],[0,0],[1]]","8","[[0,0,0],[1,2],[3]]","21","0","","","","","","6","","","","","","","","",""
"","","","","","single-stim-button","353","633221","0.0-2.0-74.8-0.8","633cbe0c6fa76f7cc4ca1099","E1","batch5","","724","tol_tohand","","","","tol_peg_3","724","724","0","[[2,3,0],[0,0],[0]]","9","[[0,0,0],[1,2],[3]]","21","0","","","","","","6","","","","","","","","",""
"","","","","","single-stim-button","354","633876","0.0-2.0-74.8-1.8","633cbe0c6fa76f7cc4ca1099","E1","batch5","","655","tol_toboard","","","","tol_peg_2","655","655","0","[[2,3,0],[1,0],[0]]","9","[[0,0,0],[1,2],[3]]","21","0","","","","","","6","","","","","","","","",""
"","","","","","single-stim-button","355","634453","0.0-2.0-74.9-0.9","633cbe0c6fa76f7cc4ca1099","E1","batch5","","576","tol_tohand","","","","tol_peg_1","576","576","0","[[2,0,0],[1,0],[0]]","10","[[0,0,0],[1,2],[3]]","21","0","","","","","","6","","","","","","","","",""
