success,timeout,failed_images,failed_audio,failed_video,trial_type,trial_index,time_elapsed,internal_node_id,subject_id,study_id,session_id,view_history,rt,stimulus,response,task,correct,answer,item,fiar_detect_rt,fiar_detect_correct,total_correct_fiar_detect,post_trial_gap,choices,spm_correct,spm_rt,mouse_click,stim_duration,block_duration,timing_post_trial,current_position,tol_num_moves_made,tol_target,tol_problem_id,tol_rt,key_press,possible_responses,tol_correct,preplanning,tol_rt_per_trial,tol_min_moves
TRUE,FALSE,[],[],[],preload,0,4971,0.0-0.0,6340d2fa46f2d707e146b63b,F1,batch6,,,,,,,,,,,,,,,,,,,,,,,,,,,,,,
TRUE,,,,,fullscreen,1,29206,0.0-1.0-0.0,6340d2fa46f2d707e146b63b,F1,batch6,,,,,,,,,,,,,,,,,,,,,,,,,,,,,,
TRUE,,,,,fullscreen,2,32891,0.0-2.0-0.0,6340d2fa46f2d707e146b63b,F1,batch6,,,,,,,,,,,,,,,,,,,,,,,,,,,,,,
,,,,,instructions,3,61451,0.0-2.0-1.0-0.0,6340d2fa46f2d707e146b63b,F1,batch6,"[{""page_index"":0,""viewing_time"":16779.90000000596},{""page_index"":1,""viewing_time"":11777.399999976158}]",28558,,,,,,,,,,,,,,,,,,,,,,,,,,,,
,,,,,html-button-response,4,62757,0.0-2.0-1.0-1.0-0.0,6340d2fa46f2d707e146b63b,F1,batch6,,1304.7000000178800,<p class=block-text> Let's answer a few questions <br>,0,pattern_enter_quiz,,,,,,,,,,,,,,,,,,,,,,,,,
,,,,,html-button-response,5,67814,0.0-2.0-1.0-1.0-1.0,6340d2fa46f2d707e146b63b,F1,batch6,,5053.799999982120,<p class = block-text>True or False: You will have as much time as you want to make each choice. <br></p>,1,pattern_quiz,TRUE,,,,,,,,,,,,,,,,,,,,,,,,
,,,,,html-button-response,6,69613,0.0-2.0-1.0-1.0-2.0,6340d2fa46f2d707e146b63b,F1,batch6,,1796,<p class = block-text>Correct! You should make your choice <strong> as fast as you can</strong>.</p>,0,pattern_quiz_feedback,,,,,,,,,,,,,,,,,,,,,,,,,
,,,,,html-button-response,7,75224,0.0-2.0-1.0-1.0-3.0,6340d2fa46f2d707e146b63b,F1,batch6,,5609,"<p class = block-text>True or False: You will look for 4 pieces in black or white color connected in a row either horizontally, vertically or diagonally. <br></p>",0,pattern_quiz,TRUE,,,,,,,,,,,,,,,,,,,,,,,,
,,,,,html-button-response,8,76126,0.0-2.0-1.0-1.0-4.0,6340d2fa46f2d707e146b63b,F1,batch6,,899.6000000238420,<p class = block-text>Correct! </p>,0,pattern_quiz_feedback,,,,,,,,,,,,,,,,,,,,,,,,,
,,,,,html-button-response,9,78056,0.0-2.0-2.0,6340d2fa46f2d707e146b63b,F1,batch6,,1926.9000000059600,"<p class=block-text> Now that you've understood the game, let's do a few practice trials before we start!<br> <br>",0,pattern_enter_practice,,,,,,,,,,,,,,,,,,,,,,,,,
,,,,,image-keyboard-response,10,79547,0.0-2.0-3.0-0.0,6340d2fa46f2d707e146b63b,F1,batch6,,1485.300000011920,stim/prac_no_16_1.png,j,pattern_practice,TRUE,j,,,,,,,,,,,,,,,,,,,,,,,
,,,,,html-keyboard-response,11,80564,0.0-2.0-3.0-1.0,6340d2fa46f2d707e146b63b,F1,batch6,,null,"<p style=""font-size:30px;color:green;"">Correct!</p>",null,pattern_feedback,,,,,,,,,,,,,,,,,,,,,,,,,
,,,,,image-keyboard-response,12,81287,0.0-2.0-3.0-0.1,6340d2fa46f2d707e146b63b,F1,batch6,,720.5999999940400,stim/prac_yes_16_ver_w1.png,f,pattern_practice,TRUE,f,,,,,,,,,,,,,,,,,,,,,,,
,,,,,html-keyboard-response,13,82309,0.0-2.0-3.0-1.1,6340d2fa46f2d707e146b63b,F1,batch6,,null,"<p style=""font-size:30px;color:green;"">Correct!</p>",null,pattern_feedback,,,,,,,,,,,,,,,,,,,,,,,,,
,,,,,image-keyboard-response,14,83011,0.0-2.0-3.0-0.2,6340d2fa46f2d707e146b63b,F1,batch6,,699.7999999821190,stim/prac_yes_18_hor_w1.png,f,pattern_practice,TRUE,f,,,,,,,,,,,,,,,,,,,,,,,
,,,,,html-keyboard-response,15,84034,0.0-2.0-3.0-1.2,6340d2fa46f2d707e146b63b,F1,batch6,,null,"<p style=""font-size:30px;color:green;"">Correct!</p>",null,pattern_feedback,,,,,,,,,,,,,,,,,,,,,,,,,
,,,,,image-keyboard-response,16,84880,0.0-2.0-3.0-0.3,6340d2fa46f2d707e146b63b,F1,batch6,,844.0999999940400,stim/prac_yes_20_dia_b1.png,j,pattern_practice,FALSE,f,,,,,,,,,,,,,,,,,,,,,,,
,,,,,html-keyboard-response,17,85894,0.0-2.0-3.0-1.3,6340d2fa46f2d707e146b63b,F1,batch6,,null,"<p style=""font-size:30px;color:red;"">Wrong.</p>",null,pattern_feedback,,,,,,,,,,,,,,,,,,,,,,,,,
,,,,,image-keyboard-response,18,86802,0.0-2.0-3.0-0.4,6340d2fa46f2d707e146b63b,F1,batch6,,905.8000000119210,stim/prac_no_18_1.png,j,pattern_practice,TRUE,j,,,,,,,,,,,,,,,,,,,,,,,
,,,,,html-keyboard-response,19,87827,0.0-2.0-3.0-1.4,6340d2fa46f2d707e146b63b,F1,batch6,,null,"<p style=""font-size:30px;color:green;"">Correct!</p>",null,pattern_feedback,,,,,,,,,,,,,,,,,,,,,,,,,
,,,,,html-button-response,20,92028,0.0-2.0-4.0,6340d2fa46f2d707e146b63b,F1,batch6,,4198,"<p class=block-text> Good job! You are done with practice trials!<br>
        You responded correctly on 80% of the trials.<br>
        Press the button below to start official trials. Now you won't see any feedback about your response</p>",0,pattern_enter_official_trials,,,,,,,,,,,,,,,,,,,,,,,,,
,,,,,html-keyboard-response,21,92841,0.0-2.0-5.0-0.0,6340d2fa46f2d707e146b63b,F1,batch6,,null,<p class=block-text>Trial 1 out of 78</p>,null,pattern_show_trial_num,,,,,,,,,,,,,,,,,,,,,,,,,
,,,,,image-keyboard-response,22,93634,0.0-2.0-5.0-1.0,6340d2fa46f2d707e146b63b,F1,batch6,,789.7000000178810,stim/yes_49_hor_w1_b.png,f,pattern_response,TRUE,f,pattern_70,789.7000000178810,TRUE,1,,,,,,,,,,,,,,,,,,,
,,,,,html-keyboard-response,23,94954,0.0-2.0-5.0-0.1,6340d2fa46f2d707e146b63b,F1,batch6,,null,<p class=block-text>Trial 2 out of 78</p>,null,pattern_show_trial_num,,,,,,,,,,,,,,,,,,,,,,,,,
,,,,,image-keyboard-response,24,95531,0.0-2.0-5.0-1.1,6340d2fa46f2d707e146b63b,F1,batch6,,573.6000000238420,stim/yes_12_hor_w1_w.png,f,pattern_response,TRUE,f,pattern_42,573.6000000238420,TRUE,2,,,,,,,,,,,,,,,,,,,
,,,,,html-keyboard-response,25,96840,0.0-2.0-5.0-0.2,6340d2fa46f2d707e146b63b,F1,batch6,,null,<p class=block-text>Trial 3 out of 78</p>,null,pattern_show_trial_num,,,,,,,,,,,,,,,,,,,,,,,,,
,,,,,image-keyboard-response,26,97438,0.0-2.0-5.0-1.2,6340d2fa46f2d707e146b63b,F1,batch6,,595.5999999940400,stim/yes_53_ver_b1_b.png,f,pattern_response,TRUE,f,pattern_74,595.5999999940400,TRUE,3,,,,,,,,,,,,,,,,,,,
,,,,,html-keyboard-response,27,98762,0.0-2.0-5.0-0.3,6340d2fa46f2d707e146b63b,F1,batch6,,null,<p class=block-text>Trial 4 out of 78</p>,null,pattern_show_trial_num,,,,,,,,,,,,,,,,,,,,,,,,,
,,,,,image-keyboard-response,28,99356,0.0-2.0-5.0-1.3,6340d2fa46f2d707e146b63b,F1,batch6,,591.4000000059610,stim/yes_15_dia_b1u_b.png,f,pattern_response,TRUE,f,pattern_44,591.4000000059610,TRUE,4,,,,,,,,,,,,,,,,,,,
,,,,,html-keyboard-response,29,100671,0.0-2.0-5.0-0.4,6340d2fa46f2d707e146b63b,F1,batch6,,null,<p class=block-text>Trial 5 out of 78</p>,null,pattern_show_trial_num,,,,,,,,,,,,,,,,,,,,,,,,,
,,,,,image-keyboard-response,30,101299,0.0-2.0-5.0-1.4,6340d2fa46f2d707e146b63b,F1,batch6,,626.0999999940400,stim/yes_39_hor_w1_w.png,f,pattern_response,TRUE,f,pattern_62,626.0999999940400,TRUE,5,,,,,,,,,,,,,,,,,,,
,,,,,html-keyboard-response,31,102628,0.0-2.0-5.0-0.5,6340d2fa46f2d707e146b63b,F1,batch6,,null,<p class=block-text>Trial 6 out of 78</p>,null,pattern_show_trial_num,,,,,,,,,,,,,,,,,,,,,,,,,
,,,,,image-keyboard-response,32,103209,0.0-2.0-5.0-1.5,6340d2fa46f2d707e146b63b,F1,batch6,,577.8000000119210,stim/no_67_1.png,f,pattern_response,FALSE,j,pattern_39,577.8000000119210,FALSE,5,,,,,,,,,,,,,,,,,,,
,,,,,html-keyboard-response,33,104525,0.0-2.0-5.0-0.6,6340d2fa46f2d707e146b63b,F1,batch6,,null,<p class=block-text>Trial 7 out of 78</p>,null,pattern_show_trial_num,,,,,,,,,,,,,,,,,,,,,,,,,
,,,,,image-keyboard-response,34,105218,0.0-2.0-5.0-1.6,6340d2fa46f2d707e146b63b,F1,batch6,,690.7000000178810,stim/yes_26_dia_w2_w.png,f,pattern_response,TRUE,f,pattern_50,690.7000000178810,TRUE,6,,,,,,,,,,,,,,,,,,,
,,,,,html-keyboard-response,35,106553,0.0-2.0-5.0-0.7,6340d2fa46f2d707e146b63b,F1,batch6,,null,<p class=block-text>Trial 8 out of 78</p>,null,pattern_show_trial_num,,,,,,,,,,,,,,,,,,,,,,,,,
,,,,,image-keyboard-response,36,107125,0.0-2.0-5.0-1.7,6340d2fa46f2d707e146b63b,F1,batch6,,570.2000000178810,stim/no_33_1_b.png,f,pattern_response,FALSE,j,pattern_15,570.2000000178810,FALSE,6,,,,,,,,,,,,,,,,,,,
,,,,,html-keyboard-response,37,108446,0.0-2.0-5.0-0.8,6340d2fa46f2d707e146b63b,F1,batch6,,null,<p class=block-text>Trial 9 out of 78</p>,null,pattern_show_trial_num,,,,,,,,,,,,,,,,,,,,,,,,,
,,,,,image-keyboard-response,38,109092,0.0-2.0-5.0-1.8,6340d2fa46f2d707e146b63b,F1,batch6,,644.1999999880790,stim/yes_63_dia_b1.png,f,pattern_response,TRUE,f,pattern_78,644.1999999880790,TRUE,7,,,,,,,,,,,,,,,,,,,
,,,,,html-keyboard-response,39,110406,0.0-2.0-5.0-0.9,6340d2fa46f2d707e146b63b,F1,batch6,,null,<p class=block-text>Trial 10 out of 78</p>,null,pattern_show_trial_num,,,,,,,,,,,,,,,,,,,,,,,,,
,,,,,image-keyboard-response,40,111132,0.0-2.0-5.0-1.9,6340d2fa46f2d707e146b63b,F1,batch6,,723.9000000059610,stim/no_15_1_w.png,j,pattern_response,TRUE,j,pattern_03,723.9000000059610,TRUE,8,,,,,,,,,,,,,,,,,,,
,,,,,html-keyboard-response,41,112448,0.0-2.0-5.0-0.10,6340d2fa46f2d707e146b63b,F1,batch6,,null,<p class=block-text>Trial 11 out of 78</p>,null,pattern_show_trial_num,,,,,,,,,,,,,,,,,,,,,,,,,
,,,,,image-keyboard-response,42,113133,0.0-2.0-5.0-1.10,6340d2fa46f2d707e146b63b,F1,batch6,,682.5999999940400,stim/no_22_1_b.png,j,pattern_response,TRUE,j,pattern_07,682.5999999940400,TRUE,9,,,,,,,,,,,,,,,,,,,
,,,,,html-keyboard-response,43,114438,0.0-2.0-5.0-0.11,6340d2fa46f2d707e146b63b,F1,batch6,,null,<p class=block-text>Trial 12 out of 78</p>,null,pattern_show_trial_num,,,,,,,,,,,,,,,,,,,,,,,,,
,,,,,image-keyboard-response,44,115517,0.0-2.0-5.0-1.11,6340d2fa46f2d707e146b63b,F1,batch6,,1076.699999988080,stim/no_58_1_w.png,j,pattern_response,TRUE,j,pattern_35,1076.699999988080,TRUE,9,,,,,,,,,,,,,,,,,,,
,,,,,html-keyboard-response,45,116836,0.0-2.0-5.0-0.12,6340d2fa46f2d707e146b63b,F1,batch6,,null,<p class=block-text>Trial 13 out of 78</p>,null,pattern_show_trial_num,,,,,,,,,,,,,,,,,,,,,,,,,
,,,,,image-keyboard-response,46,117613,0.0-2.0-5.0-1.12,6340d2fa46f2d707e146b63b,F1,batch6,,775.5999999940400,stim/no_39_1_w.png,j,pattern_response,TRUE,j,pattern_21,775.5999999940400,TRUE,10,,,,,,,,,,,,,,,,,,,
,,,,,html-keyboard-response,47,118927,0.0-2.0-5.0-0.13,6340d2fa46f2d707e146b63b,F1,batch6,,null,<p class=block-text>Trial 14 out of 78</p>,null,pattern_show_trial_num,,,,,,,,,,,,,,,,,,,,,,,,,
,,,,,image-keyboard-response,48,119686,0.0-2.0-5.0-1.13,6340d2fa46f2d707e146b63b,F1,batch6,,756.5,stim/yes_29_hor_b1_b.png,f,pattern_response,TRUE,f,pattern_52,756.5,TRUE,11,,,,,,,,,,,,,,,,,,,
,,,,,html-keyboard-response,49,121007,0.0-2.0-5.0-0.14,6340d2fa46f2d707e146b63b,F1,batch6,,null,<p class=block-text>Trial 15 out of 78</p>,null,pattern_show_trial_num,,,,,,,,,,,,,,,,,,,,,,,,,
,,,,,image-keyboard-response,50,121690,0.0-2.0-5.0-1.14,6340d2fa46f2d707e146b63b,F1,batch6,,680.4000000059610,stim/yes_46_ver_b1_b.png,f,pattern_response,TRUE,f,pattern_68,680.4000000059610,TRUE,12,,,,,,,,,,,,,,,,,,,
,,,,,html-keyboard-response,51,123010,0.0-2.0-5.0-0.15,6340d2fa46f2d707e146b63b,F1,batch6,,null,<p class=block-text>Trial 16 out of 78</p>,null,pattern_show_trial_num,,,,,,,,,,,,,,,,,,,,,,,,,
,,,,,image-keyboard-response,52,123573,0.0-2.0-5.0-1.15,6340d2fa46f2d707e146b63b,F1,batch6,,560.7000000178810,stim/yes_17_ver_b1_b.png,f,pattern_response,TRUE,f,pattern_46,560.7000000178810,TRUE,13,,,,,,,,,,,,,,,,,,,
,,,,,html-keyboard-response,53,124891,0.0-2.0-5.0-0.16,6340d2fa46f2d707e146b63b,F1,batch6,,null,<p class=block-text>Trial 17 out of 78</p>,null,pattern_show_trial_num,,,,,,,,,,,,,,,,,,,,,,,,,
,,,,,image-keyboard-response,54,125554,0.0-2.0-5.0-1.16,6340d2fa46f2d707e146b63b,F1,batch6,,660.4000000059610,stim/yes_33_dia_w1_w.png,f,pattern_response,TRUE,f,pattern_56,660.4000000059610,TRUE,13,,,,,,,,,,,,,,,,,,,
,,,,,html-keyboard-response,55,126874,0.0-2.0-5.0-0.17,6340d2fa46f2d707e146b63b,F1,batch6,,null,<p class=block-text>Trial 18 out of 78</p>,null,pattern_show_trial_num,,,,,,,,,,,,,,,,,,,,,,,,,
,,,,,image-keyboard-response,56,127599,0.0-2.0-5.0-1.17,6340d2fa46f2d707e146b63b,F1,batch6,,722.5,stim/yes_30_ver_b1_b.png,f,pattern_response,TRUE,f,pattern_54,722.5,TRUE,14,,,,,,,,,,,,,,,,,,,
,,,,,html-keyboard-response,57,128905,0.0-2.0-5.0-0.18,6340d2fa46f2d707e146b63b,F1,batch6,,null,<p class=block-text>Trial 19 out of 78</p>,null,pattern_show_trial_num,,,,,,,,,,,,,,,,,,,,,,,,,
,,,,,image-keyboard-response,58,129619,0.0-2.0-5.0-1.18,6340d2fa46f2d707e146b63b,F1,batch6,,711.8000000119210,stim/yes_51_dia_b1.png,f,pattern_response,TRUE,f,pattern_72,711.8000000119210,TRUE,15,,,,,,,,,,,,,,,,,,,
,,,,,html-keyboard-response,59,130931,0.0-2.0-5.0-0.19,6340d2fa46f2d707e146b63b,F1,batch6,,null,<p class=block-text>Trial 20 out of 78</p>,null,pattern_show_trial_num,,,,,,,,,,,,,,,,,,,,,,,,,
,,,,,image-keyboard-response,60,131916,0.0-2.0-5.0-1.19,6340d2fa46f2d707e146b63b,F1,batch6,,982.9000000059610,stim/no_51_1.png,j,pattern_response,TRUE,j,pattern_31,982.9000000059610,TRUE,16,,,,,,,,,,,,,,,,,,,
,,,,,html-keyboard-response,61,133233,0.0-2.0-5.0-0.20,6340d2fa46f2d707e146b63b,F1,batch6,,null,<p class=block-text>Trial 21 out of 78</p>,null,pattern_show_trial_num,,,,,,,,,,,,,,,,,,,,,,,,,
,,,,,image-keyboard-response,62,133897,0.0-2.0-5.0-1.20,6340d2fa46f2d707e146b63b,F1,batch6,,661.1999999880790,stim/no_12_1.png,j,pattern_response,TRUE,j,pattern_01,661.1999999880790,TRUE,17,,,,,,,,,,,,,,,,,,,
,,,,,html-keyboard-response,63,135206,0.0-2.0-5.0-0.21,6340d2fa46f2d707e146b63b,F1,batch6,,null,<p class=block-text>Trial 22 out of 78</p>,null,pattern_show_trial_num,,,,,,,,,,,,,,,,,,,,,,,,,
,,,,,image-keyboard-response,64,135987,0.0-2.0-5.0-1.21,6340d2fa46f2d707e146b63b,F1,batch6,,779.5,stim/no_30_1_b.png,j,pattern_response,TRUE,j,pattern_13,779.5,TRUE,18,,,,,,,,,,,,,,,,,,,
,,,,,html-keyboard-response,65,137303,0.0-2.0-5.0-0.22,6340d2fa46f2d707e146b63b,F1,batch6,,null,<p class=block-text>Trial 23 out of 78</p>,null,pattern_show_trial_num,,,,,,,,,,,,,,,,,,,,,,,,,
,,,,,image-keyboard-response,66,138014,0.0-2.0-5.0-1.22,6340d2fa46f2d707e146b63b,F1,batch6,,708.3000000119210,stim/no_25_1_b.png,j,pattern_response,TRUE,j,pattern_09,708.3000000119210,TRUE,19,,,,,,,,,,,,,,,,,,,
,,,,,html-keyboard-response,67,139325,0.0-2.0-5.0-0.23,6340d2fa46f2d707e146b63b,F1,batch6,,null,<p class=block-text>Trial 24 out of 78</p>,null,pattern_show_trial_num,,,,,,,,,,,,,,,,,,,,,,,,,
,,,,,image-keyboard-response,68,139997,0.0-2.0-5.0-1.23,6340d2fa46f2d707e146b63b,F1,batch6,,669,stim/yes_37_hor_w1_w.png,f,pattern_response,TRUE,f,pattern_60,669,TRUE,20,,,,,,,,,,,,,,,,,,,
,,,,,html-keyboard-response,69,141317,0.0-2.0-5.0-0.24,6340d2fa46f2d707e146b63b,F1,batch6,,null,<p class=block-text>Trial 25 out of 78</p>,null,pattern_show_trial_num,,,,,,,,,,,,,,,,,,,,,,,,,
,,,,,image-keyboard-response,70,141852,0.0-2.0-5.0-1.24,6340d2fa46f2d707e146b63b,F1,batch6,,532.9000000059610,stim/yes_58_dia_w1_w.png,f,pattern_response,TRUE,f,pattern_76,532.9000000059610,TRUE,21,,,,,,,,,,,,,,,,,,,
,,,,,html-keyboard-response,71,143158,0.0-2.0-5.0-0.25,6340d2fa46f2d707e146b63b,F1,batch6,,null,<p class=block-text>Trial 26 out of 78</p>,null,pattern_show_trial_num,,,,,,,,,,,,,,,,,,,,,,,,,
,,,,,image-keyboard-response,72,143923,0.0-2.0-5.0-1.25,6340d2fa46f2d707e146b63b,F1,batch6,,763.0999999940400,stim/no_36_1_b.png,j,pattern_response,TRUE,j,pattern_17,763.0999999940400,TRUE,22,,,,,,,,,,,,,,,,,,,
,,,,,html-keyboard-response,73,145236,0.0-2.0-5.0-0.26,6340d2fa46f2d707e146b63b,F1,batch6,,null,<p class=block-text>Trial 27 out of 78</p>,null,pattern_show_trial_num,,,,,,,,,,,,,,,,,,,,,,,,,
,,,,,image-keyboard-response,74,145915,0.0-2.0-5.0-1.26,6340d2fa46f2d707e146b63b,F1,batch6,,677,stim/yes_36_ver_w1_w.png,f,pattern_response,TRUE,f,pattern_58,677,TRUE,23,,,,,,,,,,,,,,,,,,,
,,,,,html-keyboard-response,75,147242,0.0-2.0-5.0-0.27,6340d2fa46f2d707e146b63b,F1,batch6,,null,<p class=block-text>Trial 28 out of 78</p>,null,pattern_show_trial_num,,,,,,,,,,,,,,,,,,,,,,,,,
,,,,,image-keyboard-response,76,147946,0.0-2.0-5.0-1.27,6340d2fa46f2d707e146b63b,F1,batch6,,701.1000000238420,stim/no_45_1_w.png,f,pattern_response,FALSE,j,pattern_25,701.1000000238420,FALSE,23,,,,,,,,,,,,,,,,,,,
,,,,,html-keyboard-response,77,149274,0.0-2.0-5.0-0.28,6340d2fa46f2d707e146b63b,F1,batch6,,null,<p class=block-text>Trial 29 out of 78</p>,null,pattern_show_trial_num,,,,,,,,,,,,,,,,,,,,,,,,,
,,,,,image-keyboard-response,78,149843,0.0-2.0-5.0-1.28,6340d2fa46f2d707e146b63b,F1,batch6,,566.5999999940400,stim/yes_70_ver_b1.png,f,pattern_response,TRUE,f,pattern_80,566.5999999940400,TRUE,24,,,,,,,,,,,,,,,,,,,
,,,,,html-keyboard-response,79,151163,0.0-2.0-5.0-0.29,6340d2fa46f2d707e146b63b,F1,batch6,,null,<p class=block-text>Trial 30 out of 78</p>,null,pattern_show_trial_num,,,,,,,,,,,,,,,,,,,,,,,,,
,,,,,image-keyboard-response,80,151860,0.0-2.0-5.0-1.29,6340d2fa46f2d707e146b63b,F1,batch6,,694.5,stim/yes_23_ver_b1.png,f,pattern_response,TRUE,f,pattern_48,694.5,TRUE,24,,,,,,,,,,,,,,,,,,,
,,,,,html-keyboard-response,81,153178,0.0-2.0-5.0-0.30,6340d2fa46f2d707e146b63b,F1,batch6,,null,<p class=block-text>Trial 31 out of 78</p>,null,pattern_show_trial_num,,,,,,,,,,,,,,,,,,,,,,,,,
,,,,,image-keyboard-response,82,153967,0.0-2.0-5.0-1.30,6340d2fa46f2d707e146b63b,F1,batch6,,786.8999999761580,stim/yes_42_dia_w1_w.png,f,pattern_response,TRUE,f,pattern_64,786.8999999761580,TRUE,25,,,,,,,,,,,,,,,,,,,
,,,,,html-keyboard-response,83,155287,0.0-2.0-5.0-0.31,6340d2fa46f2d707e146b63b,F1,batch6,,null,<p class=block-text>Trial 32 out of 78</p>,null,pattern_show_trial_num,,,,,,,,,,,,,,,,,,,,,,,,,
,,,,,image-keyboard-response,84,155988,0.0-2.0-5.0-1.31,6340d2fa46f2d707e146b63b,F1,batch6,,699.0999999940400,stim/no_37_2_w.png,f,pattern_response,FALSE,j,pattern_19,699.0999999940400,FALSE,25,,,,,,,,,,,,,,,,,,,
,,,,,html-keyboard-response,85,157308,0.0-2.0-5.0-0.32,6340d2fa46f2d707e146b63b,F1,batch6,,null,<p class=block-text>Trial 33 out of 78</p>,null,pattern_show_trial_num,,,,,,,,,,,,,,,,,,,,,,,,,
,,,,,image-keyboard-response,86,157955,0.0-2.0-5.0-1.32,6340d2fa46f2d707e146b63b,F1,batch6,,644.8999999761580,stim/no_18_1_b.png,j,pattern_response,TRUE,j,pattern_05,644.8999999761580,TRUE,26,,,,,,,,,,,,,,,,,,,
,,,,,html-keyboard-response,87,159270,0.0-2.0-5.0-0.33,6340d2fa46f2d707e146b63b,F1,batch6,,null,<p class=block-text>Trial 34 out of 78</p>,null,pattern_show_trial_num,,,,,,,,,,,,,,,,,,,,,,,,,
,,,,,image-keyboard-response,88,159927,0.0-2.0-5.0-1.33,6340d2fa46f2d707e146b63b,F1,batch6,,654.9000000059610,stim/no_53_1_b.png,f,pattern_response,FALSE,j,pattern_33,654.9000000059610,FALSE,26,,,,,,,,,,,,,,,,,,,
,,,,,html-keyboard-response,89,161243,0.0-2.0-5.0-0.34,6340d2fa46f2d707e146b63b,F1,batch6,,null,<p class=block-text>Trial 35 out of 78</p>,null,pattern_show_trial_num,,,,,,,,,,,,,,,,,,,,,,,,,
,,,,,image-keyboard-response,90,161878,0.0-2.0-5.0-1.34,6340d2fa46f2d707e146b63b,F1,batch6,,632.3000000119210,stim/no_47_1_b.png,j,pattern_response,TRUE,j,pattern_27,632.3000000119210,TRUE,26,,,,,,,,,,,,,,,,,,,
,,,,,html-keyboard-response,91,163201,0.0-2.0-5.0-0.35,6340d2fa46f2d707e146b63b,F1,batch6,,null,<p class=block-text>Trial 36 out of 78</p>,null,pattern_show_trial_num,,,,,,,,,,,,,,,,,,,,,,,,,
,,,,,image-keyboard-response,92,164201,0.0-2.0-5.0-1.35,6340d2fa46f2d707e146b63b,F1,batch6,,996.8000000119210,stim/no_49_2_b.png,j,pattern_response,TRUE,j,pattern_29,996.8000000119210,TRUE,27,,,,,,,,,,,,,,,,,,,
,,,,,html-keyboard-response,93,165514,0.0-2.0-5.0-0.36,6340d2fa46f2d707e146b63b,F1,batch6,,null,<p class=block-text>Trial 37 out of 78</p>,null,pattern_show_trial_num,,,,,,,,,,,,,,,,,,,,,,,,,
,,,,,image-keyboard-response,94,166789,0.0-2.0-5.0-1.36,6340d2fa46f2d707e146b63b,F1,batch6,,1272.300000011920,stim/no_28_2.png,j,pattern_response,TRUE,j,pattern_11,1272.300000011920,TRUE,28,,,,,,,,,,,,,,,,,,,
,,,,,html-keyboard-response,95,168102,0.0-2.0-5.0-0.37,6340d2fa46f2d707e146b63b,F1,batch6,,null,<p class=block-text>Trial 38 out of 78</p>,null,pattern_show_trial_num,,,,,,,,,,,,,,,,,,,,,,,,,
,,,,,image-keyboard-response,96,168987,0.0-2.0-5.0-1.37,6340d2fa46f2d707e146b63b,F1,batch6,,882,stim/no_43_2_b.png,j,pattern_response,TRUE,j,pattern_23,882,TRUE,29,,,,,,,,,,,,,,,,,,,
,,,,,html-keyboard-response,97,170308,0.0-2.0-5.0-0.38,6340d2fa46f2d707e146b63b,F1,batch6,,null,<p class=block-text>Trial 39 out of 78</p>,null,pattern_show_trial_num,,,,,,,,,,,,,,,,,,,,,,,,,
,,,,,image-keyboard-response,98,171073,0.0-2.0-5.0-1.38,6340d2fa46f2d707e146b63b,F1,batch6,,761.5999999940400,stim/yes_44_ver_w1_w.png,f,pattern_response,TRUE,f,pattern_66,761.5999999940400,TRUE,30,,,,,,,,,,,,,,,,,,,
,,,,,image-keyboard-response,99,174030,0.0-2.0-6.0,6340d2fa46f2d707e146b63b,F1,batch6,,2453.300000011920,stim/empty_board.png,j,attention_check,TRUE,j,,,,,500,"[""f"",""j""]",,,,,,,,,,,,,,,,,
,,,,,html-keyboard-response,100,174837,0.0-2.0-7.0-0.0,6340d2fa46f2d707e146b63b,F1,batch6,,null,<p class=block-text>Trial 40 out of 78</p>,null,pattern_show_trial_num,,,,,,,,,,,,,,,,,,,,,,,,,
,,,,,image-keyboard-response,101,175714,0.0-2.0-7.0-1.0,6340d2fa46f2d707e146b63b,F1,batch6,,874.8999999761580,stim/no_23_1.png,j,pattern_response,TRUE,j,pattern_08,874.8999999761580,TRUE,31,,,,,,,,,,,,,,,,,,,
,,,,,html-keyboard-response,102,177025,0.0-2.0-7.0-0.1,6340d2fa46f2d707e146b63b,F1,batch6,,null,<p class=block-text>Trial 41 out of 78</p>,null,pattern_show_trial_num,,,,,,,,,,,,,,,,,,,,,,,,,
,,,,,image-keyboard-response,103,178039,0.0-2.0-7.0-1.1,6340d2fa46f2d707e146b63b,F1,batch6,,1011.5,stim/yes_52_ver_w1.png,f,pattern_response,TRUE,f,pattern_73,1011.5,TRUE,32,,,,,,,,,,,,,,,,,,,
,,,,,html-keyboard-response,104,179346,0.0-2.0-7.0-0.2,6340d2fa46f2d707e146b63b,F1,batch6,,null,<p class=block-text>Trial 42 out of 78</p>,null,pattern_show_trial_num,,,,,,,,,,,,,,,,,,,,,,,,,
,,,,,image-keyboard-response,105,180501,0.0-2.0-7.0-1.2,6340d2fa46f2d707e146b63b,F1,batch6,,1152.4000000059600,stim/no_29_1_b.png,j,pattern_response,TRUE,j,pattern_12,1152.4000000059600,TRUE,33,,,,,,,,,,,,,,,,,,,
,,,,,html-keyboard-response,106,181804,0.0-2.0-7.0-0.3,6340d2fa46f2d707e146b63b,F1,batch6,,null,<p class=block-text>Trial 43 out of 78</p>,null,pattern_show_trial_num,,,,,,,,,,,,,,,,,,,,,,,,,
,,,,,image-keyboard-response,107,182803,0.0-2.0-7.0-1.3,6340d2fa46f2d707e146b63b,F1,batch6,,997,stim/yes_31_hor_b1.png,j,pattern_response,FALSE,f,pattern_55,997,FALSE,33,,,,,,,,,,,,,,,,,,,
,,,,,html-keyboard-response,108,184112,0.0-2.0-7.0-0.4,6340d2fa46f2d707e146b63b,F1,batch6,,null,<p class=block-text>Trial 44 out of 78</p>,null,pattern_show_trial_num,,,,,,,,,,,,,,,,,,,,,,,,,
,,,,,image-keyboard-response,109,184888,0.0-2.0-7.0-1.4,6340d2fa46f2d707e146b63b,F1,batch6,,774.5999999940400,stim/yes_55_hor_w1_w.png,f,pattern_response,TRUE,f,pattern_75,774.5999999940400,TRUE,34,,,,,,,,,,,,,,,,,,,
,,,,,html-keyboard-response,110,186202,0.0-2.0-7.0-0.5,6340d2fa46f2d707e146b63b,F1,batch6,,null,<p class=block-text>Trial 45 out of 78</p>,null,pattern_show_trial_num,,,,,,,,,,,,,,,,,,,,,,,,,
,,,,,image-keyboard-response,111,187178,0.0-2.0-7.0-1.5,6340d2fa46f2d707e146b63b,F1,batch6,,974.0999999940400,stim/yes_29_ver_w1.png,f,pattern_response,TRUE,f,pattern_53,974.0999999940400,TRUE,35,,,,,,,,,,,,,,,,,,,
,,,,,html-keyboard-response,112,188487,0.0-2.0-7.0-0.6,6340d2fa46f2d707e146b63b,F1,batch6,,null,<p class=block-text>Trial 46 out of 78</p>,null,pattern_show_trial_num,,,,,,,,,,,,,,,,,,,,,,,,,
,,,,,image-keyboard-response,113,189505,0.0-2.0-7.0-1.6,6340d2fa46f2d707e146b63b,F1,batch6,,1015,stim/no_55_1_w.png,j,pattern_response,TRUE,j,pattern_34,1015,TRUE,36,,,,,,,,,,,,,,,,,,,
,,,,,html-keyboard-response,114,190819,0.0-2.0-7.0-0.7,6340d2fa46f2d707e146b63b,F1,batch6,,null,<p class=block-text>Trial 47 out of 78</p>,null,pattern_show_trial_num,,,,,,,,,,,,,,,,,,,,,,,,,
,,,,,image-keyboard-response,115,191516,0.0-2.0-7.0-1.7,6340d2fa46f2d707e146b63b,F1,batch6,,695.0999999940400,stim/no_26_1_w.png,j,pattern_response,TRUE,j,pattern_10,695.0999999940400,TRUE,37,,,,,,,,,,,,,,,,,,,
,,,,,html-keyboard-response,116,192842,0.0-2.0-7.0-0.8,6340d2fa46f2d707e146b63b,F1,batch6,,null,<p class=block-text>Trial 48 out of 78</p>,null,pattern_show_trial_num,,,,,,,,,,,,,,,,,,,,,,,,,
,,,,,image-keyboard-response,117,193625,0.0-2.0-7.0-1.8,6340d2fa46f2d707e146b63b,F1,batch6,,780.0999999940400,stim/no_36_2_w.png,j,pattern_response,TRUE,j,pattern_18,780.0999999940400,TRUE,37,,,,,,,,,,,,,,,,,,,
,,,,,html-keyboard-response,118,194953,0.0-2.0-7.0-0.9,6340d2fa46f2d707e146b63b,F1,batch6,,null,<p class=block-text>Trial 49 out of 78</p>,null,pattern_show_trial_num,,,,,,,,,,,,,,,,,,,,,,,,,
,,,,,image-keyboard-response,119,195966,0.0-2.0-7.0-1.9,6340d2fa46f2d707e146b63b,F1,batch6,,1009.6999999880800,stim/yes_38_hor_b1_b.png,f,pattern_response,TRUE,f,pattern_61,1009.6999999880800,TRUE,38,,,,,,,,,,,,,,,,,,,
,,,,,html-keyboard-response,120,197278,0.0-2.0-7.0-0.10,6340d2fa46f2d707e146b63b,F1,batch6,,null,<p class=block-text>Trial 50 out of 78</p>,null,pattern_show_trial_num,,,,,,,,,,,,,,,,,,,,,,,,,
,,,,,image-keyboard-response,121,198426,0.0-2.0-7.0-1.10,6340d2fa46f2d707e146b63b,F1,batch6,,1146,stim/yes_67_hor_b1.png,f,pattern_response,TRUE,f,pattern_79,1146,TRUE,38,,,,,,,,,,,,,,,,,,,
,,,,,html-keyboard-response,122,199732,0.0-2.0-7.0-0.11,6340d2fa46f2d707e146b63b,F1,batch6,,null,<p class=block-text>Trial 51 out of 78</p>,null,pattern_show_trial_num,,,,,,,,,,,,,,,,,,,,,,,,,
,,,,,image-keyboard-response,123,200881,0.0-2.0-7.0-1.11,6340d2fa46f2d707e146b63b,F1,batch6,,1146.7000000178800,stim/no_32_1_w.png,j,pattern_response,TRUE,j,pattern_14,1146.7000000178800,TRUE,39,,,,,,,,,,,,,,,,,,,
,,,,,html-keyboard-response,124,202196,0.0-2.0-7.0-0.12,6340d2fa46f2d707e146b63b,F1,batch6,,null,<p class=block-text>Trial 52 out of 78</p>,null,pattern_show_trial_num,,,,,,,,,,,,,,,,,,,,,,,,,
,,,,,image-keyboard-response,125,203107,0.0-2.0-7.0-1.12,6340d2fa46f2d707e146b63b,F1,batch6,,908.2999999821190,stim/no_42_1_w.png,f,pattern_response,FALSE,j,pattern_22,908.2999999821190,FALSE,39,,,,,,,,,,,,,,,,,,,
,,,,,html-keyboard-response,126,204423,0.0-2.0-7.0-0.13,6340d2fa46f2d707e146b63b,F1,batch6,,null,<p class=block-text>Trial 53 out of 78</p>,null,pattern_show_trial_num,,,,,,,,,,,,,,,,,,,,,,,,,
,,,,,image-keyboard-response,127,205592,0.0-2.0-7.0-1.13,6340d2fa46f2d707e146b63b,F1,batch6,,1156.9000000059600,stim/no_62_1_w.png,f,pattern_response,FALSE,j,pattern_36,1156.9000000059600,FALSE,39,,,,,,,,,,,,,,,,,,,
,,,,,html-keyboard-response,128,206895,0.0-2.0-7.0-0.14,6340d2fa46f2d707e146b63b,F1,batch6,,null,<p class=block-text>Trial 54 out of 78</p>,null,pattern_show_trial_num,,,,,,,,,,,,,,,,,,,,,,,,,
,,,,,image-keyboard-response,129,208178,0.0-2.0-7.0-1.14,6340d2fa46f2d707e146b63b,F1,batch6,,1280.7000000178800,stim/no_48_1_w.png,j,pattern_response,TRUE,j,pattern_28,1280.7000000178800,TRUE,39,,,,,,,,,,,,,,,,,,,
,,,,,html-keyboard-response,130,209496,0.0-2.0-7.0-0.15,6340d2fa46f2d707e146b63b,F1,batch6,,null,<p class=block-text>Trial 55 out of 78</p>,null,pattern_show_trial_num,,,,,,,,,,,,,,,,,,,,,,,,,
,,,,,image-keyboard-response,131,210816,0.0-2.0-7.0-1.15,6340d2fa46f2d707e146b63b,F1,batch6,,1318.2000000178800,stim/yes_45_hor_b2_b.png,f,pattern_response,TRUE,f,pattern_67,1318.2000000178800,TRUE,40,,,,,,,,,,,,,,,,,,,
,,,,,html-keyboard-response,132,212136,0.0-2.0-7.0-0.16,6340d2fa46f2d707e146b63b,F1,batch6,,null,<p class=block-text>Trial 56 out of 78</p>,null,pattern_show_trial_num,,,,,,,,,,,,,,,,,,,,,,,,,
,,,,,image-keyboard-response,133,213255,0.0-2.0-7.0-1.16,6340d2fa46f2d707e146b63b,F1,batch6,,1116.199999988080,stim/no_38_1_b.png,f,pattern_response,FALSE,j,pattern_20,1116.199999988080,FALSE,40,,,,,,,,,,,,,,,,,,,
,,,,,html-keyboard-response,134,214572,0.0-2.0-7.0-0.17,6340d2fa46f2d707e146b63b,F1,batch6,,null,<p class=block-text>Trial 57 out of 78</p>,null,pattern_show_trial_num,,,,,,,,,,,,,,,,,,,,,,,,,
,,,,,image-keyboard-response,135,215521,0.0-2.0-7.0-1.17,6340d2fa46f2d707e146b63b,F1,batch6,,946.4000000059610,stim/yes_25_hor_b1_b.png,f,pattern_response,TRUE,f,pattern_49,946.4000000059610,TRUE,41,,,,,,,,,,,,,,,,,,,
,,,,,html-keyboard-response,136,216847,0.0-2.0-7.0-0.18,6340d2fa46f2d707e146b63b,F1,batch6,,null,<p class=block-text>Trial 58 out of 78</p>,null,pattern_show_trial_num,,,,,,,,,,,,,,,,,,,,,,,,,
,,,,,image-keyboard-response,137,218217,0.0-2.0-7.0-1.18,6340d2fa46f2d707e146b63b,F1,batch6,,1367.9000000059600,stim/yes_40_dia_b1_b.png,f,pattern_response,TRUE,f,pattern_63,1367.9000000059600,TRUE,41,,,,,,,,,,,,,,,,,,,
,,,,,html-keyboard-response,138,219535,0.0-2.0-7.0-0.19,6340d2fa46f2d707e146b63b,F1,batch6,,null,<p class=block-text>Trial 59 out of 78</p>,null,pattern_show_trial_num,,,,,,,,,,,,,,,,,,,,,,,,,
,,,,,image-keyboard-response,139,220505,0.0-2.0-7.0-1.19,6340d2fa46f2d707e146b63b,F1,batch6,,966.8999999761580,stim/no_20_1_w.png,j,pattern_response,TRUE,j,pattern_06,966.8999999761580,TRUE,42,,,,,,,,,,,,,,,,,,,
,,,,,html-keyboard-response,140,221817,0.0-2.0-7.0-0.20,6340d2fa46f2d707e146b63b,F1,batch6,,null,<p class=block-text>Trial 60 out of 78</p>,null,pattern_show_trial_num,,,,,,,,,,,,,,,,,,,,,,,,,
,,,,,image-keyboard-response,141,222908,0.0-2.0-7.0-1.20,6340d2fa46f2d707e146b63b,F1,batch6,,1089,stim/no_50_1.png,j,pattern_response,TRUE,j,pattern_30,1089,TRUE,43,,,,,,,,,,,,,,,,,,,
,,,,,html-keyboard-response,142,224229,0.0-2.0-7.0-0.21,6340d2fa46f2d707e146b63b,F1,batch6,,null,<p class=block-text>Trial 61 out of 78</p>,null,pattern_show_trial_num,,,,,,,,,,,,,,,,,,,,,,,,,
,,,,,image-keyboard-response,143,225504,0.0-2.0-7.0-1.21,6340d2fa46f2d707e146b63b,F1,batch6,,1272.7999999821200,stim/yes_50_dia_w1.png,f,pattern_response,TRUE,f,pattern_71,1272.7999999821200,TRUE,44,,,,,,,,,,,,,,,,,,,
,,,,,html-keyboard-response,144,226823,0.0-2.0-7.0-0.22,6340d2fa46f2d707e146b63b,F1,batch6,,null,<p class=block-text>Trial 62 out of 78</p>,null,pattern_show_trial_num,,,,,,,,,,,,,,,,,,,,,,,,,
,,,,,image-keyboard-response,145,228093,0.0-2.0-7.0-1.22,6340d2fa46f2d707e146b63b,F1,batch6,,1266.5999999940400,stim/yes_60_ver_b1_b.png,f,pattern_response,TRUE,f,pattern_77,1266.5999999940400,TRUE,45,,,,,,,,,,,,,,,,,,,
,,,,,html-keyboard-response,146,229423,0.0-2.0-7.0-0.23,6340d2fa46f2d707e146b63b,F1,batch6,,null,<p class=block-text>Trial 63 out of 78</p>,null,pattern_show_trial_num,,,,,,,,,,,,,,,,,,,,,,,,,
,,,,,image-keyboard-response,147,230286,0.0-2.0-7.0-1.23,6340d2fa46f2d707e146b63b,F1,batch6,,861.3000000119210,stim/no_13_2_b.png,j,pattern_response,TRUE,j,pattern_02,861.3000000119210,TRUE,46,,,,,,,,,,,,,,,,,,,
,,,,,html-keyboard-response,148,231605,0.0-2.0-7.0-0.24,6340d2fa46f2d707e146b63b,F1,batch6,,null,<p class=block-text>Trial 64 out of 78</p>,null,pattern_show_trial_num,,,,,,,,,,,,,,,,,,,,,,,,,
,,,,,image-keyboard-response,149,232502,0.0-2.0-7.0-1.24,6340d2fa46f2d707e146b63b,F1,batch6,,894.1999999880790,stim/no_17_1_w.png,j,pattern_response,TRUE,j,pattern_04,894.1999999880790,TRUE,47,,,,,,,,,,,,,,,,,,,
,,,,,html-keyboard-response,150,233824,0.0-2.0-7.0-0.25,6340d2fa46f2d707e146b63b,F1,batch6,,null,<p class=block-text>Trial 65 out of 78</p>,null,pattern_show_trial_num,,,,,,,,,,,,,,,,,,,,,,,,,
,,,,,image-keyboard-response,151,234719,0.0-2.0-7.0-1.25,6340d2fa46f2d707e146b63b,F1,batch6,,892.7000000178810,stim/yes_48_dia_w1_w.png,f,pattern_response,TRUE,f,pattern_69,892.7000000178810,TRUE,48,,,,,,,,,,,,,,,,,,,
,,,,,html-keyboard-response,152,236035,0.0-2.0-7.0-0.26,6340d2fa46f2d707e146b63b,F1,batch6,,null,<p class=block-text>Trial 66 out of 78</p>,null,pattern_show_trial_num,,,,,,,,,,,,,,,,,,,,,,,,,
,,,,,image-keyboard-response,153,236780,0.0-2.0-7.0-1.26,6340d2fa46f2d707e146b63b,F1,batch6,,743.0999999940400,stim/yes_22_ver_w1.png,f,pattern_response,TRUE,f,pattern_47,743.0999999940400,TRUE,49,,,,,,,,,,,,,,,,,,,
,,,,,html-keyboard-response,154,238090,0.0-2.0-7.0-0.27,6340d2fa46f2d707e146b63b,F1,batch6,,null,<p class=block-text>Trial 67 out of 78</p>,null,pattern_show_trial_num,,,,,,,,,,,,,,,,,,,,,,,,,
,,,,,image-keyboard-response,155,239164,0.0-2.0-7.0-1.27,6340d2fa46f2d707e146b63b,F1,batch6,,1072.4000000059600,stim/yes_35_dia_b1.png,f,pattern_response,TRUE,f,pattern_57,1072.4000000059600,TRUE,49,,,,,,,,,,,,,,,,,,,
,,,,,html-keyboard-response,156,240476,0.0-2.0-7.0-0.28,6340d2fa46f2d707e146b63b,F1,batch6,,null,<p class=block-text>Trial 68 out of 78</p>,null,pattern_show_trial_num,,,,,,,,,,,,,,,,,,,,,,,,,
,,,,,image-keyboard-response,157,241622,0.0-2.0-7.0-1.28,6340d2fa46f2d707e146b63b,F1,batch6,,1143.4000000059600,stim/no_44_1.png,j,pattern_response,TRUE,j,pattern_24,1143.4000000059600,TRUE,50,,,,,,,,,,,,,,,,,,,
,,,,,html-keyboard-response,158,242932,0.0-2.0-7.0-0.29,6340d2fa46f2d707e146b63b,F1,batch6,,null,<p class=block-text>Trial 69 out of 78</p>,null,pattern_show_trial_num,,,,,,,,,,,,,,,,,,,,,,,,,
,,,,,image-keyboard-response,159,243891,0.0-2.0-7.0-1.29,6340d2fa46f2d707e146b63b,F1,batch6,,956.5999999940400,stim/yes_28_ver_b1.png,f,pattern_response,TRUE,f,pattern_51,956.5999999940400,TRUE,51,,,,,,,,,,,,,,,,,,,
,,,,,html-keyboard-response,160,245195,0.0-2.0-7.0-0.30,6340d2fa46f2d707e146b63b,F1,batch6,,null,<p class=block-text>Trial 70 out of 78</p>,null,pattern_show_trial_num,,,,,,,,,,,,,,,,,,,,,,,,,
,,,,,image-keyboard-response,161,246055,0.0-2.0-7.0-1.30,6340d2fa46f2d707e146b63b,F1,batch6,,857.3000000119210,stim/no_65_1_b.png,f,pattern_response,FALSE,j,pattern_38,857.3000000119210,FALSE,51,,,,,,,,,,,,,,,,,,,
,,,,,html-keyboard-response,162,247368,0.0-2.0-7.0-0.31,6340d2fa46f2d707e146b63b,F1,batch6,,null,<p class=block-text>Trial 71 out of 78</p>,null,pattern_show_trial_num,,,,,,,,,,,,,,,,,,,,,,,,,
,,,,,image-keyboard-response,163,248179,0.0-2.0-7.0-1.31,6340d2fa46f2d707e146b63b,F1,batch6,,808.6999999880790,stim/yes_17_dia_w1.png,f,pattern_response,TRUE,f,pattern_45,808.6999999880790,TRUE,52,,,,,,,,,,,,,,,,,,,
,,,,,html-keyboard-response,164,249499,0.0-2.0-7.0-0.32,6340d2fa46f2d707e146b63b,F1,batch6,,null,<p class=block-text>Trial 72 out of 78</p>,null,pattern_show_trial_num,,,,,,,,,,,,,,,,,,,,,,,,,
,,,,,image-keyboard-response,165,250316,0.0-2.0-7.0-1.32,6340d2fa46f2d707e146b63b,F1,batch6,,815,stim/no_34_1_b.png,j,pattern_response,TRUE,j,pattern_16,815,TRUE,53,,,,,,,,,,,,,,,,,,,
,,,,,html-keyboard-response,166,251636,0.0-2.0-7.0-0.33,6340d2fa46f2d707e146b63b,F1,batch6,,null,<p class=block-text>Trial 73 out of 78</p>,null,pattern_show_trial_num,,,,,,,,,,,,,,,,,,,,,,,,,
,,,,,image-keyboard-response,167,252533,0.0-2.0-7.0-1.33,6340d2fa46f2d707e146b63b,F1,batch6,,895.0999999940400,stim/no_70_2.png,j,pattern_response,TRUE,j,pattern_40,895.0999999940400,TRUE,53,,,,,,,,,,,,,,,,,,,
,,,,,html-keyboard-response,168,253861,0.0-2.0-7.0-0.34,6340d2fa46f2d707e146b63b,F1,batch6,,null,<p class=block-text>Trial 74 out of 78</p>,null,pattern_show_trial_num,,,,,,,,,,,,,,,,,,,,,,,,,
,,,,,image-keyboard-response,169,254890,0.0-2.0-7.0-1.34,6340d2fa46f2d707e146b63b,F1,batch6,,1027.199999988080,stim/no_52_1.png,j,pattern_response,TRUE,j,pattern_32,1027.199999988080,TRUE,54,,,,,,,,,,,,,,,,,,,
,,,,,html-keyboard-response,170,256198,0.0-2.0-7.0-0.35,6340d2fa46f2d707e146b63b,F1,batch6,,null,<p class=block-text>Trial 75 out of 78</p>,null,pattern_show_trial_num,,,,,,,,,,,,,,,,,,,,,,,,,
,,,,,image-keyboard-response,171,257424,0.0-2.0-7.0-1.35,6340d2fa46f2d707e146b63b,F1,batch6,,1223.2999999821200,stim/no_46_1_b.png,j,pattern_response,TRUE,j,pattern_26,1223.2999999821200,TRUE,55,,,,,,,,,,,,,,,,,,,
,,,,,html-keyboard-response,172,258742,0.0-2.0-7.0-0.36,6340d2fa46f2d707e146b63b,F1,batch6,,null,<p class=block-text>Trial 76 out of 78</p>,null,pattern_show_trial_num,,,,,,,,,,,,,,,,,,,,,,,,,
,,,,,image-keyboard-response,173,259869,0.0-2.0-7.0-1.36,6340d2fa46f2d707e146b63b,F1,batch6,,1123,stim/yes_43_ver_w1_w.png,f,pattern_response,TRUE,f,pattern_65,1123,TRUE,56,,,,,,,,,,,,,,,,,,,
,,,,,html-keyboard-response,174,261183,0.0-2.0-7.0-0.37,6340d2fa46f2d707e146b63b,F1,batch6,,null,<p class=block-text>Trial 77 out of 78</p>,null,pattern_show_trial_num,,,,,,,,,,,,,,,,,,,,,,,,,
,,,,,image-keyboard-response,175,261935,0.0-2.0-7.0-1.37,6340d2fa46f2d707e146b63b,F1,batch6,,749.5,stim/yes_14_hor_b1_w.png,f,pattern_response,TRUE,f,pattern_43,749.5,TRUE,57,,,,,,,,,,,,,,,,,,,
,,,,,html-keyboard-response,176,263260,0.0-2.0-7.0-0.38,6340d2fa46f2d707e146b63b,F1,batch6,,null,<p class=block-text>Trial 78 out of 78</p>,null,pattern_show_trial_num,,,,,,,,,,,,,,,,,,,,,,,,,
,,,,,image-keyboard-response,177,264426,0.0-2.0-7.0-1.38,6340d2fa46f2d707e146b63b,F1,batch6,,1156,stim/yes_37_dia_w1.png,f,pattern_response,TRUE,f,pattern_59,1156,TRUE,57,,,,,,,,,,,,,,,,,,,
,,,,,html-button-response,178,269249,0.0-2.0-8.0,6340d2fa46f2d707e146b63b,F1,batch6,,4312.300000011920,"<p class = block-text>This concludes the 4-in-a-row detection game.Thank you for your responses!<br>
            You responded correctly on 73% of the trials.<br>
            When you are ready, press ""Continue"" button to continue </p>",0,,,,,,,,,,,,,,,,,,,,,,,,,,
TRUE,,,,,fullscreen,179,273902,0.0-3.0-0.0,6340d2fa46f2d707e146b63b,F1,batch6,,,,,spm_fullscreen,,,,,,,,,,,,,,,,,,,,,,,,,
,,,,,html-button-response,180,290456,0.0-3.0-1.0,6340d2fa46f2d707e146b63b,F1,batch6,,16551.59999999400,"<p class = block-text><b>Instructions</b> <br>This is a widely used intelligence test in research. <br>In this test, a figure with a missing piece will be presented.<br>Below the figure are alternative pieces to complete the figure, only one of which is correct.<br> Different figures might involve different principles for obtaining the missing piece<br>Your job is to select the most logical piece to complete the figure.</p>",0,,,,,,,,,,,,,,,,,,,,,,,,,,
,,,,,html-keyboard-response,181,291268,0.0-3.0-2.0-0.0,6340d2fa46f2d707e146b63b,F1,batch6,,null,<p class=block-text>Trial 1 out of 60</p>,null,spm_show_trial_num,,,,,,,,,,,,,,,,,,,,,,,,,
,,,,,image-button-response,182,295478,0.0-3.0-2.0-1.0,6340d2fa46f2d707e146b63b,F1,batch6,,4205.4000000059600,img/question_1_1.jpeg,3,spm_respsonse,1,4,mat_01,,,,,,1,4205.4000000059600,,,,,,,,,,,,,,,
,,,,,html-keyboard-response,183,296542,0.0-3.0-2.0-0.1,6340d2fa46f2d707e146b63b,F1,batch6,,null,<p class=block-text>Trial 2 out of 60</p>,null,spm_show_trial_num,,,,,,,,,,,,,,,,,,,,,,,,,
,,,,,image-button-response,184,299656,0.0-3.0-2.0-1.1,6340d2fa46f2d707e146b63b,F1,batch6,,3114.4000000059600,img/question_1_2.jpeg,4,spm_respsonse,1,5,mat_02,,,,,,1,3114.4000000059600,,,,,,,,,,,,,,,
,,,,,html-keyboard-response,185,300720,0.0-3.0-2.0-0.2,6340d2fa46f2d707e146b63b,F1,batch6,,null,<p class=block-text>Trial 3 out of 60</p>,null,spm_show_trial_num,,,,,,,,,,,,,,,,,,,,,,,,,
,,,,,image-button-response,186,304500,0.0-3.0-2.0-1.2,6340d2fa46f2d707e146b63b,F1,batch6,,3775.9000000059600,img/question_1_3.jpeg,0,spm_respsonse,1,1,mat_03,,,,,,1,3775.9000000059600,,,,,,,,,,,,,,,
,,,,,html-keyboard-response,187,305566,0.0-3.0-2.0-0.3,6340d2fa46f2d707e146b63b,F1,batch6,,null,<p class=block-text>Trial 4 out of 60</p>,null,spm_show_trial_num,,,,,,,,,,,,,,,,,,,,,,,,,
,,,,,image-button-response,188,309809,0.0-3.0-2.0-1.3,6340d2fa46f2d707e146b63b,F1,batch6,,4238.5,img/question_1_4.jpeg,1,spm_respsonse,1,2,mat_04,,,,,,1,4238.5,,,,,,,,,,,,,,,
,,,,,html-keyboard-response,189,310891,0.0-3.0-2.0-0.4,6340d2fa46f2d707e146b63b,F1,batch6,,null,<p class=block-text>Trial 5 out of 60</p>,null,spm_show_trial_num,,,,,,,,,,,,,,,,,,,,,,,,,
,,,,,image-button-response,190,314713,0.0-3.0-2.0-1.4,6340d2fa46f2d707e146b63b,F1,batch6,,3817.699999988080,img/question_1_5.jpeg,5,spm_respsonse,1,6,mat_05,,,,,,1,3817.699999988080,,,,,,,,,,,,,,,
,,,,,html-keyboard-response,191,315777,0.0-3.0-2.0-0.5,6340d2fa46f2d707e146b63b,F1,batch6,,null,<p class=block-text>Trial 6 out of 60</p>,null,spm_show_trial_num,,,,,,,,,,,,,,,,,,,,,,,,,
,,,,,image-button-response,192,319684,0.0-3.0-2.0-1.5,6340d2fa46f2d707e146b63b,F1,batch6,,3903.9000000059600,img/question_1_6.jpeg,2,spm_respsonse,1,3,mat_06,,,,,,1,3903.9000000059600,,,,,,,,,,,,,,,
,,,,,html-keyboard-response,193,320752,0.0-3.0-2.0-0.6,6340d2fa46f2d707e146b63b,F1,batch6,,null,<p class=block-text>Trial 7 out of 60</p>,null,spm_show_trial_num,,,,,,,,,,,,,,,,,,,,,,,,,
,,,,,image-button-response,194,324922,0.0-3.0-2.0-1.6,6340d2fa46f2d707e146b63b,F1,batch6,,4166.5,img/question_1_7.jpeg,5,spm_respsonse,1,6,mat_07,,,,,,1,4166.5,,,,,,,,,,,,,,,
,,,,,html-keyboard-response,195,325987,0.0-3.0-2.0-0.7,6340d2fa46f2d707e146b63b,F1,batch6,,null,<p class=block-text>Trial 8 out of 60</p>,null,spm_show_trial_num,,,,,,,,,,,,,,,,,,,,,,,,,
,,,,,image-button-response,196,332345,0.0-3.0-2.0-1.7,6340d2fa46f2d707e146b63b,F1,batch6,,6353.799999982120,img/question_1_8.jpeg,1,spm_respsonse,1,2,mat_08,,,,,,1,6353.799999982120,,,,,,,,,,,,,,,
,,,,,html-keyboard-response,197,333416,0.0-3.0-2.0-0.8,6340d2fa46f2d707e146b63b,F1,batch6,,null,<p class=block-text>Trial 9 out of 60</p>,null,spm_show_trial_num,,,,,,,,,,,,,,,,,,,,,,,,,
,,,,,image-button-response,198,338563,0.0-3.0-2.0-1.8,6340d2fa46f2d707e146b63b,F1,batch6,,5143.299999982120,img/question_1_9.jpeg,0,spm_respsonse,1,1,mat_09,,,,,,1,5143.299999982120,,,,,,,,,,,,,,,
,,,,,html-keyboard-response,199,339621,0.0-3.0-2.0-0.9,6340d2fa46f2d707e146b63b,F1,batch6,,null,<p class=block-text>Trial 10 out of 60</p>,null,spm_show_trial_num,,,,,,,,,,,,,,,,,,,,,,,,,
,,,,,image-button-response,200,347010,0.0-3.0-2.0-1.9,6340d2fa46f2d707e146b63b,F1,batch6,,7385.799999982120,img/question_1_10.jpeg,2,spm_respsonse,1,3,mat_10,,,,,,1,7385.799999982120,,,,,,,,,,,,,,,
,,,,,html-keyboard-response,201,348075,0.0-3.0-2.0-0.10,6340d2fa46f2d707e146b63b,F1,batch6,,null,<p class=block-text>Trial 11 out of 60</p>,null,spm_show_trial_num,,,,,,,,,,,,,,,,,,,,,,,,,
,,,,,image-button-response,202,376215,0.0-3.0-2.0-1.10,6340d2fa46f2d707e146b63b,F1,batch6,,28130.59999999400,img/question_1_11.jpeg,3,spm_respsonse,1,4,mat_11,,,,,,1,28130.59999999400,,,,,,,,,,,,,,,
,,,,,html-keyboard-response,203,377283,0.0-3.0-2.0-0.11,6340d2fa46f2d707e146b63b,F1,batch6,,null,<p class=block-text>Trial 12 out of 60</p>,null,spm_show_trial_num,,,,,,,,,,,,,,,,,,,,,,,,,
,,,,,image-button-response,204,396171,0.0-3.0-2.0-1.11,6340d2fa46f2d707e146b63b,F1,batch6,,18883.80000001190,img/question_1_12.jpeg,4,spm_respsonse,1,5,mat_12,,,,,,1,18883.80000001190,,,,,,,,,,,,,,,
,,,,,html-keyboard-response,205,397241,0.0-3.0-2.0-0.12,6340d2fa46f2d707e146b63b,F1,batch6,,null,<p class=block-text>Trial 13 out of 60</p>,null,spm_show_trial_num,,,,,,,,,,,,,,,,,,,,,,,,,
,,,,,image-button-response,206,400697,0.0-3.0-2.0-1.12,6340d2fa46f2d707e146b63b,F1,batch6,,3453.0999999940400,img/question_2_1.jpeg,1,spm_respsonse,1,2,mat_13,,,,,,1,3453.0999999940400,,,,,,,,,,,,,,,
,,,,,html-keyboard-response,207,401765,0.0-3.0-2.0-0.13,6340d2fa46f2d707e146b63b,F1,batch6,,null,<p class=block-text>Trial 14 out of 60</p>,null,spm_show_trial_num,,,,,,,,,,,,,,,,,,,,,,,,,
,,,,,image-button-response,208,410287,0.0-3.0-2.0-1.13,6340d2fa46f2d707e146b63b,F1,batch6,,8517.90000000596,img/question_2_2.jpeg,5,spm_respsonse,1,6,mat_14,,,,,,1,8517.90000000596,,,,,,,,,,,,,,,
,,,,,html-keyboard-response,209,411349,0.0-3.0-2.0-0.14,6340d2fa46f2d707e146b63b,F1,batch6,,null,<p class=block-text>Trial 15 out of 60</p>,null,spm_show_trial_num,,,,,,,,,,,,,,,,,,,,,,,,,
,,,,,image-button-response,210,414369,0.0-3.0-2.0-1.14,6340d2fa46f2d707e146b63b,F1,batch6,,3017.2999999821200,img/question_2_3.jpeg,0,spm_respsonse,1,1,mat_15,,,,,,1,3017.2999999821200,,,,,,,,,,,,,,,
,,,,,html-keyboard-response,211,415437,0.0-3.0-2.0-0.15,6340d2fa46f2d707e146b63b,F1,batch6,,null,<p class=block-text>Trial 16 out of 60</p>,null,spm_show_trial_num,,,,,,,,,,,,,,,,,,,,,,,,,
,,,,,image-button-response,212,419270,0.0-3.0-2.0-1.15,6340d2fa46f2d707e146b63b,F1,batch6,,3831.2999999821200,img/question_2_4.jpeg,1,spm_respsonse,1,2,mat_16,,,,,,1,3831.2999999821200,,,,,,,,,,,,,,,
,,,,,html-keyboard-response,213,420354,0.0-3.0-2.0-0.16,6340d2fa46f2d707e146b63b,F1,batch6,,null,<p class=block-text>Trial 17 out of 60</p>,null,spm_show_trial_num,,,,,,,,,,,,,,,,,,,,,,,,,
,,,,,image-button-response,214,424396,0.0-3.0-2.0-1.16,6340d2fa46f2d707e146b63b,F1,batch6,,4038.199999988080,img/question_2_5.jpeg,0,spm_respsonse,1,1,mat_17,,,,,,1,4038.199999988080,,,,,,,,,,,,,,,
,,,,,html-keyboard-response,215,425461,0.0-3.0-2.0-0.17,6340d2fa46f2d707e146b63b,F1,batch6,,null,<p class=block-text>Trial 18 out of 60</p>,null,spm_show_trial_num,,,,,,,,,,,,,,,,,,,,,,,,,
,,,,,image-button-response,216,429502,0.0-3.0-2.0-1.17,6340d2fa46f2d707e146b63b,F1,batch6,,4036.800000011920,img/question_2_6.jpeg,2,spm_respsonse,1,3,mat_18,,,,,,1,4036.800000011920,,,,,,,,,,,,,,,
,,,,,html-keyboard-response,217,430580,0.0-3.0-2.0-0.18,6340d2fa46f2d707e146b63b,F1,batch6,,null,<p class=block-text>Trial 19 out of 60</p>,null,spm_show_trial_num,,,,,,,,,,,,,,,,,,,,,,,,,
,,,,,image-button-response,218,435301,0.0-3.0-2.0-1.18,6340d2fa46f2d707e146b63b,F1,batch6,,4716.600000023840,img/question_2_7.jpeg,4,spm_respsonse,1,5,mat_19,,,,,,1,4716.600000023840,,,,,,,,,,,,,,,
,,,,,html-keyboard-response,219,436375,0.0-3.0-2.0-0.19,6340d2fa46f2d707e146b63b,F1,batch6,,null,<p class=block-text>Trial 20 out of 60</p>,null,spm_show_trial_num,,,,,,,,,,,,,,,,,,,,,,,,,
,,,,,image-button-response,220,442045,0.0-3.0-2.0-1.19,6340d2fa46f2d707e146b63b,F1,batch6,,5666.4000000059600,img/question_2_8.jpeg,5,spm_respsonse,1,6,mat_20,,,,,,1,5666.4000000059600,,,,,,,,,,,,,,,
,,,,,html-keyboard-response,221,443121,0.0-3.0-2.0-0.20,6340d2fa46f2d707e146b63b,F1,batch6,,null,<p class=block-text>Trial 21 out of 60</p>,null,spm_show_trial_num,,,,,,,,,,,,,,,,,,,,,,,,,
,,,,,image-button-response,222,447193,0.0-3.0-2.0-1.20,6340d2fa46f2d707e146b63b,F1,batch6,,4067.2999999821200,img/question_2_9.jpeg,3,spm_respsonse,1,4,mat_21,,,,,,1,4067.2999999821200,,,,,,,,,,,,,,,
,,,,,html-keyboard-response,223,448248,0.0-3.0-2.0-0.21,6340d2fa46f2d707e146b63b,F1,batch6,,null,<p class=block-text>Trial 22 out of 60</p>,null,spm_show_trial_num,,,,,,,,,,,,,,,,,,,,,,,,,
,,,,,image-button-response,224,452763,0.0-3.0-2.0-1.21,6340d2fa46f2d707e146b63b,F1,batch6,,4511.5,img/question_2_10.jpeg,2,spm_respsonse,1,3,mat_22,,,,,,1,4511.5,,,,,,,,,,,,,,,
,,,,,html-keyboard-response,225,453836,0.0-3.0-2.0-0.22,6340d2fa46f2d707e146b63b,F1,batch6,,null,<p class=block-text>Trial 23 out of 60</p>,null,spm_show_trial_num,,,,,,,,,,,,,,,,,,,,,,,,,
,,,,,image-button-response,226,458407,0.0-3.0-2.0-1.22,6340d2fa46f2d707e146b63b,F1,batch6,,4567.5999999940400,img/question_2_11.jpeg,3,spm_respsonse,1,4,mat_23,,,,,,1,4567.5999999940400,,,,,,,,,,,,,,,
,,,,,html-keyboard-response,227,459469,0.0-3.0-2.0-0.23,6340d2fa46f2d707e146b63b,F1,batch6,,null,<p class=block-text>Trial 24 out of 60</p>,null,spm_show_trial_num,,,,,,,,,,,,,,,,,,,,,,,,,
,,,,,image-button-response,228,468980,0.0-3.0-2.0-1.23,6340d2fa46f2d707e146b63b,F1,batch6,,9507.59999999404,img/question_2_12.jpeg,4,spm_respsonse,1,5,mat_24,,,,,,1,9507.59999999404,,,,,,,,,,,,,,,
,,,,,html-button-response,229,471750,0.0-3.0-3.0,6340d2fa46f2d707e146b63b,F1,batch6,,2505.899999976160,<p class = block-text>Attention check: Please choose 1<br></p>,0,attention_check,TRUE,,,,,,,,,,,,,,,,,,,,,,,,
,,,,,html-keyboard-response,230,472553,0.0-3.0-4.0-0.0,6340d2fa46f2d707e146b63b,F1,batch6,,null,<p class=block-text>Trial 25 out of 60</p>,null,spm_show_trial_num,,,,,,,,,,,,,,,,,,,,,,,,,
,,,,,image-button-response,231,479934,0.0-3.0-4.0-1.0,6340d2fa46f2d707e146b63b,F1,batch6,,7378.299999982120,img/question_3_1.jpeg,7,spm_respsonse,1,8,mat_25,,,,,,1,7378.299999982120,,,,,,,,,,,,,,,
,,,,,html-keyboard-response,232,481004,0.0-3.0-4.0-0.1,6340d2fa46f2d707e146b63b,F1,batch6,,null,<p class=block-text>Trial 26 out of 60</p>,null,spm_show_trial_num,,,,,,,,,,,,,,,,,,,,,,,,,
,,,,,image-button-response,233,488922,0.0-3.0-4.0-1.1,6340d2fa46f2d707e146b63b,F1,batch6,,7913.199999988080,img/question_3_2.jpeg,1,spm_respsonse,1,2,mat_26,,,,,,1,7913.199999988080,,,,,,,,,,,,,,,
,,,,,html-keyboard-response,234,489998,0.0-3.0-4.0-0.2,6340d2fa46f2d707e146b63b,F1,batch6,,null,<p class=block-text>Trial 27 out of 60</p>,null,spm_show_trial_num,,,,,,,,,,,,,,,,,,,,,,,,,
,,,,,image-button-response,235,496881,0.0-3.0-4.0-1.2,6340d2fa46f2d707e146b63b,F1,batch6,,6878.0999999940400,img/question_3_3.jpeg,2,spm_respsonse,1,3,mat_27,,,,,,1,6878.0999999940400,,,,,,,,,,,,,,,
,,,,,html-keyboard-response,236,497955,0.0-3.0-4.0-0.3,6340d2fa46f2d707e146b63b,F1,batch6,,null,<p class=block-text>Trial 28 out of 60</p>,null,spm_show_trial_num,,,,,,,,,,,,,,,,,,,,,,,,,
,,,,,image-button-response,237,509810,0.0-3.0-4.0-1.3,6340d2fa46f2d707e146b63b,F1,batch6,,11850.5,img/question_3_4.jpeg,7,spm_respsonse,1,8,mat_28,,,,,,1,11850.5,,,,,,,,,,,,,,,
,,,,,html-keyboard-response,238,510872,0.0-3.0-4.0-0.4,6340d2fa46f2d707e146b63b,F1,batch6,,null,<p class=block-text>Trial 29 out of 60</p>,null,spm_show_trial_num,,,,,,,,,,,,,,,,,,,,,,,,,
,,,,,image-button-response,239,521601,0.0-3.0-4.0-1.4,6340d2fa46f2d707e146b63b,F1,batch6,,10725.200000017900,img/question_3_5.jpeg,6,spm_respsonse,1,7,mat_29,,,,,,1,10725.200000017900,,,,,,,,,,,,,,,
,,,,,html-keyboard-response,240,522675,0.0-3.0-4.0-0.5,6340d2fa46f2d707e146b63b,F1,batch6,,null,<p class=block-text>Trial 30 out of 60</p>,null,spm_show_trial_num,,,,,,,,,,,,,,,,,,,,,,,,,
,,,,,image-button-response,241,530162,0.0-3.0-4.0-1.5,6340d2fa46f2d707e146b63b,F1,batch6,,7482.9000000059600,img/question_3_6.jpeg,3,spm_respsonse,1,4,mat_30,,,,,,1,7482.9000000059600,,,,,,,,,,,,,,,
,,,,,html-keyboard-response,242,531233,0.0-3.0-4.0-0.6,6340d2fa46f2d707e146b63b,F1,batch6,,null,<p class=block-text>Trial 31 out of 60</p>,null,spm_show_trial_num,,,,,,,,,,,,,,,,,,,,,,,,,
,,,,,image-button-response,243,538571,0.0-3.0-4.0-1.6,6340d2fa46f2d707e146b63b,F1,batch6,,7331.699999988080,img/question_3_7.jpeg,4,spm_respsonse,1,5,mat_31,,,,,,1,7331.699999988080,,,,,,,,,,,,,,,
,,,,,html-keyboard-response,244,539629,0.0-3.0-4.0-0.7,6340d2fa46f2d707e146b63b,F1,batch6,,null,<p class=block-text>Trial 32 out of 60</p>,null,spm_show_trial_num,,,,,,,,,,,,,,,,,,,,,,,,,
,,,,,image-button-response,245,555233,0.0-3.0-4.0-1.7,6340d2fa46f2d707e146b63b,F1,batch6,,15600.200000017900,img/question_3_8.jpeg,0,spm_respsonse,1,1,mat_32,,,,,,1,15600.200000017900,,,,,,,,,,,,,,,
,,,,,html-keyboard-response,246,556310,0.0-3.0-4.0-0.8,6340d2fa46f2d707e146b63b,F1,batch6,,null,<p class=block-text>Trial 33 out of 60</p>,null,spm_show_trial_num,,,,,,,,,,,,,,,,,,,,,,,,,
,,,,,image-button-response,247,565382,0.0-3.0-4.0-1.8,6340d2fa46f2d707e146b63b,F1,batch6,,9067.699999988080,img/question_3_9.jpeg,6,spm_respsonse,1,7,mat_33,,,,,,1,9067.699999988080,,,,,,,,,,,,,,,
,,,,,html-keyboard-response,248,566450,0.0-3.0-4.0-0.9,6340d2fa46f2d707e146b63b,F1,batch6,,null,<p class=block-text>Trial 34 out of 60</p>,null,spm_show_trial_num,,,,,,,,,,,,,,,,,,,,,,,,,
,,,,,image-button-response,249,592885,0.0-3.0-4.0-1.9,6340d2fa46f2d707e146b63b,F1,batch6,,26430.80000001190,img/question_3_10.jpeg,7,spm_respsonse,0,6,mat_34,,,,,,0,26430.80000001190,,,,,,,,,,,,,,,
,,,,,html-keyboard-response,250,593955,0.0-3.0-4.0-0.10,6340d2fa46f2d707e146b63b,F1,batch6,,null,<p class=block-text>Trial 35 out of 60</p>,null,spm_show_trial_num,,,,,,,,,,,,,,,,,,,,,,,,,
,,,,,image-button-response,251,613357,0.0-3.0-4.0-1.10,6340d2fa46f2d707e146b63b,F1,batch6,,19402.90000000600,img/question_3_11.jpeg,4,spm_respsonse,0,1,mat_35,,,,,,0,19402.90000000600,,,,,,,,,,,,,,,
,,,,,html-keyboard-response,252,614427,0.0-3.0-4.0-0.11,6340d2fa46f2d707e146b63b,F1,batch6,,null,<p class=block-text>Trial 36 out of 60</p>,null,spm_show_trial_num,,,,,,,,,,,,,,,,,,,,,,,,,
,,,,,image-button-response,253,645507,0.0-3.0-4.0-1.11,6340d2fa46f2d707e146b63b,F1,batch6,,31076.09999999400,img/question_3_12.jpeg,4,spm_respsonse,0,2,mat_36,,,,,,0,31076.09999999400,,,,,,,,,,,,,,,
,,,,,html-keyboard-response,254,646575,0.0-3.0-4.0-0.12,6340d2fa46f2d707e146b63b,F1,batch6,,null,<p class=block-text>Trial 37 out of 60</p>,null,spm_show_trial_num,,,,,,,,,,,,,,,,,,,,,,,,,
,,,,,image-button-response,255,649862,0.0-3.0-4.0-1.12,6340d2fa46f2d707e146b63b,F1,batch6,,3282.2000000178800,img/question_4_1.jpeg,2,spm_respsonse,1,3,mat_37,,,,,,1,3282.2000000178800,,,,,,,,,,,,,,,
,,,,,html-keyboard-response,256,650930,0.0-3.0-4.0-0.13,6340d2fa46f2d707e146b63b,F1,batch6,,null,<p class=block-text>Trial 38 out of 60</p>,null,spm_show_trial_num,,,,,,,,,,,,,,,,,,,,,,,,,
,,,,,image-button-response,257,654897,0.0-3.0-4.0-1.13,6340d2fa46f2d707e146b63b,F1,batch6,,3963.800000011920,img/question_4_2.jpeg,3,spm_respsonse,1,4,mat_38,,,,,,1,3963.800000011920,,,,,,,,,,,,,,,
,,,,,html-keyboard-response,258,655968,0.0-3.0-4.0-0.14,6340d2fa46f2d707e146b63b,F1,batch6,,null,<p class=block-text>Trial 39 out of 60</p>,null,spm_show_trial_num,,,,,,,,,,,,,,,,,,,,,,,,,
,,,,,image-button-response,259,664474,0.0-3.0-4.0-1.14,6340d2fa46f2d707e146b63b,F1,batch6,,8497.700000017880,img/question_4_3.jpeg,2,spm_respsonse,1,3,mat_39,,,,,,1,8497.700000017880,,,,,,,,,,,,,,,
,,,,,html-keyboard-response,260,665537,0.0-3.0-4.0-0.15,6340d2fa46f2d707e146b63b,F1,batch6,,null,<p class=block-text>Trial 40 out of 60</p>,null,spm_show_trial_num,,,,,,,,,,,,,,,,,,,,,,,,,
,,,,,image-button-response,261,673086,0.0-3.0-4.0-1.15,6340d2fa46f2d707e146b63b,F1,batch6,,7544.9000000059600,img/question_4_4.jpeg,6,spm_respsonse,1,7,mat_40,,,,,,1,7544.9000000059600,,,,,,,,,,,,,,,
,,,,,html-keyboard-response,262,674151,0.0-3.0-4.0-0.16,6340d2fa46f2d707e146b63b,F1,batch6,,null,<p class=block-text>Trial 41 out of 60</p>,null,spm_show_trial_num,,,,,,,,,,,,,,,,,,,,,,,,,
,,,,,image-button-response,263,680639,0.0-3.0-4.0-1.16,6340d2fa46f2d707e146b63b,F1,batch6,,6483.699999988080,img/question_4_5.jpeg,7,spm_respsonse,1,8,mat_41,,,,,,1,6483.699999988080,,,,,,,,,,,,,,,
,,,,,html-keyboard-response,264,681703,0.0-3.0-4.0-0.17,6340d2fa46f2d707e146b63b,F1,batch6,,null,<p class=block-text>Trial 42 out of 60</p>,null,spm_show_trial_num,,,,,,,,,,,,,,,,,,,,,,,,,
,,,,,image-button-response,265,689391,0.0-3.0-4.0-1.17,6340d2fa46f2d707e146b63b,F1,batch6,,7684.9000000059600,img/question_4_6.jpeg,5,spm_respsonse,1,6,mat_42,,,,,,1,7684.9000000059600,,,,,,,,,,,,,,,
,,,,,html-keyboard-response,266,690459,0.0-3.0-4.0-0.18,6340d2fa46f2d707e146b63b,F1,batch6,,null,<p class=block-text>Trial 43 out of 60</p>,null,spm_show_trial_num,,,,,,,,,,,,,,,,,,,,,,,,,
,,,,,image-button-response,267,701487,0.0-3.0-4.0-1.18,6340d2fa46f2d707e146b63b,F1,batch6,,11024.300000011900,img/question_4_7.jpeg,4,spm_respsonse,1,5,mat_43,,,,,,1,11024.300000011900,,,,,,,,,,,,,,,
,,,,,html-keyboard-response,268,702551,0.0-3.0-4.0-0.19,6340d2fa46f2d707e146b63b,F1,batch6,,null,<p class=block-text>Trial 44 out of 60</p>,null,spm_show_trial_num,,,,,,,,,,,,,,,,,,,,,,,,,
,,,,,image-button-response,269,709700,0.0-3.0-4.0-1.19,6340d2fa46f2d707e146b63b,F1,batch6,,7145.300000011920,img/question_4_8.jpeg,3,spm_respsonse,1,4,mat_44,,,,,,1,7145.300000011920,,,,,,,,,,,,,,,
,,,,,html-keyboard-response,270,710757,0.0-3.0-4.0-0.20,6340d2fa46f2d707e146b63b,F1,batch6,,null,<p class=block-text>Trial 45 out of 60</p>,null,spm_show_trial_num,,,,,,,,,,,,,,,,,,,,,,,,,
,,,,,image-button-response,271,723220,0.0-3.0-4.0-1.20,6340d2fa46f2d707e146b63b,F1,batch6,,12461.899999976200,img/question_4_9.jpeg,0,spm_respsonse,1,1,mat_45,,,,,,1,12461.899999976200,,,,,,,,,,,,,,,
,,,,,html-keyboard-response,272,724283,0.0-3.0-4.0-0.21,6340d2fa46f2d707e146b63b,F1,batch6,,null,<p class=block-text>Trial 46 out of 60</p>,null,spm_show_trial_num,,,,,,,,,,,,,,,,,,,,,,,,,
,,,,,image-button-response,273,738497,0.0-3.0-4.0-1.21,6340d2fa46f2d707e146b63b,F1,batch6,,14210,img/question_4_10.jpeg,1,spm_respsonse,1,2,mat_46,,,,,,1,14210,,,,,,,,,,,,,,,
,,,,,html-keyboard-response,274,739555,0.0-3.0-4.0-0.22,6340d2fa46f2d707e146b63b,F1,batch6,,null,<p class=block-text>Trial 47 out of 60</p>,null,spm_show_trial_num,,,,,,,,,,,,,,,,,,,,,,,,,
,,,,,image-button-response,275,769882,0.0-3.0-4.0-1.22,6340d2fa46f2d707e146b63b,F1,batch6,,30323.19999998810,img/question_4_11.jpeg,6,spm_respsonse,0,5,mat_47,,,,,,0,30323.19999998810,,,,,,,,,,,,,,,
,,,,,html-keyboard-response,276,770939,0.0-3.0-4.0-0.23,6340d2fa46f2d707e146b63b,F1,batch6,,null,<p class=block-text>Trial 48 out of 60</p>,null,spm_show_trial_num,,,,,,,,,,,,,,,,,,,,,,,,,
,,,,,image-button-response,277,795413,0.0-3.0-4.0-1.23,6340d2fa46f2d707e146b63b,F1,batch6,,24469.59999999400,img/question_4_12.jpeg,6,spm_respsonse,0,6,mat_48,,,,,,0,24469.59999999400,,,,,,,,,,,,,,,
,,,,,html-keyboard-response,278,796474,0.0-3.0-4.0-0.24,6340d2fa46f2d707e146b63b,F1,batch6,,null,<p class=block-text>Trial 49 out of 60</p>,null,spm_show_trial_num,,,,,,,,,,,,,,,,,,,,,,,,,
,,,,,image-button-response,279,803469,0.0-3.0-4.0-1.24,6340d2fa46f2d707e146b63b,F1,batch6,,6991.700000017880,img/question_5_1.jpeg,6,spm_respsonse,1,7,mat_49,,,,,,1,6991.700000017880,,,,,,,,,,,,,,,
,,,,,html-keyboard-response,280,804527,0.0-3.0-4.0-0.25,6340d2fa46f2d707e146b63b,F1,batch6,,null,<p class=block-text>Trial 50 out of 60</p>,null,spm_show_trial_num,,,,,,,,,,,,,,,,,,,,,,,,,
,,,,,image-button-response,281,816010,0.0-3.0-4.0-1.25,6340d2fa46f2d707e146b63b,F1,batch6,,11478.799999982100,img/question_5_2.jpeg,5,spm_respsonse,1,6,mat_50,,,,,,1,11478.799999982100,,,,,,,,,,,,,,,
,,,,,html-keyboard-response,282,817074,0.0-3.0-4.0-0.26,6340d2fa46f2d707e146b63b,F1,batch6,,null,<p class=block-text>Trial 51 out of 60</p>,null,spm_show_trial_num,,,,,,,,,,,,,,,,,,,,,,,,,
,,,,,image-button-response,283,836158,0.0-3.0-4.0-1.26,6340d2fa46f2d707e146b63b,F1,batch6,,19080.80000001190,img/question_5_3.jpeg,7,spm_respsonse,1,8,mat_51,,,,,,1,19080.80000001190,,,,,,,,,,,,,,,
,,,,,html-keyboard-response,284,837217,0.0-3.0-4.0-0.27,6340d2fa46f2d707e146b63b,F1,batch6,,null,<p class=block-text>Trial 52 out of 60</p>,null,spm_show_trial_num,,,,,,,,,,,,,,,,,,,,,,,,,
,,,,,image-button-response,285,849759,0.0-3.0-4.0-1.27,6340d2fa46f2d707e146b63b,F1,batch6,,12537,img/question_5_4.jpeg,1,spm_respsonse,1,2,mat_52,,,,,,1,12537,,,,,,,,,,,,,,,
,,,,,html-keyboard-response,286,850820,0.0-3.0-4.0-0.28,6340d2fa46f2d707e146b63b,F1,batch6,,null,<p class=block-text>Trial 53 out of 60</p>,null,spm_show_trial_num,,,,,,,,,,,,,,,,,,,,,,,,,
,,,,,image-button-response,287,860674,0.0-3.0-4.0-1.28,6340d2fa46f2d707e146b63b,F1,batch6,,9850.90000000596,img/question_5_5.jpeg,0,spm_respsonse,1,1,mat_53,,,,,,1,9850.90000000596,,,,,,,,,,,,,,,
,,,,,html-keyboard-response,288,861745,0.0-3.0-4.0-0.29,6340d2fa46f2d707e146b63b,F1,batch6,,null,<p class=block-text>Trial 54 out of 60</p>,null,spm_show_trial_num,,,,,,,,,,,,,,,,,,,,,,,,,
,,,,,image-button-response,289,895368,0.0-3.0-4.0-1.29,6340d2fa46f2d707e146b63b,F1,batch6,,33618.59999999400,img/question_5_6.jpeg,4,spm_respsonse,1,5,mat_54,,,,,,1,33618.59999999400,,,,,,,,,,,,,,,
,,,,,html-keyboard-response,290,896431,0.0-3.0-4.0-0.30,6340d2fa46f2d707e146b63b,F1,batch6,,null,<p class=block-text>Trial 55 out of 60</p>,null,spm_show_trial_num,,,,,,,,,,,,,,,,,,,,,,,,,
,,,,,image-button-response,291,926287,0.0-3.0-4.0-1.30,6340d2fa46f2d707e146b63b,F1,batch6,,29851.90000000600,img/question_5_7.jpeg,3,spm_respsonse,0,1,mat_55,,,,,,0,29851.90000000600,,,,,,,,,,,,,,,
,,,,,html-keyboard-response,292,927342,0.0-3.0-4.0-0.31,6340d2fa46f2d707e146b63b,F1,batch6,,null,<p class=block-text>Trial 56 out of 60</p>,null,spm_show_trial_num,,,,,,,,,,,,,,,,,,,,,,,,,
,,,,,image-button-response,293,939988,0.0-3.0-4.0-1.31,6340d2fa46f2d707e146b63b,F1,batch6,,12642.5,img/question_5_8.jpeg,5,spm_respsonse,1,6,mat_56,,,,,,1,12642.5,,,,,,,,,,,,,,,
,,,,,html-keyboard-response,294,941053,0.0-3.0-4.0-0.32,6340d2fa46f2d707e146b63b,F1,batch6,,null,<p class=block-text>Trial 57 out of 60</p>,null,spm_show_trial_num,,,,,,,,,,,,,,,,,,,,,,,,,
,,,,,image-button-response,295,971445,0.0-3.0-4.0-1.32,6340d2fa46f2d707e146b63b,F1,batch6,,30388.600000023800,img/question_5_9.jpeg,2,spm_respsonse,1,3,mat_57,,,,,,1,30388.600000023800,,,,,,,,,,,,,,,
,,,,,html-keyboard-response,296,972514,0.0-3.0-4.0-0.33,6340d2fa46f2d707e146b63b,F1,batch6,,null,<p class=block-text>Trial 58 out of 60</p>,null,spm_show_trial_num,,,,,,,,,,,,,,,,,,,,,,,,,
,,,,,image-button-response,297,993178,0.0-3.0-4.0-1.33,6340d2fa46f2d707e146b63b,F1,batch6,,20660.09999999400,img/question_5_10.jpeg,3,spm_respsonse,0,2,mat_58,,,,,,0,20660.09999999400,,,,,,,,,,,,,,,
,,,,,html-keyboard-response,298,994246,0.0-3.0-4.0-0.34,6340d2fa46f2d707e146b63b,F1,batch6,,null,<p class=block-text>Trial 59 out of 60</p>,null,spm_show_trial_num,,,,,,,,,,,,,,,,,,,,,,,,,
,,,,,image-button-response,299,1010881,0.0-3.0-4.0-1.34,6340d2fa46f2d707e146b63b,F1,batch6,,16630.19999998810,img/question_5_11.jpeg,5,spm_respsonse,0,4,mat_59,,,,,,0,16630.19999998810,,,,,,,,,,,,,,,
,,,,,html-keyboard-response,300,1011939,0.0-3.0-4.0-0.35,6340d2fa46f2d707e146b63b,F1,batch6,,null,<p class=block-text>Trial 60 out of 60</p>,null,spm_show_trial_num,,,,,,,,,,,,,,,,,,,,,,,,,
,,,,,image-button-response,301,1037282,0.0-3.0-4.0-1.35,6340d2fa46f2d707e146b63b,F1,batch6,,25338.40000000600,img/question_5_12.jpeg,4,spm_respsonse,1,5,mat_60,,,,,,1,25338.40000000600,,,,,,,,,,,,,,,
,,,,,html-button-response,302,1039525,0.0-3.0-5.0,6340d2fa46f2d707e146b63b,F1,batch6,,1988.0999999940400,"<p class= block-text>This concludes the Standard Progressive Matrix game. Thank you for your responses!<br> When you are ready, click the button continue</p>",0,spm_goodbye,,,,,,,,,,,,,,,,,,,,,,,,,
TRUE,,,,,fullscreen,303,1077298,0.0-4.0-0.0,6340d2fa46f2d707e146b63b,F1,batch6,,,,,,,,,,,,,,,,,,,,,,,,,,,,,,
,,,,,instructions,304,1137706,0.0-4.0-1.0-0.0-0.0,6340d2fa46f2d707e146b63b,F1,batch6,"[{""page_index"":0,""viewing_time"":15006.100000023842},{""page_index"":1,""viewing_time"":6729.299999982119},{""page_index"":2,""viewing_time"":5809.200000017881},{""page_index"":3,""viewing_time"":10463.59999999404},{""page_index"":4,""viewing_time"":5561.699999988079},{""page_index"":5,""viewing_time"":13364.09999999404},{""page_index"":6,""viewing_time"":3471.800000011921}]",60406.40000000600,,,tol-instructions,,,,,,,,,,,,,,,,,,,,,,,,,
,,,,,html-button-response,305,1138603,0.0-4.0-1.0-1.0-0.0,6340d2fa46f2d707e146b63b,F1,batch6,,895.2000000178810,<p class=block-text> Let's answer a few questions <br>,0,tol_enter_quiz,,,,,,,,,,,,,,,,,,,,,,,,,
,,,,,html-button-response,306,1144542,0.0-4.0-1.0-1.0-1.0,6340d2fa46f2d707e146b63b,F1,batch6,,5937.300000011920,<p class = block-text>True or False: You can only move the ball on top of a peg. <br></p>,0,tol_quiz,TRUE,,,,,,,,,,,,,,,,,,,,,,,,
,,,,,html-button-response,307,1145511,0.0-4.0-1.0-1.0-2.0,6340d2fa46f2d707e146b63b,F1,batch6,,966,<p class = block-text>Correct! You can only move the ball on top of a peg.</p>,0,tol_quiz_feedback,,,,,,,,,,,,,,,,,,,,,,,,,
,,,,,html-button-response,308,1148108,0.0-4.0-1.0-1.0-3.0,6340d2fa46f2d707e146b63b,F1,batch6,,2594.9000000059600,<p class = block-text>True or False: You should try to match your board with the target board with fewest moves possible. <br></p>,0,tol_quiz,TRUE,,,,,,,,,,,,,,,,,,,,,,,,
,,,,,html-button-response,309,1148802,0.0-4.0-1.0-1.0-4.0,6340d2fa46f2d707e146b63b,F1,batch6,,692.5,<p class = block-text>Correct! </p>,0,tol_quiz_feedback,,,,,,,,,,,,,,,,,,,,,,,,,
,,,,,html-button-response,310,1150105,0.0-4.0-2.0,6340d2fa46f2d707e146b63b,F1,batch6,,1300.800000011920,"<p class=block-text> Now that you've understood the game, let's practice a few easier examples before we start!<br> <br>",0,,,,,,,,,,,,,,,,,,,,,,,,,,
,,,,,single-stim-button,311,1152957,0.0-4.0-3.0-0.0,6340d2fa46f2d707e146b63b,F1,batch6,,2848,,,tol_practice,,,,,,,,,,,tol_peg_2,2848,2848,0,"[[1,2,0],[0,0],[0]]",1,"[[1,2,0],[0,0],[3]]",practice,2848,,,,,,
,,,,,single-stim-button,312,1154442,0.0-4.0-3.0-1.0,6340d2fa46f2d707e146b63b,F1,batch6,,1484,,,tol_practice,,,,,,,,,,,tol_peg_3,1484,1484,0,"[[1,2,0],[0,0],[3]]",1,"[[1,2,0],[0,0],[3]]",practice,1484,,,,,,
,,,,,poldrack-single-stim,313,1155458,0.0-4.0-4.0,6340d2fa46f2d707e146b63b,F1,batch6,,-1,,,tol_feedback,TRUE,,,,,,,,,,,1000,1000,500,,,,,,-1,none,TRUE,,0,
,,,,,single-stim-button,314,1159561,0.0-4.0-5.0-0.0,6340d2fa46f2d707e146b63b,F1,batch6,,4101,,,tol_practice,,,,,,,,,,,tol_peg_1,4101,4101,0,"[[1,0,0],[3,0],[0]]",2,"[[0,0,0],[3,1],[2]]",practice,4101,,,,,,
,,,,,single-stim-button,315,1160591,0.0-4.0-5.0-1.0,6340d2fa46f2d707e146b63b,F1,batch6,,1029,,,tol_practice,,,,,,,,,,,tol_peg_3,1029,1029,0,"[[1,0,0],[3,0],[2]]",2,"[[0,0,0],[3,1],[2]]",practice,1029,,,,,,
,,,,,single-stim-button,316,1161431,0.0-4.0-5.1-0.1,6340d2fa46f2d707e146b63b,F1,batch6,,838,,,tol_practice,,,,,,,,,,,tol_peg_1,838,838,0,"[[0,0,0],[3,0],[2]]",3,"[[0,0,0],[3,1],[2]]",practice,838,,,,,,
,,,,,single-stim-button,317,1162489,0.0-4.0-5.1-1.1,6340d2fa46f2d707e146b63b,F1,batch6,,1056,,,tol_practice,,,,,,,,,,,tol_peg_2,1056,1056,0,"[[0,0,0],[3,1],[2]]",3,"[[0,0,0],[3,1],[2]]",practice,1056,,,,,,
,,,,,poldrack-single-stim,318,1163494,0.0-4.0-6.0,6340d2fa46f2d707e146b63b,F1,batch6,,-1,,,tol_feedback,TRUE,,,,,,,,,,,1000,1000,500,,,,,,-1,none,TRUE,,0,
,,,,,single-stim-button,319,1165949,0.0-4.0-7.0-0.0,6340d2fa46f2d707e146b63b,F1,batch6,,2453,,,tol_practice,,,,,,,,,,,tol_peg_2,2453,2453,0,"[[1,2,0],[0,0],[0]]",4,"[[1,0,0],[2,0],[3]]",practice,2453,,,,,,
,,,,,single-stim-button,320,1166714,0.0-4.0-7.0-1.0,6340d2fa46f2d707e146b63b,F1,batch6,,763,,,tol_practice,,,,,,,,,,,tol_peg_3,763,763,0,"[[1,2,0],[0,0],[3]]",4,"[[1,0,0],[2,0],[3]]",practice,763,,,,,,
,,,,,single-stim-button,321,1167606,0.0-4.0-7.1-0.1,6340d2fa46f2d707e146b63b,F1,batch6,,889,,,tol_practice,,,,,,,,,,,tol_peg_1,889,889,0,"[[1,0,0],[0,0],[3]]",5,"[[1,0,0],[2,0],[3]]",practice,889,,,,,,
,,,,,single-stim-button,322,1168590,0.0-4.0-7.1-1.1,6340d2fa46f2d707e146b63b,F1,batch6,,982,,,tol_practice,,,,,,,,,,,tol_peg_2,982,982,0,"[[1,0,0],[2,0],[3]]",5,"[[1,0,0],[2,0],[3]]",practice,982,,,,,,
,,,,,poldrack-single-stim,323,1169594,0.0-4.0-8.0,6340d2fa46f2d707e146b63b,F1,batch6,,-1,,,tol_feedback,TRUE,,,,,,,,,,,1000,1000,500,,,,,,-1,none,TRUE,,0,
,,,,,html-button-response,324,1172111,0.0-4.0-9.0,6340d2fa46f2d707e146b63b,F1,batch6,,2514.7999999821200,<div class = centerbox><p class = center-block-text>Great job! You are done with practice trials<br>You are about to start official trials.<br> <br> Problem <strong>1</strong> out of 25 problems</p></div>,0,tol_instruction,,,,,,,,,,,,,,,,,,,,,,,,,
,,,,,single-stim-button,325,1176666,0.0-4.0-10.0-0.0,6340d2fa46f2d707e146b63b,F1,batch6,,3552,,,tol_tohand,,,,,,,,,,,tol_peg_1,3552,3552,0,"[[1,0,0],[3,0],[0]]",1,"[[1,3,0],[2,0],[0]]",0,0,,,,,,3
,,,,,single-stim-button,326,1177636,0.0-4.0-10.0-1.0,6340d2fa46f2d707e146b63b,F1,batch6,,967,,,tol_toboard,,,,,,,,,,,tol_peg_3,967,967,0,"[[1,0,0],[3,0],[2]]",1,"[[1,3,0],[2,0],[0]]",0,0,,,,,,3
,,,,,single-stim-button,327,1178321,0.0-4.0-10.1-0.1,6340d2fa46f2d707e146b63b,F1,batch6,,683,,,tol_tohand,,,,,,,,,,,tol_peg_2,683,683,0,"[[1,0,0],[0,0],[2]]",2,"[[1,3,0],[2,0],[0]]",0,0,,,,,,3
,,,,,single-stim-button,328,1179224,0.0-4.0-10.1-1.1,6340d2fa46f2d707e146b63b,F1,batch6,,902,,,tol_toboard,,,,,,,,,,,tol_peg_1,902,902,0,"[[1,3,0],[0,0],[2]]",2,"[[1,3,0],[2,0],[0]]",0,0,,,,,,3
,,,,,single-stim-button,329,1179973,0.0-4.0-10.2-0.2,6340d2fa46f2d707e146b63b,F1,batch6,,748,,,tol_tohand,,,,,,,,,,,tol_peg_3,748,748,0,"[[1,3,0],[0,0],[0]]",3,"[[1,3,0],[2,0],[0]]",0,0,,,,,,3
,,,,,single-stim-button,330,1180798,0.0-4.0-10.2-1.2,6340d2fa46f2d707e146b63b,F1,batch6,,823,,,tol_toboard,,,,,,,,,,,tol_peg_2,823,823,0,"[[1,3,0],[2,0],[0]]",3,"[[1,3,0],[2,0],[0]]",0,0,,,,,,3
,,,,,poldrack-single-stim,331,1181808,0.0-4.0-11.0,6340d2fa46f2d707e146b63b,F1,batch6,,-1,,,tol_feedback,TRUE,,,,,,,,,,,1000,1000,500,,,,,,-1,none,TRUE,3552,4983,
,,,,,html-button-response,332,1182931,0.0-4.0-12.0,6340d2fa46f2d707e146b63b,F1,batch6,,1120.7999999821200,<div class = centerbox><p class = center-block-text>problem <strong>2</strong> out of 25 problems</p></div>,0,tol_trial_num,,,,,,,,,,,,,,,,,,,,,,,,,
,,,,,single-stim-button,333,1187074,0.0-4.0-13.0-0.0,6340d2fa46f2d707e146b63b,F1,batch6,,4140,,,tol_tohand,,,,,,,,,,,tol_peg_1,4140,4140,0,"[[1,0,0],[3,0],[0]]",1,"[[2,1,3],[0,0],[0]]",1,0,,,,,,5
,,,,,single-stim-button,334,1191144,0.0-4.0-13.0-1.0,6340d2fa46f2d707e146b63b,F1,batch6,,4068,,,tol_toboard,,,,,,,,,,,tol_peg_3,4068,4068,0,"[[1,0,0],[3,0],[2]]",1,"[[2,1,3],[0,0],[0]]",1,0,,,,,,5
,,,,,single-stim-button,335,1192875,0.0-4.0-13.1-0.1,6340d2fa46f2d707e146b63b,F1,batch6,,1728,,,tol_tohand,,,,,,,,,,,tol_peg_1,1728,1728,0,"[[0,0,0],[3,0],[2]]",2,"[[2,1,3],[0,0],[0]]",1,0,,,,,,5
,,,,,single-stim-button,336,1194000,0.0-4.0-13.1-1.1,6340d2fa46f2d707e146b63b,F1,batch6,,1124,,,tol_toboard,,,,,,,,,,,tol_peg_2,1124,1124,0,"[[0,0,0],[3,1],[2]]",2,"[[2,1,3],[0,0],[0]]",1,0,,,,,,5
,,,,,single-stim-button,337,1194900,0.0-4.0-13.2-0.2,6340d2fa46f2d707e146b63b,F1,batch6,,898,,,tol_tohand,,,,,,,,,,,tol_peg_3,898,898,0,"[[0,0,0],[3,1],[0]]",3,"[[2,1,3],[0,0],[0]]",1,0,,,,,,5
,,,,,single-stim-button,338,1196359,0.0-4.0-13.2-1.2,6340d2fa46f2d707e146b63b,F1,batch6,,1457,,,tol_toboard,,,,,,,,,,,tol_peg_1,1457,1457,0,"[[2,0,0],[3,1],[0]]",3,"[[2,1,3],[0,0],[0]]",1,0,,,,,,5
,,,,,single-stim-button,339,1197253,0.0-4.0-13.3-0.3,6340d2fa46f2d707e146b63b,F1,batch6,,893,,,tol_tohand,,,,,,,,,,,tol_peg_2,893,893,0,"[[2,0,0],[3,0],[0]]",4,"[[2,1,3],[0,0],[0]]",1,0,,,,,,5
,,,,,single-stim-button,340,1197920,0.0-4.0-13.3-1.3,6340d2fa46f2d707e146b63b,F1,batch6,,665,,,tol_toboard,,,,,,,,,,,tol_peg_1,665,665,0,"[[2,1,0],[3,0],[0]]",4,"[[2,1,3],[0,0],[0]]",1,0,,,,,,5
,,,,,single-stim-button,341,1198519,0.0-4.0-13.4-0.4,6340d2fa46f2d707e146b63b,F1,batch6,,597,,,tol_tohand,,,,,,,,,,,tol_peg_2,597,597,0,"[[2,1,0],[0,0],[0]]",5,"[[2,1,3],[0,0],[0]]",1,0,,,,,,5
,,,,,single-stim-button,342,1199206,0.0-4.0-13.4-1.4,6340d2fa46f2d707e146b63b,F1,batch6,,686,,,tol_toboard,,,,,,,,,,,tol_peg_1,686,686,0,"[[2,1,3],[0,0],[0]]",5,"[[2,1,3],[0,0],[0]]",1,0,,,,,,5
,,,,,poldrack-single-stim,343,1200209,0.0-4.0-14.0,6340d2fa46f2d707e146b63b,F1,batch6,,-1,,,tol_feedback,TRUE,,,,,,,,,,,1000,1000,500,,,,,,-1,none,TRUE,4140,8256,
,,,,,html-button-response,344,1201221,0.0-4.0-15.0,6340d2fa46f2d707e146b63b,F1,batch6,,1010.5,<div class = centerbox><p class = center-block-text>problem <strong>3</strong> out of 25 problems</p></div>,0,tol_trial_num,,,,,,,,,,,,,,,,,,,,,,,,,
,,,,,single-stim-button,345,1207213,0.0-4.0-16.0-0.0,6340d2fa46f2d707e146b63b,F1,batch6,,5990,,,tol_tohand,,,,,,,,,,,tol_peg_1,5990,5990,0,"[[2,0,0],[0,0],[1]]",1,"[[1,2,0],[3,0],[0]]",2,0,,,,,,4
,,,,,single-stim-button,346,1208342,0.0-4.0-16.0-1.0,6340d2fa46f2d707e146b63b,F1,batch6,,1127,,,tol_toboard,,,,,,,,,,,tol_peg_2,1127,1127,0,"[[2,0,0],[3,0],[1]]",1,"[[1,2,0],[3,0],[0]]",2,0,,,,,,4
,,,,,single-stim-button,347,1209401,0.0-4.0-16.1-0.1,6340d2fa46f2d707e146b63b,F1,batch6,,1058,,,tol_tohand,,,,,,,,,,,tol_peg_1,1058,1058,0,"[[0,0,0],[3,0],[1]]",2,"[[1,2,0],[3,0],[0]]",2,0,,,,,,4
,,,,,single-stim-button,348,1210093,0.0-4.0-16.1-1.1,6340d2fa46f2d707e146b63b,F1,batch6,,690,,,tol_toboard,,,,,,,,,,,tol_peg_2,690,690,0,"[[0,0,0],[3,2],[1]]",2,"[[1,2,0],[3,0],[0]]",2,0,,,,,,4
,,,,,single-stim-button,349,1210750,0.0-4.0-16.2-0.2,6340d2fa46f2d707e146b63b,F1,batch6,,656,,,tol_tohand,,,,,,,,,,,tol_peg_3,656,656,0,"[[0,0,0],[3,2],[0]]",3,"[[1,2,0],[3,0],[0]]",2,0,,,,,,4
,,,,,single-stim-button,350,1211738,0.0-4.0-16.2-1.2,6340d2fa46f2d707e146b63b,F1,batch6,,987,,,tol_toboard,,,,,,,,,,,tol_peg_1,987,987,0,"[[1,0,0],[3,2],[0]]",3,"[[1,2,0],[3,0],[0]]",2,0,,,,,,4
,,,,,single-stim-button,351,1212270,0.0-4.0-16.3-0.3,6340d2fa46f2d707e146b63b,F1,batch6,,531,,,tol_tohand,,,,,,,,,,,tol_peg_2,531,531,0,"[[1,0,0],[3,0],[0]]",4,"[[1,2,0],[3,0],[0]]",2,0,,,,,,4
,,,,,single-stim-button,352,1212996,0.0-4.0-16.3-1.3,6340d2fa46f2d707e146b63b,F1,batch6,,724,,,tol_toboard,,,,,,,,,,,tol_peg_1,724,724,0,"[[1,2,0],[3,0],[0]]",4,"[[1,2,0],[3,0],[0]]",2,0,,,,,,4
,,,,,poldrack-single-stim,353,1214009,0.0-4.0-17.0,6340d2fa46f2d707e146b63b,F1,batch6,,-1,,,tol_feedback,TRUE,,,,,,,,,,,1000,1000,500,,,,,,-1,none,TRUE,5990,8235,
,,,,,html-button-response,354,1214891,0.0-4.0-18.0,6340d2fa46f2d707e146b63b,F1,batch6,,880.9000000059610,<div class = centerbox><p class = center-block-text>problem <strong>4</strong> out of 25 problems</p></div>,0,tol_trial_num,,,,,,,,,,,,,,,,,,,,,,,,,
,,,,,single-stim-button,355,1221029,0.0-4.0-19.0-0.0,6340d2fa46f2d707e146b63b,F1,batch6,,6136,,,tol_tohand,,,,,,,,,,,tol_peg_2,6136,6136,0,"[[3,0,0],[2,0],[0]]",1,"[[3,0,0],[1,0],[2]]",3,0,,,,,,3
,,,,,single-stim-button,356,1222495,0.0-4.0-19.0-1.0,6340d2fa46f2d707e146b63b,F1,batch6,,1465,,,tol_toboard,,,,,,,,,,,tol_peg_1,1465,1465,0,"[[3,1,0],[2,0],[0]]",1,"[[3,0,0],[1,0],[2]]",3,0,,,,,,3
,,,,,single-stim-button,357,1223168,0.0-4.0-19.1-0.1,6340d2fa46f2d707e146b63b,F1,batch6,,672,,,tol_tohand,,,,,,,,,,,tol_peg_2,672,672,0,"[[3,1,0],[0,0],[0]]",2,"[[3,0,0],[1,0],[2]]",3,0,,,,,,3
,,,,,single-stim-button,358,1223945,0.0-4.0-19.1-1.1,6340d2fa46f2d707e146b63b,F1,batch6,,776,,,tol_toboard,,,,,,,,,,,tol_peg_3,776,776,0,"[[3,1,0],[0,0],[2]]",2,"[[3,0,0],[1,0],[2]]",3,0,,,,,,3
,,,,,single-stim-button,359,1224555,0.0-4.0-19.2-0.2,6340d2fa46f2d707e146b63b,F1,batch6,,607,,,tol_tohand,,,,,,,,,,,tol_peg_1,607,607,0,"[[3,0,0],[0,0],[2]]",3,"[[3,0,0],[1,0],[2]]",3,0,,,,,,3
,,,,,single-stim-button,360,1225195,0.0-4.0-19.2-1.2,6340d2fa46f2d707e146b63b,F1,batch6,,639,,,tol_toboard,,,,,,,,,,,tol_peg_2,639,639,0,"[[3,0,0],[1,0],[2]]",3,"[[3,0,0],[1,0],[2]]",3,0,,,,,,3
,,,,,poldrack-single-stim,361,1226213,0.0-4.0-20.0,6340d2fa46f2d707e146b63b,F1,batch6,,-1,,,tol_feedback,TRUE,,,,,,,,,,,1000,1000,500,,,,,,-1,none,TRUE,6136,7415,
,,,,,html-button-response,362,1227519,0.0-4.0-21.0,6340d2fa46f2d707e146b63b,F1,batch6,,1304.1000000238400,<div class = centerbox><p class = center-block-text>problem <strong>5</strong> out of 25 problems</p></div>,0,tol_trial_num,,,,,,,,,,,,,,,,,,,,,,,,,
,,,,,single-stim-button,363,1262751,0.0-4.0-22.0-0.0,6340d2fa46f2d707e146b63b,F1,batch6,,35230,,,tol_tohand,,,,,,,,,,,tol_peg_1,35230,35230,0,"[[0,0,0],[2,0],[3]]",1,"[[0,0,0],[1,2],[3]]",4,0,,,,,,7
,,,,,single-stim-button,364,1263424,0.0-4.0-22.0-1.0,6340d2fa46f2d707e146b63b,F1,batch6,,671,,,tol_toboard,,,,,,,,,,,tol_peg_2,671,671,0,"[[0,0,0],[2,1],[3]]",1,"[[0,0,0],[1,2],[3]]",4,0,,,,,,7
,,,,,single-stim-button,365,1264074,0.0-4.0-22.1-0.1,6340d2fa46f2d707e146b63b,F1,batch6,,649,,,tol_tohand,,,,,,,,,,,tol_peg_3,649,649,0,"[[0,0,0],[2,1],[0]]",2,"[[0,0,0],[1,2],[3]]",4,0,,,,,,7
,,,,,single-stim-button,366,1265009,0.0-4.0-22.1-1.1,6340d2fa46f2d707e146b63b,F1,batch6,,934,,,tol_toboard,,,,,,,,,,,tol_peg_1,934,934,0,"[[3,0,0],[2,1],[0]]",2,"[[0,0,0],[1,2],[3]]",4,0,,,,,,7
,,,,,single-stim-button,367,1267609,0.0-4.0-22.2-0.2,6340d2fa46f2d707e146b63b,F1,batch6,,2598,,,tol_tohand,,,,,,,,,,,tol_peg_2,2598,2598,0,"[[3,0,0],[2,0],[0]]",3,"[[0,0,0],[1,2],[3]]",4,0,,,,,,7
,,,,,single-stim-button,368,1268927,0.0-4.0-22.2-1.2,6340d2fa46f2d707e146b63b,F1,batch6,,1316,,,tol_toboard,,,,,,,,,,,tol_peg_3,1316,1316,0,"[[3,0,0],[2,0],[1]]",3,"[[0,0,0],[1,2],[3]]",4,0,,,,,,7
,,,,,single-stim-button,369,1269898,0.0-4.0-22.3-0.3,6340d2fa46f2d707e146b63b,F1,batch6,,970,,,tol_tohand,,,,,,,,,,,tol_peg_2,970,970,0,"[[3,0,0],[0,0],[1]]",4,"[[0,0,0],[1,2],[3]]",4,0,,,,,,7
,,,,,single-stim-button,370,1270706,0.0-4.0-22.3-1.3,6340d2fa46f2d707e146b63b,F1,batch6,,806,,,tol_toboard,,,,,,,,,,,tol_peg_1,806,806,0,"[[3,2,0],[0,0],[1]]",4,"[[0,0,0],[1,2],[3]]",4,0,,,,,,7
,,,,,single-stim-button,371,1271349,0.0-4.0-22.4-0.4,6340d2fa46f2d707e146b63b,F1,batch6,,642,,,tol_tohand,,,,,,,,,,,tol_peg_3,642,642,0,"[[3,2,0],[0,0],[0]]",5,"[[0,0,0],[1,2],[3]]",4,0,,,,,,7
,,,,,single-stim-button,372,1272327,0.0-4.0-22.4-1.4,6340d2fa46f2d707e146b63b,F1,batch6,,977,,,tol_toboard,,,,,,,,,,,tol_peg_2,977,977,0,"[[3,2,0],[1,0],[0]]",5,"[[0,0,0],[1,2],[3]]",4,0,,,,,,7
,,,,,single-stim-button,373,1273029,0.0-4.0-22.5-0.5,6340d2fa46f2d707e146b63b,F1,batch6,,700,,,tol_tohand,,,,,,,,,,,tol_peg_1,700,700,0,"[[3,0,0],[1,0],[0]]",6,"[[0,0,0],[1,2],[3]]",4,0,,,,,,7
,,,,,single-stim-button,374,1273839,0.0-4.0-22.5-1.5,6340d2fa46f2d707e146b63b,F1,batch6,,809,,,tol_toboard,,,,,,,,,,,tol_peg_2,809,809,0,"[[3,0,0],[1,2],[0]]",6,"[[0,0,0],[1,2],[3]]",4,0,,,,,,7
,,,,,single-stim-button,375,1274414,0.0-4.0-22.6-0.6,6340d2fa46f2d707e146b63b,F1,batch6,,573,,,tol_tohand,,,,,,,,,,,tol_peg_1,573,573,0,"[[0,0,0],[1,2],[0]]",7,"[[0,0,0],[1,2],[3]]",4,0,,,,,,7
,,,,,single-stim-button,376,1275254,0.0-4.0-22.6-1.6,6340d2fa46f2d707e146b63b,F1,batch6,,839,,,tol_toboard,,,,,,,,,,,tol_peg_3,839,839,0,"[[0,0,0],[1,2],[3]]",7,"[[0,0,0],[1,2],[3]]",4,0,,,,,,7
,,,,,poldrack-single-stim,377,1276260,0.0-4.0-23.0,6340d2fa46f2d707e146b63b,F1,batch6,,-1,,,tol_feedback,TRUE,,,,,,,,,,,1000,1000,500,,,,,,-1,none,TRUE,35230,41362,
,,,,,html-button-response,378,1277115,0.0-4.0-24.0,6340d2fa46f2d707e146b63b,F1,batch6,,853.1999999880790,<div class = centerbox><p class = center-block-text>problem <strong>6</strong> out of 25 problems</p></div>,0,tol_trial_num,,,,,,,,,,,,,,,,,,,,,,,,,
,,,,,single-stim-button,379,1283496,0.0-4.0-25.0-0.0,6340d2fa46f2d707e146b63b,F1,batch6,,6379,,,tol_tohand,,,,,,,,,,,tol_peg_3,6379,6379,0,"[[0,0,0],[1,2],[0]]",1,"[[1,0,0],[2,3],[0]]",5,0,,,,,,6
,,,,,single-stim-button,380,1288347,0.0-4.0-25.0-1.0,6340d2fa46f2d707e146b63b,F1,batch6,,4850,,,tol_toboard,,,,,,,,,,,tol_peg_1,4850,4850,0,"[[3,0,0],[1,2],[0]]",1,"[[1,0,0],[2,3],[0]]",5,0,,,,,,6
,,,,,single-stim-button,381,1289131,0.0-4.0-25.1-0.1,6340d2fa46f2d707e146b63b,F1,batch6,,782,,,tol_tohand,,,,,,,,,,,tol_peg_2,782,782,0,"[[3,0,0],[1,0],[0]]",2,"[[1,0,0],[2,3],[0]]",5,0,,,,,,6
,,,,,single-stim-button,382,1289866,0.0-4.0-25.1-1.1,6340d2fa46f2d707e146b63b,F1,batch6,,733,,,tol_toboard,,,,,,,,,,,tol_peg_3,733,733,0,"[[3,0,0],[1,0],[2]]",2,"[[1,0,0],[2,3],[0]]",5,0,,,,,,6
,,,,,single-stim-button,383,1292900,0.0-4.0-25.2-0.2,6340d2fa46f2d707e146b63b,F1,batch6,,3033,,,tol_tohand,,,,,,,,,,,tol_peg_2,3033,3033,0,"[[3,0,0],[0,0],[2]]",3,"[[1,0,0],[2,3],[0]]",5,0,,,,,,6
,,,,,single-stim-button,384,1293679,0.0-4.0-25.2-1.2,6340d2fa46f2d707e146b63b,F1,batch6,,777,,,tol_toboard,,,,,,,,,,,tol_peg_1,777,777,0,"[[3,1,0],[0,0],[2]]",3,"[[1,0,0],[2,3],[0]]",5,0,,,,,,6
,,,,,single-stim-button,385,1294420,0.0-4.0-25.3-0.3,6340d2fa46f2d707e146b63b,F1,batch6,,739,,,tol_tohand,,,,,,,,,,,tol_peg_3,739,739,0,"[[3,1,0],[0,0],[0]]",4,"[[1,0,0],[2,3],[0]]",5,0,,,,,,6
,,,,,single-stim-button,386,1295030,0.0-4.0-25.3-1.3,6340d2fa46f2d707e146b63b,F1,batch6,,609,,,tol_toboard,,,,,,,,,,,tol_peg_2,609,609,0,"[[3,1,0],[2,0],[0]]",4,"[[1,0,0],[2,3],[0]]",5,0,,,,,,6
,,,,,single-stim-button,387,1295720,0.0-4.0-25.4-0.4,6340d2fa46f2d707e146b63b,F1,batch6,,689,,,tol_tohand,,,,,,,,,,,tol_peg_1,689,689,0,"[[3,0,0],[2,0],[0]]",5,"[[1,0,0],[2,3],[0]]",5,0,,,,,,6
,,,,,single-stim-button,388,1296621,0.0-4.0-25.4-1.4,6340d2fa46f2d707e146b63b,F1,batch6,,899,,,tol_toboard,,,,,,,,,,,tol_peg_3,899,899,0,"[[3,0,0],[2,0],[1]]",5,"[[1,0,0],[2,3],[0]]",5,0,,,,,,6
,,,,,single-stim-button,389,1297445,0.0-4.0-25.5-0.5,6340d2fa46f2d707e146b63b,F1,batch6,,823,,,tol_tohand,,,,,,,,,,,tol_peg_1,823,823,0,"[[0,0,0],[2,0],[1]]",6,"[[1,0,0],[2,3],[0]]",5,0,,,,,,6
,,,,,single-stim-button,390,1298297,0.0-4.0-25.5-1.5,6340d2fa46f2d707e146b63b,F1,batch6,,849,,,tol_toboard,,,,,,,,,,,tol_peg_2,849,849,0,"[[0,0,0],[2,3],[1]]",6,"[[1,0,0],[2,3],[0]]",5,0,,,,,,6
,,,,,single-stim-button,391,1298998,0.0-4.0-25.6-0.6,6340d2fa46f2d707e146b63b,F1,batch6,,700,,,tol_tohand,,,,,,,,,,,tol_peg_3,700,700,0,"[[0,0,0],[2,3],[0]]",7,"[[1,0,0],[2,3],[0]]",5,0,,,,,,6
,,,,,single-stim-button,392,1299947,0.0-4.0-25.6-1.6,6340d2fa46f2d707e146b63b,F1,batch6,,947,,,tol_toboard,,,,,,,,,,,tol_peg_1,947,947,0,"[[1,0,0],[2,3],[0]]",7,"[[1,0,0],[2,3],[0]]",5,0,,,,,,6
,,,,,poldrack-single-stim,393,1300960,0.0-4.0-26.0,6340d2fa46f2d707e146b63b,F1,batch6,,-1,,,tol_feedback,TRUE,,,,,,,,,,,1000,1000,500,,,,,,-1,none,TRUE,6379,13145,
,,,,,html-button-response,394,1301841,0.0-4.0-27.0,6340d2fa46f2d707e146b63b,F1,batch6,,879.2999999821190,<div class = centerbox><p class = center-block-text>problem <strong>7</strong> out of 25 problems</p></div>,0,tol_trial_num,,,,,,,,,,,,,,,,,,,,,,,,,
,,,,,single-stim-button,395,1316550,0.0-4.0-28.0-0.0,6340d2fa46f2d707e146b63b,F1,batch6,,14708,,,tol_tohand,,,,,,,,,,,tol_peg_3,14708,14708,0,"[[2,1,0],[0,0],[0]]",1,"[[1,2,0],[3,0],[0]]",6,0,,,,,,5
,,,,,single-stim-button,396,1319830,0.0-4.0-28.0-1.0,6340d2fa46f2d707e146b63b,F1,batch6,,3277,,,tol_toboard,,,,,,,,,,,tol_peg_2,3277,3277,0,"[[2,1,0],[3,0],[0]]",1,"[[1,2,0],[3,0],[0]]",6,0,,,,,,5
,,,,,single-stim-button,397,1320565,0.0-4.0-28.1-0.1,6340d2fa46f2d707e146b63b,F1,batch6,,734,,,tol_tohand,,,,,,,,,,,tol_peg_1,734,734,0,"[[2,0,0],[3,0],[0]]",2,"[[1,2,0],[3,0],[0]]",6,0,,,,,,5
,,,,,single-stim-button,398,1321280,0.0-4.0-28.1-1.1,6340d2fa46f2d707e146b63b,F1,batch6,,714,,,tol_toboard,,,,,,,,,,,tol_peg_3,714,714,0,"[[2,0,0],[3,0],[1]]",2,"[[1,2,0],[3,0],[0]]",6,0,,,,,,5
,,,,,single-stim-button,399,1321864,0.0-4.0-28.2-0.2,6340d2fa46f2d707e146b63b,F1,batch6,,583,,,tol_tohand,,,,,,,,,,,tol_peg_1,583,583,0,"[[0,0,0],[3,0],[1]]",3,"[[1,2,0],[3,0],[0]]",6,0,,,,,,5
,,,,,single-stim-button,400,1322869,0.0-4.0-28.2-1.2,6340d2fa46f2d707e146b63b,F1,batch6,,1003,,,tol_toboard,,,,,,,,,,,tol_peg_2,1003,1003,0,"[[0,0,0],[3,2],[1]]",3,"[[1,2,0],[3,0],[0]]",6,0,,,,,,5
,,,,,single-stim-button,401,1323502,0.0-4.0-28.3-0.3,6340d2fa46f2d707e146b63b,F1,batch6,,631,,,tol_tohand,,,,,,,,,,,tol_peg_3,631,631,0,"[[0,0,0],[3,2],[0]]",4,"[[1,2,0],[3,0],[0]]",6,0,,,,,,5
,,,,,single-stim-button,402,1324244,0.0-4.0-28.3-1.3,6340d2fa46f2d707e146b63b,F1,batch6,,741,,,tol_toboard,,,,,,,,,,,tol_peg_1,741,741,0,"[[1,0,0],[3,2],[0]]",4,"[[1,2,0],[3,0],[0]]",6,0,,,,,,5
,,,,,single-stim-button,403,1324712,0.0-4.0-28.4-0.4,6340d2fa46f2d707e146b63b,F1,batch6,,466,,,tol_tohand,,,,,,,,,,,tol_peg_2,466,466,0,"[[1,0,0],[3,0],[0]]",5,"[[1,2,0],[3,0],[0]]",6,0,,,,,,5
,,,,,single-stim-button,404,1325294,0.0-4.0-28.4-1.4,6340d2fa46f2d707e146b63b,F1,batch6,,581,,,tol_toboard,,,,,,,,,,,tol_peg_1,581,581,0,"[[1,2,0],[3,0],[0]]",5,"[[1,2,0],[3,0],[0]]",6,0,,,,,,5
,,,,,poldrack-single-stim,405,1326302,0.0-4.0-29.0,6340d2fa46f2d707e146b63b,F1,batch6,,-1,,,tol_feedback,TRUE,,,,,,,,,,,1000,1000,500,,,,,,-1,none,TRUE,14708,17122,
,,,,,html-button-response,406,1327290,0.0-4.0-30.0,6340d2fa46f2d707e146b63b,F1,batch6,,985.9000000059610,<div class = centerbox><p class = center-block-text>problem <strong>8</strong> out of 25 problems</p></div>,0,tol_trial_num,,,,,,,,,,,,,,,,,,,,,,,,,
,,,,,single-stim-button,407,1331901,0.0-4.0-31.0-0.0,6340d2fa46f2d707e146b63b,F1,batch6,,4609,,,tol_tohand,,,,,,,,,,,tol_peg_3,4609,4609,0,"[[0,0,0],[2,3],[0]]",1,"[[1,2,0],[3,0],[0]]",7,0,,,,,,4
,,,,,single-stim-button,408,1332815,0.0-4.0-31.0-1.0,6340d2fa46f2d707e146b63b,F1,batch6,,913,,,tol_toboard,,,,,,,,,,,tol_peg_1,913,913,0,"[[1,0,0],[2,3],[0]]",1,"[[1,2,0],[3,0],[0]]",7,0,,,,,,4
,,,,,single-stim-button,409,1333475,0.0-4.0-31.1-0.1,6340d2fa46f2d707e146b63b,F1,batch6,,659,,,tol_tohand,,,,,,,,,,,tol_peg_2,659,659,0,"[[1,0,0],[2,0],[0]]",2,"[[1,2,0],[3,0],[0]]",7,0,,,,,,4
,,,,,single-stim-button,410,1334408,0.0-4.0-31.1-1.1,6340d2fa46f2d707e146b63b,F1,batch6,,932,,,tol_toboard,,,,,,,,,,,tol_peg_3,932,932,0,"[[1,0,0],[2,0],[3]]",2,"[[1,2,0],[3,0],[0]]",7,0,,,,,,4
,,,,,single-stim-button,411,1335041,0.0-4.0-31.2-0.2,6340d2fa46f2d707e146b63b,F1,batch6,,631,,,tol_tohand,,,,,,,,,,,tol_peg_2,631,631,0,"[[1,0,0],[0,0],[3]]",3,"[[1,2,0],[3,0],[0]]",7,0,,,,,,4
,,,,,single-stim-button,412,1335655,0.0-4.0-31.2-1.2,6340d2fa46f2d707e146b63b,F1,batch6,,612,,,tol_toboard,,,,,,,,,,,tol_peg_1,612,612,0,"[[1,2,0],[0,0],[3]]",3,"[[1,2,0],[3,0],[0]]",7,0,,,,,,4
,,,,,single-stim-button,413,1336306,0.0-4.0-31.3-0.3,6340d2fa46f2d707e146b63b,F1,batch6,,650,,,tol_tohand,,,,,,,,,,,tol_peg_3,650,650,0,"[[1,2,0],[0,0],[0]]",4,"[[1,2,0],[3,0],[0]]",7,0,,,,,,4
,,,,,single-stim-button,414,1336892,0.0-4.0-31.3-1.3,6340d2fa46f2d707e146b63b,F1,batch6,,584,,,tol_toboard,,,,,,,,,,,tol_peg_2,584,584,0,"[[1,2,0],[3,0],[0]]",4,"[[1,2,0],[3,0],[0]]",7,0,,,,,,4
,,,,,poldrack-single-stim,415,1337906,0.0-4.0-32.0,6340d2fa46f2d707e146b63b,F1,batch6,,-1,,,tol_feedback,TRUE,,,,,,,,,,,1000,1000,500,,,,,,-1,none,TRUE,4609,6549,
,,,,,html-button-response,416,1340228,0.0-4.0-33.0,6340d2fa46f2d707e146b63b,F1,batch6,,2320.7000000178800,<div class = centerbox><p class = center-block-text>problem <strong>9</strong> out of 25 problems</p></div>,0,tol_trial_num,,,,,,,,,,,,,,,,,,,,,,,,,
,,,,,single-stim-button,417,1343151,0.0-4.0-34.0-0.0,6340d2fa46f2d707e146b63b,F1,batch6,,2921,,,tol_tohand,,,,,,,,,,,tol_peg_1,2921,2921,0,"[[3,0,0],[0,0],[1]]",1,"[[2,1,0],[3,0],[0]]",8,0,,,,,,6
,,,,,single-stim-button,418,1359678,0.0-4.0-34.0-1.0,6340d2fa46f2d707e146b63b,F1,batch6,,16526,,,tol_toboard,,,,,,,,,,,tol_peg_1,16526,16526,0,"[[3,2,0],[0,0],[1]]",1,"[[2,1,0],[3,0],[0]]",8,0,,,,,,6
,,,,,single-stim-button,419,1361238,0.0-4.0-34.1-0.1,6340d2fa46f2d707e146b63b,F1,batch6,,1557,,,tol_tohand,,,,,,,,,,,tol_peg_3,1557,1557,0,"[[3,2,0],[0,0],[0]]",2,"[[2,1,0],[3,0],[0]]",8,0,,,,,,6
,,,,,single-stim-button,420,1363408,0.0-4.0-34.1-1.1,6340d2fa46f2d707e146b63b,F1,batch6,,2168,,,tol_toboard,,,,,,,,,,,tol_peg_2,2168,2168,0,"[[3,2,0],[1,0],[0]]",2,"[[2,1,0],[3,0],[0]]",8,0,,,,,,6
,,,,,single-stim-button,421,1363925,0.0-4.0-34.2-0.2,6340d2fa46f2d707e146b63b,F1,batch6,,516,,,tol_tohand,,,,,,,,,,,tol_peg_1,516,516,0,"[[3,0,0],[1,0],[0]]",3,"[[2,1,0],[3,0],[0]]",8,0,,,,,,6
,,,,,single-stim-button,422,1364477,0.0-4.0-34.2-1.2,6340d2fa46f2d707e146b63b,F1,batch6,,550,,,tol_toboard,,,,,,,,,,,tol_peg_2,550,550,0,"[[3,0,0],[1,2],[0]]",3,"[[2,1,0],[3,0],[0]]",8,0,,,,,,6
,,,,,single-stim-button,423,1364991,0.0-4.0-34.3-0.3,6340d2fa46f2d707e146b63b,F1,batch6,,513,,,tol_tohand,,,,,,,,,,,tol_peg_1,513,513,0,"[[0,0,0],[1,2],[0]]",4,"[[2,1,0],[3,0],[0]]",8,0,,,,,,6
,,,,,single-stim-button,424,1366991,0.0-4.0-34.3-1.3,6340d2fa46f2d707e146b63b,F1,batch6,,1997,,,tol_toboard,,,,,,,,,,,tol_peg_3,1997,1997,0,"[[0,0,0],[1,2],[3]]",4,"[[2,1,0],[3,0],[0]]",8,0,,,,,,6
,,,,,single-stim-button,425,1368621,0.0-4.0-34.4-0.4,6340d2fa46f2d707e146b63b,F1,batch6,,1629,,,tol_tohand,,,,,,,,,,,tol_peg_2,1629,1629,0,"[[0,0,0],[1,0],[3]]",5,"[[2,1,0],[3,0],[0]]",8,0,,,,,,6
,,,,,single-stim-button,426,1370303,0.0-4.0-34.4-1.4,6340d2fa46f2d707e146b63b,F1,batch6,,1681,,,tol_toboard,,,,,,,,,,,tol_peg_1,1681,1681,0,"[[2,0,0],[1,0],[3]]",5,"[[2,1,0],[3,0],[0]]",8,0,,,,,,6
,,,,,single-stim-button,427,1370921,0.0-4.0-34.5-0.5,6340d2fa46f2d707e146b63b,F1,batch6,,617,,,tol_tohand,,,,,,,,,,,tol_peg_2,617,617,0,"[[2,0,0],[0,0],[3]]",6,"[[2,1,0],[3,0],[0]]",8,0,,,,,,6
,,,,,single-stim-button,428,1371450,0.0-4.0-34.5-1.5,6340d2fa46f2d707e146b63b,F1,batch6,,526,,,tol_toboard,,,,,,,,,,,tol_peg_1,526,526,0,"[[2,1,0],[0,0],[3]]",6,"[[2,1,0],[3,0],[0]]",8,0,,,,,,6
,,,,,single-stim-button,429,1372166,0.0-4.0-34.6-0.6,6340d2fa46f2d707e146b63b,F1,batch6,,714,,,tol_tohand,,,,,,,,,,,tol_peg_3,714,714,0,"[[2,1,0],[0,0],[0]]",7,"[[2,1,0],[3,0],[0]]",8,0,,,,,,6
,,,,,single-stim-button,430,1372673,0.0-4.0-34.6-1.6,6340d2fa46f2d707e146b63b,F1,batch6,,506,,,tol_toboard,,,,,,,,,,,tol_peg_2,506,506,0,"[[2,1,0],[3,0],[0]]",7,"[[2,1,0],[3,0],[0]]",8,0,,,,,,6
,,,,,poldrack-single-stim,431,1373690,0.0-4.0-35.0,6340d2fa46f2d707e146b63b,F1,batch6,,-1,,,tol_feedback,TRUE,,,,,,,,,,,1000,1000,500,,,,,,-1,none,TRUE,2921,8467,
,,,,,html-button-response,432,1374559,0.0-4.0-36.0,6340d2fa46f2d707e146b63b,F1,batch6,,868,<div class = centerbox><p class = center-block-text>problem <strong>10</strong> out of 25 problems</p></div>,0,tol_trial_num,,,,,,,,,,,,,,,,,,,,,,,,,
,,,,,single-stim-button,433,1384101,0.0-4.0-37.0-0.0,6340d2fa46f2d707e146b63b,F1,batch6,,9539,,,tol_tohand,,,,,,,,,,,tol_peg_2,9539,9539,0,"[[3,0,0],[0,0],[2]]",1,"[[3,0,0],[2,1],[0]]",9,0,,,,,,3
,,,,,single-stim-button,434,1385238,0.0-4.0-37.0-1.0,6340d2fa46f2d707e146b63b,F1,batch6,,1134,,,tol_toboard,,,,,,,,,,,tol_peg_1,1134,1134,0,"[[3,1,0],[0,0],[2]]",1,"[[3,0,0],[2,1],[0]]",9,0,,,,,,3
,,,,,single-stim-button,435,1386138,0.0-4.0-37.1-0.1,6340d2fa46f2d707e146b63b,F1,batch6,,899,,,tol_tohand,,,,,,,,,,,tol_peg_3,899,899,0,"[[3,1,0],[0,0],[0]]",2,"[[3,0,0],[2,1],[0]]",9,0,,,,,,3
,,,,,single-stim-button,436,1386776,0.0-4.0-37.1-1.1,6340d2fa46f2d707e146b63b,F1,batch6,,637,,,tol_toboard,,,,,,,,,,,tol_peg_2,637,637,0,"[[3,1,0],[2,0],[0]]",2,"[[3,0,0],[2,1],[0]]",9,0,,,,,,3
,,,,,single-stim-button,437,1387325,0.0-4.0-37.2-0.2,6340d2fa46f2d707e146b63b,F1,batch6,,547,,,tol_tohand,,,,,,,,,,,tol_peg_1,547,547,0,"[[3,0,0],[2,0],[0]]",3,"[[3,0,0],[2,1],[0]]",9,0,,,,,,3
,,,,,single-stim-button,438,1387931,0.0-4.0-37.2-1.2,6340d2fa46f2d707e146b63b,F1,batch6,,604,,,tol_toboard,,,,,,,,,,,tol_peg_2,604,604,0,"[[3,0,0],[2,1],[0]]",3,"[[3,0,0],[2,1],[0]]",9,0,,,,,,3
,,,,,poldrack-single-stim,439,1388943,0.0-4.0-38.0,6340d2fa46f2d707e146b63b,F1,batch6,,-1,,,tol_feedback,TRUE,,,,,,,,,,,1000,1000,500,,,,,,-1,none,TRUE,9539,10985,
,,,,,html-button-response,440,1389963,0.0-4.0-39.0,6340d2fa46f2d707e146b63b,F1,batch6,,1017.6000000238400,<div class = centerbox><p class = center-block-text>problem <strong>11</strong> out of 25 problems</p></div>,0,tol_trial_num,,,,,,,,,,,,,,,,,,,,,,,,,
,,,,,single-stim-button,441,1405035,0.0-4.0-40.0-0.0,6340d2fa46f2d707e146b63b,F1,batch6,,15070,,,tol_tohand,,,,,,,,,,,tol_peg_2,15070,15070,0,"[[1,2,0],[0,0],[0]]",1,"[[2,0,0],[1,3],[0]]",10,0,,,,,,6
,,,,,single-stim-button,442,1418168,0.0-4.0-40.0-1.0,6340d2fa46f2d707e146b63b,F1,batch6,,13132,,,tol_toboard,,,,,,,,,,,tol_peg_2,13132,13132,0,"[[1,2,0],[3,0],[0]]",1,"[[2,0,0],[1,3],[0]]",10,0,,,,,,6
,,,,,single-stim-button,443,1419260,0.0-4.0-40.1-0.1,6340d2fa46f2d707e146b63b,F1,batch6,,1090,,,tol_tohand,,,,,,,,,,,tol_peg_1,1090,1090,0,"[[1,0,0],[3,0],[0]]",2,"[[2,0,0],[1,3],[0]]",10,0,,,,,,6
,,,,,single-stim-button,444,1419933,0.0-4.0-40.1-1.1,6340d2fa46f2d707e146b63b,F1,batch6,,672,,,tol_toboard,,,,,,,,,,,tol_peg_3,672,672,0,"[[1,0,0],[3,0],[2]]",2,"[[2,0,0],[1,3],[0]]",10,0,,,,,,6
,,,,,single-stim-button,445,1420684,0.0-4.0-40.2-0.2,6340d2fa46f2d707e146b63b,F1,batch6,,750,,,tol_tohand,,,,,,,,,,,tol_peg_1,750,750,0,"[[0,0,0],[3,0],[2]]",3,"[[2,0,0],[1,3],[0]]",10,0,,,,,,6
,,,,,single-stim-button,446,1421482,0.0-4.0-40.2-1.2,6340d2fa46f2d707e146b63b,F1,batch6,,796,,,tol_toboard,,,,,,,,,,,tol_peg_2,796,796,0,"[[0,0,0],[3,1],[2]]",3,"[[2,0,0],[1,3],[0]]",10,0,,,,,,6
,,,,,single-stim-button,447,1422161,0.0-4.0-40.3-0.3,6340d2fa46f2d707e146b63b,F1,batch6,,677,,,tol_tohand,,,,,,,,,,,tol_peg_3,677,677,0,"[[0,0,0],[3,1],[0]]",4,"[[2,0,0],[1,3],[0]]",10,0,,,,,,6
,,,,,single-stim-button,448,1422987,0.0-4.0-40.3-1.3,6340d2fa46f2d707e146b63b,F1,batch6,,825,,,tol_toboard,,,,,,,,,,,tol_peg_1,825,825,0,"[[2,0,0],[3,1],[0]]",4,"[[2,0,0],[1,3],[0]]",10,0,,,,,,6
,,,,,single-stim-button,449,1424066,0.0-4.0-40.4-0.4,6340d2fa46f2d707e146b63b,F1,batch6,,1078,,,tol_tohand,,,,,,,,,,,tol_peg_2,1078,1078,0,"[[2,0,0],[3,0],[0]]",5,"[[2,0,0],[1,3],[0]]",10,0,,,,,,6
,,,,,single-stim-button,450,1425538,0.0-4.0-40.4-1.4,6340d2fa46f2d707e146b63b,F1,batch6,,1470,,,tol_toboard,,,,,,,,,,,tol_peg_1,1470,1470,0,"[[2,1,0],[3,0],[0]]",5,"[[2,0,0],[1,3],[0]]",10,0,,,,,,6
,,,,,single-stim-button,451,1426239,0.0-4.0-40.5-0.5,6340d2fa46f2d707e146b63b,F1,batch6,,699,,,tol_tohand,,,,,,,,,,,tol_peg_2,699,699,0,"[[2,1,0],[0,0],[0]]",6,"[[2,0,0],[1,3],[0]]",10,0,,,,,,6
,,,,,single-stim-button,452,1427214,0.0-4.0-40.5-1.5,6340d2fa46f2d707e146b63b,F1,batch6,,974,,,tol_toboard,,,,,,,,,,,tol_peg_3,974,974,0,"[[2,1,0],[0,0],[3]]",6,"[[2,0,0],[1,3],[0]]",10,0,,,,,,6
,,,,,single-stim-button,453,1427908,0.0-4.0-40.6-0.6,6340d2fa46f2d707e146b63b,F1,batch6,,692,,,tol_tohand,,,,,,,,,,,tol_peg_1,692,692,0,"[[2,0,0],[0,0],[3]]",7,"[[2,0,0],[1,3],[0]]",10,0,,,,,,6
,,,,,single-stim-button,454,1428437,0.0-4.0-40.6-1.6,6340d2fa46f2d707e146b63b,F1,batch6,,528,,,tol_toboard,,,,,,,,,,,tol_peg_2,528,528,0,"[[2,0,0],[1,0],[3]]",7,"[[2,0,0],[1,3],[0]]",10,0,,,,,,6
,,,,,single-stim-button,455,1429048,0.0-4.0-40.7-0.7,6340d2fa46f2d707e146b63b,F1,batch6,,610,,,tol_tohand,,,,,,,,,,,tol_peg_3,610,610,0,"[[2,0,0],[1,0],[0]]",8,"[[2,0,0],[1,3],[0]]",10,0,,,,,,6
,,,,,single-stim-button,456,1429622,0.0-4.0-40.7-1.7,6340d2fa46f2d707e146b63b,F1,batch6,,572,,,tol_toboard,,,,,,,,,,,tol_peg_2,572,572,0,"[[2,0,0],[1,3],[0]]",8,"[[2,0,0],[1,3],[0]]",10,0,,,,,,6
,,,,,poldrack-single-stim,457,1430640,0.0-4.0-41.0,6340d2fa46f2d707e146b63b,F1,batch6,,-1,,,tol_feedback,TRUE,,,,,,,,,,,1000,1000,500,,,,,,-1,none,TRUE,15070,20666,
,,,,,html-button-response,458,1431384,0.0-4.0-42.0,6340d2fa46f2d707e146b63b,F1,batch6,,742.4000000059610,<div class = centerbox><p class = center-block-text>problem <strong>12</strong> out of 25 problems</p></div>,0,tol_trial_num,,,,,,,,,,,,,,,,,,,,,,,,,
,,,,,single-stim-button,459,1435991,0.0-4.0-43.0-0.0,6340d2fa46f2d707e146b63b,F1,batch6,,4606,,,tol_tohand,,,,,,,,,,,tol_peg_1,4606,4606,0,"[[1,0,0],[3,0],[0]]",1,"[[2,3,0],[0,0],[1]]",11,0,,,,,,4
,,,,,single-stim-button,460,1437876,0.0-4.0-43.0-1.0,6340d2fa46f2d707e146b63b,F1,batch6,,1882,,,tol_toboard,,,,,,,,,,,tol_peg_2,1882,1882,0,"[[1,0,0],[3,2],[0]]",1,"[[2,3,0],[0,0],[1]]",11,0,,,,,,4
,,,,,single-stim-button,461,1438618,0.0-4.0-43.1-0.1,6340d2fa46f2d707e146b63b,F1,batch6,,740,,,tol_tohand,,,,,,,,,,,tol_peg_1,740,740,0,"[[0,0,0],[3,2],[0]]",2,"[[2,3,0],[0,0],[1]]",11,0,,,,,,4
,,,,,single-stim-button,462,1439208,0.0-4.0-43.1-1.1,6340d2fa46f2d707e146b63b,F1,batch6,,589,,,tol_toboard,,,,,,,,,,,tol_peg_3,589,589,0,"[[0,0,0],[3,2],[1]]",2,"[[2,3,0],[0,0],[1]]",11,0,,,,,,4
,,,,,single-stim-button,463,1439724,0.0-4.0-43.2-0.2,6340d2fa46f2d707e146b63b,F1,batch6,,514,,,tol_tohand,,,,,,,,,,,tol_peg_2,514,514,0,"[[0,0,0],[3,0],[1]]",3,"[[2,3,0],[0,0],[1]]",11,0,,,,,,4
,,,,,single-stim-button,464,1440203,0.0-4.0-43.2-1.2,6340d2fa46f2d707e146b63b,F1,batch6,,478,,,tol_toboard,,,,,,,,,,,tol_peg_1,478,478,0,"[[2,0,0],[3,0],[1]]",3,"[[2,3,0],[0,0],[1]]",11,0,,,,,,4
,,,,,single-stim-button,465,1440706,0.0-4.0-43.3-0.3,6340d2fa46f2d707e146b63b,F1,batch6,,501,,,tol_tohand,,,,,,,,,,,tol_peg_2,501,501,0,"[[2,0,0],[0,0],[1]]",4,"[[2,3,0],[0,0],[1]]",11,0,,,,,,4
,,,,,single-stim-button,466,1441133,0.0-4.0-43.3-1.3,6340d2fa46f2d707e146b63b,F1,batch6,,426,,,tol_toboard,,,,,,,,,,,tol_peg_1,426,426,0,"[[2,3,0],[0,0],[1]]",4,"[[2,3,0],[0,0],[1]]",11,0,,,,,,4
,,,,,poldrack-single-stim,467,1442144,0.0-4.0-44.0,6340d2fa46f2d707e146b63b,F1,batch6,,-1,,,tol_feedback,TRUE,,,,,,,,,,,1000,1000,500,,,,,,-1,none,TRUE,4606,6361,
,,,,,html-button-response,468,1442736,0.0-4.0-45.0,6340d2fa46f2d707e146b63b,F1,batch6,,590,<div class = centerbox><p class = center-block-text>problem <strong>13</strong> out of 25 problems</p></div>,0,tol_trial_num,,,,,,,,,,,,,,,,,,,,,,,,,
,,,,,single-stim-button,469,1445830,0.0-4.0-46.0-0.0,6340d2fa46f2d707e146b63b,F1,batch6,,3092,,,tol_tohand,,,,,,,,,,,tol_peg_2,3092,3092,0,"[[1,2,0],[0,0],[0]]",1,"[[0,0,0],[2,3],[1]]",12,0,,,,,,4
,,,,,single-stim-button,470,1446562,0.0-4.0-46.0-1.0,6340d2fa46f2d707e146b63b,F1,batch6,,731,,,tol_toboard,,,,,,,,,,,tol_peg_3,731,731,0,"[[1,2,0],[0,0],[3]]",1,"[[0,0,0],[2,3],[1]]",12,0,,,,,,4
,,,,,single-stim-button,471,1447409,0.0-4.0-46.1-0.1,6340d2fa46f2d707e146b63b,F1,batch6,,845,,,tol_tohand,,,,,,,,,,,tol_peg_1,845,845,0,"[[1,0,0],[0,0],[3]]",2,"[[0,0,0],[2,3],[1]]",12,0,,,,,,4
,,,,,single-stim-button,472,1447905,0.0-4.0-46.1-1.1,6340d2fa46f2d707e146b63b,F1,batch6,,495,,,tol_toboard,,,,,,,,,,,tol_peg_2,495,495,0,"[[1,0,0],[2,0],[3]]",2,"[[0,0,0],[2,3],[1]]",12,0,,,,,,4
,,,,,single-stim-button,473,1448455,0.0-4.0-46.2-0.2,6340d2fa46f2d707e146b63b,F1,batch6,,549,,,tol_tohand,,,,,,,,,,,tol_peg_3,549,549,0,"[[1,0,0],[2,0],[0]]",3,"[[0,0,0],[2,3],[1]]",12,0,,,,,,4
,,,,,single-stim-button,474,1448968,0.0-4.0-46.2-1.2,6340d2fa46f2d707e146b63b,F1,batch6,,512,,,tol_toboard,,,,,,,,,,,tol_peg_2,512,512,0,"[[1,0,0],[2,3],[0]]",3,"[[0,0,0],[2,3],[1]]",12,0,,,,,,4
,,,,,single-stim-button,475,1449545,0.0-4.0-46.3-0.3,6340d2fa46f2d707e146b63b,F1,batch6,,576,,,tol_tohand,,,,,,,,,,,tol_peg_1,576,576,0,"[[0,0,0],[2,3],[0]]",4,"[[0,0,0],[2,3],[1]]",12,0,,,,,,4
,,,,,single-stim-button,476,1450343,0.0-4.0-46.3-1.3,6340d2fa46f2d707e146b63b,F1,batch6,,797,,,tol_toboard,,,,,,,,,,,tol_peg_3,797,797,0,"[[0,0,0],[2,3],[1]]",4,"[[0,0,0],[2,3],[1]]",12,0,,,,,,4
,,,,,poldrack-single-stim,477,1451349,0.0-4.0-47.0,6340d2fa46f2d707e146b63b,F1,batch6,,-1,,,tol_feedback,TRUE,,,,,,,,,,,1000,1000,500,,,,,,-1,none,TRUE,3092,5062,
,,,,,html-button-response,478,1455529,0.0-4.0-48.0,6340d2fa46f2d707e146b63b,F1,batch6,,4178.9000000059600,<p class = block-text>How many balls are in your board<br></p>,1,attention_check,TRUE,,,,,,,,,,,,,,,,,,,,,,,,
,,,,,html-button-response,479,1456621,0.0-4.0-49.0,6340d2fa46f2d707e146b63b,F1,batch6,,1089.9000000059600,<div class = centerbox><p class = center-block-text>problem <strong>14</strong> out of 25 problems</p></div>,0,tol_trial_num,,,,,,,,,,,,,,,,,,,,,,,,,
,,,,,single-stim-button,480,1463894,0.0-4.0-50.0-0.0,6340d2fa46f2d707e146b63b,F1,batch6,,7271,,,tol_tohand,,,,,,,,,,,tol_peg_1,7271,7271,0,"[[2,0,0],[3,0],[0]]",1,"[[1,2,0],[3,0],[0]]",13,0,,,,,,4
,,,,,single-stim-button,481,1464746,0.0-4.0-50.0-1.0,6340d2fa46f2d707e146b63b,F1,batch6,,851,,,tol_toboard,,,,,,,,,,,tol_peg_2,851,851,0,"[[2,0,0],[3,1],[0]]",1,"[[1,2,0],[3,0],[0]]",13,0,,,,,,4
,,,,,single-stim-button,482,1465329,0.0-4.0-50.1-0.1,6340d2fa46f2d707e146b63b,F1,batch6,,581,,,tol_tohand,,,,,,,,,,,tol_peg_1,581,581,0,"[[0,0,0],[3,1],[0]]",2,"[[1,2,0],[3,0],[0]]",13,0,,,,,,4
,,,,,single-stim-button,483,1466230,0.0-4.0-50.1-1.1,6340d2fa46f2d707e146b63b,F1,batch6,,900,,,tol_toboard,,,,,,,,,,,tol_peg_3,900,900,0,"[[0,0,0],[3,1],[2]]",2,"[[1,2,0],[3,0],[0]]",13,0,,,,,,4
,,,,,single-stim-button,484,1466786,0.0-4.0-50.2-0.2,6340d2fa46f2d707e146b63b,F1,batch6,,554,,,tol_tohand,,,,,,,,,,,tol_peg_2,554,554,0,"[[0,0,0],[3,0],[2]]",3,"[[1,2,0],[3,0],[0]]",13,0,,,,,,4
,,,,,single-stim-button,485,1467308,0.0-4.0-50.2-1.2,6340d2fa46f2d707e146b63b,F1,batch6,,520,,,tol_toboard,,,,,,,,,,,tol_peg_1,520,520,0,"[[1,0,0],[3,0],[2]]",3,"[[1,2,0],[3,0],[0]]",13,0,,,,,,4
,,,,,single-stim-button,486,1467949,0.0-4.0-50.3-0.3,6340d2fa46f2d707e146b63b,F1,batch6,,639,,,tol_tohand,,,,,,,,,,,tol_peg_3,639,639,0,"[[1,0,0],[3,0],[0]]",4,"[[1,2,0],[3,0],[0]]",13,0,,,,,,4
,,,,,single-stim-button,487,1469252,0.0-4.0-50.3-1.3,6340d2fa46f2d707e146b63b,F1,batch6,,1302,,,tol_toboard,,,,,,,,,,,tol_peg_1,1302,1302,0,"[[1,2,0],[3,0],[0]]",4,"[[1,2,0],[3,0],[0]]",13,0,,,,,,4
,,,,,poldrack-single-stim,488,1470262,0.0-4.0-51.0,6340d2fa46f2d707e146b63b,F1,batch6,,-1,,,tol_feedback,TRUE,,,,,,,,,,,1000,1000,500,,,,,,-1,none,TRUE,7271,9045,
,,,,,html-button-response,489,1471120,0.0-4.0-52.0,6340d2fa46f2d707e146b63b,F1,batch6,,856.9000000059610,<div class = centerbox><p class = center-block-text>problem <strong>15</strong> out of 25 problems</p></div>,0,tol_trial_num,,,,,,,,,,,,,,,,,,,,,,,,,
,,,,,single-stim-button,490,1476731,0.0-4.0-53.0-0.0,6340d2fa46f2d707e146b63b,F1,batch6,,5608,,,tol_tohand,,,,,,,,,,,tol_peg_1,5608,5608,0,"[[1,0,0],[3,0],[0]]",1,"[[2,0,0],[3,0],[1]]",14,0,,,,,,3
,,,,,single-stim-button,491,1477273,0.0-4.0-53.0-1.0,6340d2fa46f2d707e146b63b,F1,batch6,,541,,,tol_toboard,,,,,,,,,,,tol_peg_2,541,541,0,"[[1,0,0],[3,2],[0]]",1,"[[2,0,0],[3,0],[1]]",14,0,,,,,,3
,,,,,single-stim-button,492,1477830,0.0-4.0-53.1-0.1,6340d2fa46f2d707e146b63b,F1,batch6,,555,,,tol_tohand,,,,,,,,,,,tol_peg_1,555,555,0,"[[0,0,0],[3,2],[0]]",2,"[[2,0,0],[3,0],[1]]",14,0,,,,,,3
,,,,,single-stim-button,493,1478468,0.0-4.0-53.1-1.1,6340d2fa46f2d707e146b63b,F1,batch6,,637,,,tol_toboard,,,,,,,,,,,tol_peg_3,637,637,0,"[[0,0,0],[3,2],[1]]",2,"[[2,0,0],[3,0],[1]]",14,0,,,,,,3
,,,,,single-stim-button,494,1478995,0.0-4.0-53.2-0.2,6340d2fa46f2d707e146b63b,F1,batch6,,525,,,tol_tohand,,,,,,,,,,,tol_peg_2,525,525,0,"[[0,0,0],[3,0],[1]]",3,"[[2,0,0],[3,0],[1]]",14,0,,,,,,3
,,,,,single-stim-button,495,1479471,0.0-4.0-53.2-1.2,6340d2fa46f2d707e146b63b,F1,batch6,,474,,,tol_toboard,,,,,,,,,,,tol_peg_1,474,474,0,"[[2,0,0],[3,0],[1]]",3,"[[2,0,0],[3,0],[1]]",14,0,,,,,,3
