"success","timeout","failed_images","failed_audio","failed_video","trial_type","trial_index","time_elapsed","internal_node_id","subject_id","study_id","session_id","view_history","rt","stimulus","response","task","correct","answer","item","fiar_detect_rt","fiar_detect_correct","total_correct_fiar_detect","post_trial_gap","choices","mouse_click","stim_duration","block_duration","timing_post_trial","current_position","tol_num_moves_made","tol_target","tol_problem_id","tol_rt","key_press","possible_responses","tol_correct","preplanning","tol_rt_per_trial","tol_min_moves","spm_correct","spm_rt"
"true","false","[]","[]","[]","preload","0","1093","0.0-0.0","6347481705fc940bcda1c8e1","D2","batch4","","","","","","","","","","","","","","","","","","","","","","","","","","","","","",""
"true","","","","","fullscreen","1","7107","0.0-1.0-0.0","6347481705fc940bcda1c8e1","D2","batch4","","","","","","","","","","","","","","","","","","","","","","","","","","","","","",""
"true","","","","","fullscreen","2","10405","0.0-2.0-0.0","6347481705fc940bcda1c8e1","D2","batch4","","","","","","","","","","","","","","","","","","","","","","","","","","","","","",""
"","","","","","instructions","3","24574","0.0-2.0-1.0-0.0","6347481705fc940bcda1c8e1","D2","batch4","[{""page_index"":0,""viewing_time"":8439.799999952316},{""page_index"":1,""viewing_time"":5727.700000047684}]","14167.799999952316","","","","","","","","","","","","","","","","","","","","","","","","","","","",""
"","","","","","html-button-response","4","25956","0.0-2.0-1.0-1.0-0.0","6347481705fc940bcda1c8e1","D2","batch4","","1381.1999999284744","<p class=block-text> Let's answer a few questions <br>","0","pattern_enter_quiz","","","","","","","","","","","","","","","","","","","","","","","","",""
"","","","","","html-button-response","5","28296","0.0-2.0-1.0-1.0-1.0","6347481705fc940bcda1c8e1","D2","batch4","","2338.399999976158","<p class = block-text>True or False: You will have as much time as you want to make each choice. <br></p>","1","pattern_quiz","true","","","","","","","","","","","","","","","","","","","","","","","",""
"","","","","","html-button-response","6","28856","0.0-2.0-1.0-1.0-2.0","6347481705fc940bcda1c8e1","D2","batch4","","558.6000000238419","<p class = block-text>Correct! You should make your choice <strong> as fast as you can</strong>.</p>","0","pattern_quiz_feedback","","","","","","","","","","","","","","","","","","","","","","","","",""
"","","","","","html-button-response","7","32445","0.0-2.0-1.0-1.0-3.0","6347481705fc940bcda1c8e1","D2","batch4","","3588.4000000953674","<p class = block-text>True or False: You will look for 4 pieces in black or white color connected in a row either horizontally, vertically or diagonally. <br></p>","0","pattern_quiz","true","","","","","","","","","","","","","","","","","","","","","","","",""
"","","","","","html-button-response","8","33129","0.0-2.0-1.0-1.0-4.0","6347481705fc940bcda1c8e1","D2","batch4","","682.1999999284744","<p class = block-text>Correct! </p>","0","pattern_quiz_feedback","","","","","","","","","","","","","","","","","","","","","","","","",""
"","","","","","html-button-response","9","34098","0.0-2.0-2.0","6347481705fc940bcda1c8e1","D2","batch4","","968.1000000238419","<p class=block-text> Now that you've understood the game, let's do a few practice trials before we start!<br> <br>","0","pattern_enter_practice","","","","","","","","","","","","","","","","","","","","","","","","",""
"","","","","","image-keyboard-response","10","35184","0.0-2.0-3.0-0.0","6347481705fc940bcda1c8e1","D2","batch4","","1082.6000000238419","stim/prac_yes_16_ver_w1.png","f","pattern_practice","true","f","","","","","","","","","","","","","","","","","","","","","","",""
"","","","","","html-keyboard-response","11","36199","0.0-2.0-3.0-1.0","6347481705fc940bcda1c8e1","D2","batch4","","null","<p style=""font-size:30px;color:green;"">Correct!</p>","null","pattern_feedback","","","","","","","","","","","","","","","","","","","","","","","","",""
"","","","","","image-keyboard-response","12","37400","0.0-2.0-3.0-0.1","6347481705fc940bcda1c8e1","D2","batch4","","1200.2000000476837","stim/prac_no_16_1.png","j","pattern_practice","true","j","","","","","","","","","","","","","","","","","","","","","","",""
"","","","","","html-keyboard-response","13","38410","0.0-2.0-3.0-1.1","6347481705fc940bcda1c8e1","D2","batch4","","null","<p style=""font-size:30px;color:green;"">Correct!</p>","null","pattern_feedback","","","","","","","","","","","","","","","","","","","","","","","","",""
"","","","","","image-keyboard-response","14","39214","0.0-2.0-3.0-0.2","6347481705fc940bcda1c8e1","D2","batch4","","802.8000000715256","stim/prac_yes_20_dia_b1.png","f","pattern_practice","true","f","","","","","","","","","","","","","","","","","","","","","","",""
"","","","","","html-keyboard-response","15","40225","0.0-2.0-3.0-1.2","6347481705fc940bcda1c8e1","D2","batch4","","null","<p style=""font-size:30px;color:green;"">Correct!</p>","null","pattern_feedback","","","","","","","","","","","","","","","","","","","","","","","","",""
"","","","","","image-keyboard-response","16","40777","0.0-2.0-3.0-0.3","6347481705fc940bcda1c8e1","D2","batch4","","550.7999999523163","stim/prac_yes_18_hor_w1.png","f","pattern_practice","true","f","","","","","","","","","","","","","","","","","","","","","","",""
"","","","","","html-keyboard-response","17","41787","0.0-2.0-3.0-1.3","6347481705fc940bcda1c8e1","D2","batch4","","null","<p style=""font-size:30px;color:green;"">Correct!</p>","null","pattern_feedback","","","","","","","","","","","","","","","","","","","","","","","","",""
"","","","","","image-keyboard-response","18","42843","0.0-2.0-3.0-0.4","6347481705fc940bcda1c8e1","D2","batch4","","1051.8999999761581","stim/prac_no_18_1.png","j","pattern_practice","true","j","","","","","","","","","","","","","","","","","","","","","","",""
"","","","","","html-keyboard-response","19","43857","0.0-2.0-3.0-1.4","6347481705fc940bcda1c8e1","D2","batch4","","null","<p style=""font-size:30px;color:green;"">Correct!</p>","null","pattern_feedback","","","","","","","","","","","","","","","","","","","","","","","","",""
"","","","","","html-button-response","20","55717","0.0-2.0-4.0","6347481705fc940bcda1c8e1","D2","batch4","","11858.600000023842","<p class=block-text> Good job! You are done with practice trials!<br>
        You responded correctly on 100% of the trials.<br>
        Press the button below to start official trials. Now you won't see any feedback about your response</p>","0","pattern_enter_official_trials","","","","","","","","","","","","","","","","","","","","","","","","",""
"","","","","","html-keyboard-response","21","56528","0.0-2.0-5.0-0.0","6347481705fc940bcda1c8e1","D2","batch4","","null","<p class=block-text>Trial 1 out of 78</p>","null","pattern_show_trial_num","","","","","","","","","","","","","","","","","","","","","","","","",""
"","","","","","image-keyboard-response","22","59071","0.0-2.0-5.0-1.0","6347481705fc940bcda1c8e1","D2","batch4","","2541.2999999523163","stim/no_67_1.png","j","pattern_response","true","j","pattern_39","2541.2999999523163","true","1","","","","","","","","","","","","","","","","","","",""
"","","","","","html-keyboard-response","23","60390","0.0-2.0-5.0-0.1","6347481705fc940bcda1c8e1","D2","batch4","","null","<p class=block-text>Trial 2 out of 78</p>","null","pattern_show_trial_num","","","","","","","","","","","","","","","","","","","","","","","","",""
"","","","","","image-keyboard-response","24","62855","0.0-2.0-5.0-1.1","6347481705fc940bcda1c8e1","D2","batch4","","2463.899999976158","stim/yes_70_ver_b1.png","j","pattern_response","false","f","pattern_80","2463.899999976158","false","1","","","","","","","","","","","","","","","","","","",""
"","","","","","html-keyboard-response","25","64162","0.0-2.0-5.0-0.2","6347481705fc940bcda1c8e1","D2","batch4","","null","<p class=block-text>Trial 3 out of 78</p>","null","pattern_show_trial_num","","","","","","","","","","","","","","","","","","","","","","","","",""
"","","","","","image-keyboard-response","26","66396","0.0-2.0-5.0-1.2","6347481705fc940bcda1c8e1","D2","batch4","","2232.399999976158","stim/yes_23_ver_b1.png","j","pattern_response","false","f","pattern_48","2232.399999976158","false","1","","","","","","","","","","","","","","","","","","",""
"","","","","","html-keyboard-response","27","67710","0.0-2.0-5.0-0.3","6347481705fc940bcda1c8e1","D2","batch4","","null","<p class=block-text>Trial 4 out of 78</p>","null","pattern_show_trial_num","","","","","","","","","","","","","","","","","","","","","","","","",""
"","","","","","image-keyboard-response","28","73135","0.0-2.0-5.0-1.3","6347481705fc940bcda1c8e1","D2","batch4","","5424.100000023842","stim/yes_63_dia_b1.png","f","pattern_response","true","f","pattern_78","5424.100000023842","true","2","","","","","","","","","","","","","","","","","","",""
"","","","","","html-keyboard-response","29","74441","0.0-2.0-5.0-0.4","6347481705fc940bcda1c8e1","D2","batch4","","null","<p class=block-text>Trial 5 out of 78</p>","null","pattern_show_trial_num","","","","","","","","","","","","","","","","","","","","","","","","",""
"","","","","","image-keyboard-response","30","79205","0.0-2.0-5.0-1.4","6347481705fc940bcda1c8e1","D2","batch4","","4762.699999928474","stim/no_53_1_b.png","j","pattern_response","true","j","pattern_33","4762.699999928474","true","3","","","","","","","","","","","","","","","","","","",""
"","","","","","html-keyboard-response","31","80513","0.0-2.0-5.0-0.5","6347481705fc940bcda1c8e1","D2","batch4","","null","<p class=block-text>Trial 6 out of 78</p>","null","pattern_show_trial_num","","","","","","","","","","","","","","","","","","","","","","","","",""
"","","","","","image-keyboard-response","32","81423","0.0-2.0-5.0-1.5","6347481705fc940bcda1c8e1","D2","batch4","","909.2000000476837","stim/no_15_1_w.png","j","pattern_response","true","j","pattern_03","909.2000000476837","true","4","","","","","","","","","","","","","","","","","","",""
"","","","","","html-keyboard-response","33","82747","0.0-2.0-5.0-0.6","6347481705fc940bcda1c8e1","D2","batch4","","null","<p class=block-text>Trial 7 out of 78</p>","null","pattern_show_trial_num","","","","","","","","","","","","","","","","","","","","","","","","",""
"","","","","","image-keyboard-response","34","87223","0.0-2.0-5.0-1.6","6347481705fc940bcda1c8e1","D2","batch4","","4475.299999952316","stim/no_49_2_b.png","j","pattern_response","true","j","pattern_29","4475.299999952316","true","5","","","","","","","","","","","","","","","","","","",""
"","","","","","html-keyboard-response","35","88542","0.0-2.0-5.0-0.7","6347481705fc940bcda1c8e1","D2","batch4","","null","<p class=block-text>Trial 8 out of 78</p>","null","pattern_show_trial_num","","","","","","","","","","","","","","","","","","","","","","","","",""
"","","","","","image-keyboard-response","36","89275","0.0-2.0-5.0-1.7","6347481705fc940bcda1c8e1","D2","batch4","","731.7999999523163","stim/no_12_1.png","j","pattern_response","true","j","pattern_01","731.7999999523163","true","6","","","","","","","","","","","","","","","","","","",""
"","","","","","html-keyboard-response","37","90582","0.0-2.0-5.0-0.8","6347481705fc940bcda1c8e1","D2","batch4","","null","<p class=block-text>Trial 9 out of 78</p>","null","pattern_show_trial_num","","","","","","","","","","","","","","","","","","","","","","","","",""
"","","","","","image-keyboard-response","38","92352","0.0-2.0-5.0-1.8","6347481705fc940bcda1c8e1","D2","batch4","","1768.8999999761581","stim/yes_46_ver_b1_b.png","f","pattern_response","true","f","pattern_68","1768.8999999761581","true","7","","","","","","","","","","","","","","","","","","",""
"","","","","","html-keyboard-response","39","93659","0.0-2.0-5.0-0.9","6347481705fc940bcda1c8e1","D2","batch4","","null","<p class=block-text>Trial 10 out of 78</p>","null","pattern_show_trial_num","","","","","","","","","","","","","","","","","","","","","","","","",""
"","","","","","image-keyboard-response","40","97632","0.0-2.0-5.0-1.9","6347481705fc940bcda1c8e1","D2","batch4","","3971.7000000476837","stim/no_43_2_b.png","j","pattern_response","true","j","pattern_23","3971.7000000476837","true","8","","","","","","","","","","","","","","","","","","",""
"","","","","","html-keyboard-response","41","98952","0.0-2.0-5.0-0.10","6347481705fc940bcda1c8e1","D2","batch4","","null","<p class=block-text>Trial 11 out of 78</p>","null","pattern_show_trial_num","","","","","","","","","","","","","","","","","","","","","","","","",""
"","","","","","image-keyboard-response","42","102690","0.0-2.0-5.0-1.10","6347481705fc940bcda1c8e1","D2","batch4","","3736.399999976158","stim/no_33_1_b.png","j","pattern_response","true","j","pattern_15","3736.399999976158","true","9","","","","","","","","","","","","","","","","","","",""
"","","","","","html-keyboard-response","43","103994","0.0-2.0-5.0-0.11","6347481705fc940bcda1c8e1","D2","batch4","","null","<p class=block-text>Trial 12 out of 78</p>","null","pattern_show_trial_num","","","","","","","","","","","","","","","","","","","","","","","","",""
"","","","","","image-keyboard-response","44","112351","0.0-2.0-5.0-1.11","6347481705fc940bcda1c8e1","D2","batch4","","8355.399999976158","stim/no_47_1_b.png","j","pattern_response","true","j","pattern_27","8355.399999976158","true","10","","","","","","","","","","","","","","","","","","",""
"","","","","","html-keyboard-response","45","113657","0.0-2.0-5.0-0.12","6347481705fc940bcda1c8e1","D2","batch4","","null","<p class=block-text>Trial 13 out of 78</p>","null","pattern_show_trial_num","","","","","","","","","","","","","","","","","","","","","","","","",""
"","","","","","image-keyboard-response","46","123702","0.0-2.0-5.0-1.12","6347481705fc940bcda1c8e1","D2","batch4","","10044.200000047684","stim/no_58_1_w.png","j","pattern_response","true","j","pattern_35","10044.200000047684","true","11","","","","","","","","","","","","","","","","","","",""
"","","","","","html-keyboard-response","47","125017","0.0-2.0-5.0-0.13","6347481705fc940bcda1c8e1","D2","batch4","","null","<p class=block-text>Trial 14 out of 78</p>","null","pattern_show_trial_num","","","","","","","","","","","","","","","","","","","","","","","","",""
"","","","","","image-keyboard-response","48","127524","0.0-2.0-5.0-1.13","6347481705fc940bcda1c8e1","D2","batch4","","2506","stim/yes_42_dia_w1_w.png","f","pattern_response","true","f","pattern_64","2506","true","12","","","","","","","","","","","","","","","","","","",""
"","","","","","html-keyboard-response","49","128842","0.0-2.0-5.0-0.14","6347481705fc940bcda1c8e1","D2","batch4","","null","<p class=block-text>Trial 15 out of 78</p>","null","pattern_show_trial_num","","","","","","","","","","","","","","","","","","","","","","","","",""
"","","","","","image-keyboard-response","50","129561","0.0-2.0-5.0-1.14","6347481705fc940bcda1c8e1","D2","batch4","","717.7000000476837","stim/yes_36_ver_w1_w.png","f","pattern_response","true","f","pattern_58","717.7000000476837","true","13","","","","","","","","","","","","","","","","","","",""
"","","","","","html-keyboard-response","51","130890","0.0-2.0-5.0-0.15","6347481705fc940bcda1c8e1","D2","batch4","","null","<p class=block-text>Trial 16 out of 78</p>","null","pattern_show_trial_num","","","","","","","","","","","","","","","","","","","","","","","","",""
"","","","","","image-keyboard-response","52","131647","0.0-2.0-5.0-1.15","6347481705fc940bcda1c8e1","D2","batch4","","755.3999999761581","stim/yes_39_hor_w1_w.png","f","pattern_response","true","f","pattern_62","755.3999999761581","true","14","","","","","","","","","","","","","","","","","","",""
"","","","","","html-keyboard-response","53","132967","0.0-2.0-5.0-0.16","6347481705fc940bcda1c8e1","D2","batch4","","null","<p class=block-text>Trial 17 out of 78</p>","null","pattern_show_trial_num","","","","","","","","","","","","","","","","","","","","","","","","",""
"","","","","","image-keyboard-response","54","137072","0.0-2.0-5.0-1.16","6347481705fc940bcda1c8e1","D2","batch4","","4103.700000047684","stim/no_36_1_b.png","j","pattern_response","true","j","pattern_17","4103.700000047684","true","15","","","","","","","","","","","","","","","","","","",""
"","","","","","html-keyboard-response","55","138391","0.0-2.0-5.0-0.17","6347481705fc940bcda1c8e1","D2","batch4","","null","<p class=block-text>Trial 18 out of 78</p>","null","pattern_show_trial_num","","","","","","","","","","","","","","","","","","","","","","","","",""
"","","","","","image-keyboard-response","56","139055","0.0-2.0-5.0-1.17","6347481705fc940bcda1c8e1","D2","batch4","","663.5","stim/yes_12_hor_w1_w.png","f","pattern_response","true","f","pattern_42","663.5","true","16","","","","","","","","","","","","","","","","","","",""
"","","","","","html-keyboard-response","57","140372","0.0-2.0-5.0-0.18","6347481705fc940bcda1c8e1","D2","batch4","","null","<p class=block-text>Trial 19 out of 78</p>","null","pattern_show_trial_num","","","","","","","","","","","","","","","","","","","","","","","","",""
"","","","","","image-keyboard-response","58","142857","0.0-2.0-5.0-1.18","6347481705fc940bcda1c8e1","D2","batch4","","2483.5","stim/yes_49_hor_w1_b.png","f","pattern_response","true","f","pattern_70","2483.5","true","17","","","","","","","","","","","","","","","","","","",""
"","","","","","html-keyboard-response","59","144187","0.0-2.0-5.0-0.19","6347481705fc940bcda1c8e1","D2","batch4","","null","<p class=block-text>Trial 20 out of 78</p>","null","pattern_show_trial_num","","","","","","","","","","","","","","","","","","","","","","","","",""
"","","","","","image-keyboard-response","60","144953","0.0-2.0-5.0-1.19","6347481705fc940bcda1c8e1","D2","batch4","","765.3999999761581","stim/yes_26_dia_w2_w.png","f","pattern_response","true","f","pattern_50","765.3999999761581","true","18","","","","","","","","","","","","","","","","","","",""
"","","","","","html-keyboard-response","61","146262","0.0-2.0-5.0-0.20","6347481705fc940bcda1c8e1","D2","batch4","","null","<p class=block-text>Trial 21 out of 78</p>","null","pattern_show_trial_num","","","","","","","","","","","","","","","","","","","","","","","","",""
"","","","","","image-keyboard-response","62","148781","0.0-2.0-5.0-1.20","6347481705fc940bcda1c8e1","D2","batch4","","2518","stim/no_25_1_b.png","j","pattern_response","true","j","pattern_09","2518","true","19","","","","","","","","","","","","","","","","","","",""
"","","","","","html-keyboard-response","63","150083","0.0-2.0-5.0-0.21","6347481705fc940bcda1c8e1","D2","batch4","","null","<p class=block-text>Trial 22 out of 78</p>","null","pattern_show_trial_num","","","","","","","","","","","","","","","","","","","","","","","","",""
"","","","","","image-keyboard-response","64","152922","0.0-2.0-5.0-1.21","6347481705fc940bcda1c8e1","D2","batch4","","2838.5","stim/no_28_2.png","j","pattern_response","true","j","pattern_11","2838.5","true","20","","","","","","","","","","","","","","","","","","",""
"","","","","","html-keyboard-response","65","154235","0.0-2.0-5.0-0.22","6347481705fc940bcda1c8e1","D2","batch4","","null","<p class=block-text>Trial 23 out of 78</p>","null","pattern_show_trial_num","","","","","","","","","","","","","","","","","","","","","","","","",""
"","","","","","image-keyboard-response","66","159015","0.0-2.0-5.0-1.22","6347481705fc940bcda1c8e1","D2","batch4","","4778.299999952316","stim/yes_51_dia_b1.png","f","pattern_response","true","f","pattern_72","4778.299999952316","true","21","","","","","","","","","","","","","","","","","","",""
"","","","","","html-keyboard-response","67","160342","0.0-2.0-5.0-0.23","6347481705fc940bcda1c8e1","D2","batch4","","null","<p class=block-text>Trial 24 out of 78</p>","null","pattern_show_trial_num","","","","","","","","","","","","","","","","","","","","","","","","",""
"","","","","","image-keyboard-response","68","161328","0.0-2.0-5.0-1.23","6347481705fc940bcda1c8e1","D2","batch4","","985.6000000238419","stim/no_18_1_b.png","j","pattern_response","true","j","pattern_05","985.6000000238419","true","22","","","","","","","","","","","","","","","","","","",""
"","","","","","html-keyboard-response","69","162644","0.0-2.0-5.0-0.24","6347481705fc940bcda1c8e1","D2","batch4","","null","<p class=block-text>Trial 25 out of 78</p>","null","pattern_show_trial_num","","","","","","","","","","","","","","","","","","","","","","","","",""
"","","","","","image-keyboard-response","70","165456","0.0-2.0-5.0-1.24","6347481705fc940bcda1c8e1","D2","batch4","","2811","stim/no_22_1_b.png","j","pattern_response","true","j","pattern_07","2811","true","23","","","","","","","","","","","","","","","","","","",""
"","","","","","html-keyboard-response","71","166779","0.0-2.0-5.0-0.25","6347481705fc940bcda1c8e1","D2","batch4","","null","<p class=block-text>Trial 26 out of 78</p>","null","pattern_show_trial_num","","","","","","","","","","","","","","","","","","","","","","","","",""
"","","","","","image-keyboard-response","72","171286","0.0-2.0-5.0-1.25","6347481705fc940bcda1c8e1","D2","batch4","","4506.399999976158","stim/no_39_1_w.png","j","pattern_response","true","j","pattern_21","4506.399999976158","true","24","","","","","","","","","","","","","","","","","","",""
"","","","","","html-keyboard-response","73","172607","0.0-2.0-5.0-0.26","6347481705fc940bcda1c8e1","D2","batch4","","null","<p class=block-text>Trial 27 out of 78</p>","null","pattern_show_trial_num","","","","","","","","","","","","","","","","","","","","","","","","",""
"","","","","","image-keyboard-response","74","173913","0.0-2.0-5.0-1.26","6347481705fc940bcda1c8e1","D2","batch4","","1304.9000000953674","stim/yes_44_ver_w1_w.png","f","pattern_response","true","f","pattern_66","1304.9000000953674","true","25","","","","","","","","","","","","","","","","","","",""
"","","","","","html-keyboard-response","75","175219","0.0-2.0-5.0-0.27","6347481705fc940bcda1c8e1","D2","batch4","","null","<p class=block-text>Trial 28 out of 78</p>","null","pattern_show_trial_num","","","","","","","","","","","","","","","","","","","","","","","","",""
"","","","","","image-keyboard-response","76","176262","0.0-2.0-5.0-1.27","6347481705fc940bcda1c8e1","D2","batch4","","1042.5","stim/yes_17_ver_b1_b.png","f","pattern_response","true","f","pattern_46","1042.5","true","26","","","","","","","","","","","","","","","","","","",""
"","","","","","html-keyboard-response","77","177572","0.0-2.0-5.0-0.28","6347481705fc940bcda1c8e1","D2","batch4","","null","<p class=block-text>Trial 29 out of 78</p>","null","pattern_show_trial_num","","","","","","","","","","","","","","","","","","","","","","","","",""
"","","","","","image-keyboard-response","78","178798","0.0-2.0-5.0-1.28","6347481705fc940bcda1c8e1","D2","batch4","","1225.0999999046326","stim/yes_33_dia_w1_w.png","f","pattern_response","true","f","pattern_56","1225.0999999046326","true","27","","","","","","","","","","","","","","","","","","",""
"","","","","","html-keyboard-response","79","180113","0.0-2.0-5.0-0.29","6347481705fc940bcda1c8e1","D2","batch4","","null","<p class=block-text>Trial 30 out of 78</p>","null","pattern_show_trial_num","","","","","","","","","","","","","","","","","","","","","","","","",""
"","","","","","image-keyboard-response","80","180792","0.0-2.0-5.0-1.29","6347481705fc940bcda1c8e1","D2","batch4","","678","stim/yes_15_dia_b1u_b.png","f","pattern_response","true","f","pattern_44","678","true","28","","","","","","","","","","","","","","","","","","",""
"","","","","","html-keyboard-response","81","182100","0.0-2.0-5.0-0.30","6347481705fc940bcda1c8e1","D2","batch4","","null","<p class=block-text>Trial 31 out of 78</p>","null","pattern_show_trial_num","","","","","","","","","","","","","","","","","","","","","","","","",""
"","","","","","image-keyboard-response","82","183656","0.0-2.0-5.0-1.30","6347481705fc940bcda1c8e1","D2","batch4","","1555.2999999523163","stim/no_30_1_b.png","j","pattern_response","true","j","pattern_13","1555.2999999523163","true","29","","","","","","","","","","","","","","","","","","",""
"","","","","","html-keyboard-response","83","184983","0.0-2.0-5.0-0.31","6347481705fc940bcda1c8e1","D2","batch4","","null","<p class=block-text>Trial 32 out of 78</p>","null","pattern_show_trial_num","","","","","","","","","","","","","","","","","","","","","","","","",""
"","","","","","image-keyboard-response","84","187560","0.0-2.0-5.0-1.31","6347481705fc940bcda1c8e1","D2","batch4","","2575.6999999284744","stim/yes_58_dia_w1_w.png","f","pattern_response","true","f","pattern_76","2575.6999999284744","true","30","","","","","","","","","","","","","","","","","","",""
"","","","","","html-keyboard-response","85","188868","0.0-2.0-5.0-0.32","6347481705fc940bcda1c8e1","D2","batch4","","null","<p class=block-text>Trial 33 out of 78</p>","null","pattern_show_trial_num","","","","","","","","","","","","","","","","","","","","","","","","",""
"","","","","","image-keyboard-response","86","191772","0.0-2.0-5.0-1.32","6347481705fc940bcda1c8e1","D2","batch4","","2902.6999999284744","stim/no_37_2_w.png","j","pattern_response","true","j","pattern_19","2902.6999999284744","true","31","","","","","","","","","","","","","","","","","","",""
"","","","","","html-keyboard-response","87","193077","0.0-2.0-5.0-0.33","6347481705fc940bcda1c8e1","D2","batch4","","null","<p class=block-text>Trial 34 out of 78</p>","null","pattern_show_trial_num","","","","","","","","","","","","","","","","","","","","","","","","",""
"","","","","","image-keyboard-response","88","195282","0.0-2.0-5.0-1.33","6347481705fc940bcda1c8e1","D2","batch4","","2203.600000023842","stim/no_51_1.png","j","pattern_response","true","j","pattern_31","2203.600000023842","true","32","","","","","","","","","","","","","","","","","","",""
"","","","","","html-keyboard-response","89","196608","0.0-2.0-5.0-0.34","6347481705fc940bcda1c8e1","D2","batch4","","null","<p class=block-text>Trial 35 out of 78</p>","null","pattern_show_trial_num","","","","","","","","","","","","","","","","","","","","","","","","",""
"","","","","","image-keyboard-response","90","197310","0.0-2.0-5.0-1.34","6347481705fc940bcda1c8e1","D2","batch4","","700.3999999761581","stim/yes_29_hor_b1_b.png","f","pattern_response","true","f","pattern_52","700.3999999761581","true","33","","","","","","","","","","","","","","","","","","",""
"","","","","","html-keyboard-response","91","198628","0.0-2.0-5.0-0.35","6347481705fc940bcda1c8e1","D2","batch4","","null","<p class=block-text>Trial 36 out of 78</p>","null","pattern_show_trial_num","","","","","","","","","","","","","","","","","","","","","","","","",""
"","","","","","image-keyboard-response","92","201367","0.0-2.0-5.0-1.35","6347481705fc940bcda1c8e1","D2","batch4","","2737.899999976158","stim/no_45_1_w.png","j","pattern_response","true","j","pattern_25","2737.899999976158","true","34","","","","","","","","","","","","","","","","","","",""
"","","","","","html-keyboard-response","93","202682","0.0-2.0-5.0-0.36","6347481705fc940bcda1c8e1","D2","batch4","","null","<p class=block-text>Trial 37 out of 78</p>","null","pattern_show_trial_num","","","","","","","","","","","","","","","","","","","","","","","","",""
"","","","","","image-keyboard-response","94","203436","0.0-2.0-5.0-1.36","6347481705fc940bcda1c8e1","D2","batch4","","752.1999999284744","stim/yes_53_ver_b1_b.png","f","pattern_response","true","f","pattern_74","752.1999999284744","true","35","","","","","","","","","","","","","","","","","","",""
"","","","","","html-keyboard-response","95","204740","0.0-2.0-5.0-0.37","6347481705fc940bcda1c8e1","D2","batch4","","null","<p class=block-text>Trial 38 out of 78</p>","null","pattern_show_trial_num","","","","","","","","","","","","","","","","","","","","","","","","",""
"","","","","","image-keyboard-response","96","205474","0.0-2.0-5.0-1.37","6347481705fc940bcda1c8e1","D2","batch4","","732.8999999761581","stim/yes_37_hor_w1_w.png","f","pattern_response","true","f","pattern_60","732.8999999761581","true","36","","","","","","","","","","","","","","","","","","",""
"","","","","","html-keyboard-response","97","206788","0.0-2.0-5.0-0.38","6347481705fc940bcda1c8e1","D2","batch4","","null","<p class=block-text>Trial 39 out of 78</p>","null","pattern_show_trial_num","","","","","","","","","","","","","","","","","","","","","","","","",""
"","","","","","image-keyboard-response","98","207739","0.0-2.0-5.0-1.38","6347481705fc940bcda1c8e1","D2","batch4","","949.7999999523163","stim/yes_30_ver_b1_b.png","f","pattern_response","true","f","pattern_54","949.7999999523163","true","37","","","","","","","","","","","","","","","","","","",""
"","","","","","image-keyboard-response","99","209789","0.0-2.0-6.0","6347481705fc940bcda1c8e1","D2","batch4","","1538.3000000715256","stim/empty_board.png","j","attention_check","true","j","","","","","500","[""f"",""j""]","","","","","","","","","","","","","","","","",""
"","","","","","html-keyboard-response","100","210593","0.0-2.0-7.0-0.0","6347481705fc940bcda1c8e1","D2","batch4","","null","<p class=block-text>Trial 40 out of 78</p>","null","pattern_show_trial_num","","","","","","","","","","","","","","","","","","","","","","","","",""
"","","","","","image-keyboard-response","101","211907","0.0-2.0-7.0-1.0","6347481705fc940bcda1c8e1","D2","batch4","","1312.6000000238419","stim/yes_60_ver_b1_b.png","f","pattern_response","true","f","pattern_77","1312.6000000238419","true","38","","","","","","","","","","","","","","","","","","",""
"","","","","","html-keyboard-response","102","213232","0.0-2.0-7.0-0.1","6347481705fc940bcda1c8e1","D2","batch4","","null","<p class=block-text>Trial 41 out of 78</p>","null","pattern_show_trial_num","","","","","","","","","","","","","","","","","","","","","","","","",""
"","","","","","image-keyboard-response","103","214064","0.0-2.0-7.0-1.1","6347481705fc940bcda1c8e1","D2","batch4","","830.6000000238419","stim/yes_67_hor_b1.png","f","pattern_response","true","f","pattern_79","830.6000000238419","true","39","","","","","","","","","","","","","","","","","","",""
"","","","","","html-keyboard-response","104","215380","0.0-2.0-7.0-0.2","6347481705fc940bcda1c8e1","D2","batch4","","null","<p class=block-text>Trial 42 out of 78</p>","null","pattern_show_trial_num","","","","","","","","","","","","","","","","","","","","","","","","",""
"","","","","","image-keyboard-response","105","217377","0.0-2.0-7.0-1.2","6347481705fc940bcda1c8e1","D2","batch4","","1992.5","stim/yes_31_hor_b1.png","f","pattern_response","true","f","pattern_55","1992.5","true","40","","","","","","","","","","","","","","","","","","",""
"","","","","","html-keyboard-response","106","218687","0.0-2.0-7.0-0.3","6347481705fc940bcda1c8e1","D2","batch4","","null","<p class=block-text>Trial 43 out of 78</p>","null","pattern_show_trial_num","","","","","","","","","","","","","","","","","","","","","","","","",""
"","","","","","image-keyboard-response","107","221942","0.0-2.0-7.0-1.3","6347481705fc940bcda1c8e1","D2","batch4","","3253.2000000476837","stim/no_50_1.png","j","pattern_response","true","j","pattern_30","3253.2000000476837","true","41","","","","","","","","","","","","","","","","","","",""
"","","","","","html-keyboard-response","108","223253","0.0-2.0-7.0-0.4","6347481705fc940bcda1c8e1","D2","batch4","","null","<p class=block-text>Trial 44 out of 78</p>","null","pattern_show_trial_num","","","","","","","","","","","","","","","","","","","","","","","","",""
"","","","","","image-keyboard-response","109","225142","0.0-2.0-7.0-1.4","6347481705fc940bcda1c8e1","D2","batch4","","1887","stim/yes_38_hor_b1_b.png","f","pattern_response","true","f","pattern_61","1887","true","42","","","","","","","","","","","","","","","","","","",""
"","","","","","html-keyboard-response","110","226448","0.0-2.0-7.0-0.5","6347481705fc940bcda1c8e1","D2","batch4","","null","<p class=block-text>Trial 45 out of 78</p>","null","pattern_show_trial_num","","","","","","","","","","","","","","","","","","","","","","","","",""
"","","","","","image-keyboard-response","111","228911","0.0-2.0-7.0-1.5","6347481705fc940bcda1c8e1","D2","batch4","","2461.399999976158","stim/no_48_1_w.png","j","pattern_response","true","j","pattern_28","2461.399999976158","true","43","","","","","","","","","","","","","","","","","","",""
"","","","","","html-keyboard-response","112","230222","0.0-2.0-7.0-0.6","6347481705fc940bcda1c8e1","D2","batch4","","null","<p class=block-text>Trial 46 out of 78</p>","null","pattern_show_trial_num","","","","","","","","","","","","","","","","","","","","","","","","",""
"","","","","","image-keyboard-response","113","231413","0.0-2.0-7.0-1.6","6347481705fc940bcda1c8e1","D2","batch4","","1190.2000000476837","stim/yes_43_ver_w1_w.png","f","pattern_response","true","f","pattern_65","1190.2000000476837","true","44","","","","","","","","","","","","","","","","","","",""
"","","","","","html-keyboard-response","114","232719","0.0-2.0-7.0-0.7","6347481705fc940bcda1c8e1","D2","batch4","","null","<p class=block-text>Trial 47 out of 78</p>","null","pattern_show_trial_num","","","","","","","","","","","","","","","","","","","","","","","","",""
"","","","","","image-keyboard-response","115","234596","0.0-2.0-7.0-1.7","6347481705fc940bcda1c8e1","D2","batch4","","1875.9000000953674","stim/yes_40_dia_b1_b.png","f","pattern_response","true","f","pattern_63","1875.9000000953674","true","45","","","","","","","","","","","","","","","","","","",""
"","","","","","html-keyboard-response","116","235911","0.0-2.0-7.0-0.8","6347481705fc940bcda1c8e1","D2","batch4","","null","<p class=block-text>Trial 48 out of 78</p>","null","pattern_show_trial_num","","","","","","","","","","","","","","","","","","","","","","","","",""
"","","","","","image-keyboard-response","117","237292","0.0-2.0-7.0-1.8","6347481705fc940bcda1c8e1","D2","batch4","","1380.5999999046326","stim/no_26_1_w.png","j","pattern_response","true","j","pattern_10","1380.5999999046326","true","46","","","","","","","","","","","","","","","","","","",""
"","","","","","html-keyboard-response","118","238602","0.0-2.0-7.0-0.9","6347481705fc940bcda1c8e1","D2","batch4","","null","<p class=block-text>Trial 49 out of 78</p>","null","pattern_show_trial_num","","","","","","","","","","","","","","","","","","","","","","","","",""
"","","","","","image-keyboard-response","119","239848","0.0-2.0-7.0-1.9","6347481705fc940bcda1c8e1","D2","batch4","","1244.3999999761581","stim/yes_55_hor_w1_w.png","f","pattern_response","true","f","pattern_75","1244.3999999761581","true","47","","","","","","","","","","","","","","","","","","",""
"","","","","","html-keyboard-response","120","241165","0.0-2.0-7.0-0.10","6347481705fc940bcda1c8e1","D2","batch4","","null","<p class=block-text>Trial 50 out of 78</p>","null","pattern_show_trial_num","","","","","","","","","","","","","","","","","","","","","","","","",""
"","","","","","image-keyboard-response","121","242277","0.0-2.0-7.0-1.10","6347481705fc940bcda1c8e1","D2","batch4","","1110.8000000715256","stim/no_20_1_w.png","j","pattern_response","true","j","pattern_06","1110.8000000715256","true","48","","","","","","","","","","","","","","","","","","",""
"","","","","","html-keyboard-response","122","243596","0.0-2.0-7.0-0.11","6347481705fc940bcda1c8e1","D2","batch4","","null","<p class=block-text>Trial 51 out of 78</p>","null","pattern_show_trial_num","","","","","","","","","","","","","","","","","","","","","","","","",""
"","","","","","image-keyboard-response","123","244294","0.0-2.0-7.0-1.11","6347481705fc940bcda1c8e1","D2","batch4","","697.8000000715256","stim/yes_25_hor_b1_b.png","f","pattern_response","true","f","pattern_49","697.8000000715256","true","49","","","","","","","","","","","","","","","","","","",""
"","","","","","html-keyboard-response","124","245608","0.0-2.0-7.0-0.12","6347481705fc940bcda1c8e1","D2","batch4","","null","<p class=block-text>Trial 52 out of 78</p>","null","pattern_show_trial_num","","","","","","","","","","","","","","","","","","","","","","","","",""
"","","","","","image-keyboard-response","125","248816","0.0-2.0-7.0-1.12","6347481705fc940bcda1c8e1","D2","batch4","","3207.399999976158","stim/no_52_1.png","j","pattern_response","true","j","pattern_32","3207.399999976158","true","50","","","","","","","","","","","","","","","","","","",""
"","","","","","html-keyboard-response","126","250128","0.0-2.0-7.0-0.13","6347481705fc940bcda1c8e1","D2","batch4","","null","<p class=block-text>Trial 53 out of 78</p>","null","pattern_show_trial_num","","","","","","","","","","","","","","","","","","","","","","","","",""
"","","","","","image-keyboard-response","127","251284","0.0-2.0-7.0-1.13","6347481705fc940bcda1c8e1","D2","batch4","","1154.6999999284744","stim/yes_52_ver_w1.png","f","pattern_response","true","f","pattern_73","1154.6999999284744","true","51","","","","","","","","","","","","","","","","","","",""
"","","","","","html-keyboard-response","128","252610","0.0-2.0-7.0-0.14","6347481705fc940bcda1c8e1","D2","batch4","","null","<p class=block-text>Trial 54 out of 78</p>","null","pattern_show_trial_num","","","","","","","","","","","","","","","","","","","","","","","","",""
"","","","","","image-keyboard-response","129","255844","0.0-2.0-7.0-1.14","6347481705fc940bcda1c8e1","D2","batch4","","3231.899999976158","stim/no_65_1_b.png","j","pattern_response","true","j","pattern_38","3231.899999976158","true","52","","","","","","","","","","","","","","","","","","",""
"","","","","","html-keyboard-response","130","257161","0.0-2.0-7.0-0.15","6347481705fc940bcda1c8e1","D2","batch4","","null","<p class=block-text>Trial 55 out of 78</p>","null","pattern_show_trial_num","","","","","","","","","","","","","","","","","","","","","","","","",""
"","","","","","image-keyboard-response","131","262730","0.0-2.0-7.0-1.15","6347481705fc940bcda1c8e1","D2","batch4","","5567.100000023842","stim/yes_48_dia_w1_w.png","j","pattern_response","false","f","pattern_69","5567.100000023842","false","52","","","","","","","","","","","","","","","","","","",""
"","","","","","html-keyboard-response","132","264036","0.0-2.0-7.0-0.16","6347481705fc940bcda1c8e1","D2","batch4","","null","<p class=block-text>Trial 56 out of 78</p>","null","pattern_show_trial_num","","","","","","","","","","","","","","","","","","","","","","","","",""
"","","","","","image-keyboard-response","133","266566","0.0-2.0-7.0-1.16","6347481705fc940bcda1c8e1","D2","batch4","","2529","stim/no_34_1_b.png","j","pattern_response","true","j","pattern_16","2529","true","53","","","","","","","","","","","","","","","","","","",""
"","","","","","html-keyboard-response","134","267880","0.0-2.0-7.0-0.17","6347481705fc940bcda1c8e1","D2","batch4","","null","<p class=block-text>Trial 57 out of 78</p>","null","pattern_show_trial_num","","","","","","","","","","","","","","","","","","","","","","","","",""
"","","","","","image-keyboard-response","135","269996","0.0-2.0-7.0-1.17","6347481705fc940bcda1c8e1","D2","batch4","","2114","stim/no_17_1_w.png","j","pattern_response","true","j","pattern_04","2114","true","54","","","","","","","","","","","","","","","","","","",""
"","","","","","html-keyboard-response","136","271311","0.0-2.0-7.0-0.18","6347481705fc940bcda1c8e1","D2","batch4","","null","<p class=block-text>Trial 58 out of 78</p>","null","pattern_show_trial_num","","","","","","","","","","","","","","","","","","","","","","","","",""
"","","","","","image-keyboard-response","137","275966","0.0-2.0-7.0-1.18","6347481705fc940bcda1c8e1","D2","batch4","","4653.399999976158","stim/no_36_2_w.png","j","pattern_response","true","j","pattern_18","4653.399999976158","true","55","","","","","","","","","","","","","","","","","","",""
"","","","","","html-keyboard-response","138","277283","0.0-2.0-7.0-0.19","6347481705fc940bcda1c8e1","D2","batch4","","null","<p class=block-text>Trial 59 out of 78</p>","null","pattern_show_trial_num","","","","","","","","","","","","","","","","","","","","","","","","",""
"","","","","","image-keyboard-response","139","280117","0.0-2.0-7.0-1.19","6347481705fc940bcda1c8e1","D2","batch4","","2831.7000000476837","stim/no_42_1_w.png","j","pattern_response","true","j","pattern_22","2831.7000000476837","true","56","","","","","","","","","","","","","","","","","","",""
"","","","","","html-keyboard-response","140","281422","0.0-2.0-7.0-0.20","6347481705fc940bcda1c8e1","D2","batch4","","null","<p class=block-text>Trial 60 out of 78</p>","null","pattern_show_trial_num","","","","","","","","","","","","","","","","","","","","","","","","",""
"","","","","","image-keyboard-response","141","282413","0.0-2.0-7.0-1.20","6347481705fc940bcda1c8e1","D2","batch4","","989.8999999761581","stim/yes_28_ver_b1.png","f","pattern_response","true","f","pattern_51","989.8999999761581","true","57","","","","","","","","","","","","","","","","","","",""
"","","","","","html-keyboard-response","142","283718","0.0-2.0-7.0-0.21","6347481705fc940bcda1c8e1","D2","batch4","","null","<p class=block-text>Trial 61 out of 78</p>","null","pattern_show_trial_num","","","","","","","","","","","","","","","","","","","","","","","","",""
"","","","","","image-keyboard-response","143","284801","0.0-2.0-7.0-1.21","6347481705fc940bcda1c8e1","D2","batch4","","1082.2999999523163","stim/yes_35_dia_b1.png","f","pattern_response","true","f","pattern_57","1082.2999999523163","true","58","","","","","","","","","","","","","","","","","","",""
"","","","","","html-keyboard-response","144","286120","0.0-2.0-7.0-0.22","6347481705fc940bcda1c8e1","D2","batch4","","null","<p class=block-text>Trial 62 out of 78</p>","null","pattern_show_trial_num","","","","","","","","","","","","","","","","","","","","","","","","",""
"","","","","","image-keyboard-response","145","286781","0.0-2.0-7.0-1.22","6347481705fc940bcda1c8e1","D2","batch4","","660.5","stim/yes_14_hor_b1_w.png","f","pattern_response","true","f","pattern_43","660.5","true","59","","","","","","","","","","","","","","","","","","",""
"","","","","","html-keyboard-response","146","288095","0.0-2.0-7.0-0.23","6347481705fc940bcda1c8e1","D2","batch4","","null","<p class=block-text>Trial 63 out of 78</p>","null","pattern_show_trial_num","","","","","","","","","","","","","","","","","","","","","","","","",""
"","","","","","image-keyboard-response","147","290605","0.0-2.0-7.0-1.23","6347481705fc940bcda1c8e1","D2","batch4","","2508.7999999523163","stim/no_46_1_b.png","j","pattern_response","true","j","pattern_26","2508.7999999523163","true","60","","","","","","","","","","","","","","","","","","",""
"","","","","","html-keyboard-response","148","291916","0.0-2.0-7.0-0.24","6347481705fc940bcda1c8e1","D2","batch4","","null","<p class=block-text>Trial 64 out of 78</p>","null","pattern_show_trial_num","","","","","","","","","","","","","","","","","","","","","","","","",""
"","","","","","image-keyboard-response","149","296403","0.0-2.0-7.0-1.24","6347481705fc940bcda1c8e1","D2","batch4","","4485.799999952316","stim/no_62_1_w.png","j","pattern_response","true","j","pattern_36","4485.799999952316","true","61","","","","","","","","","","","","","","","","","","",""
"","","","","","html-keyboard-response","150","297717","0.0-2.0-7.0-0.25","6347481705fc940bcda1c8e1","D2","batch4","","null","<p class=block-text>Trial 65 out of 78</p>","null","pattern_show_trial_num","","","","","","","","","","","","","","","","","","","","","","","","",""
"","","","","","image-keyboard-response","151","300910","0.0-2.0-7.0-1.25","6347481705fc940bcda1c8e1","D2","batch4","","3190.9000000953674","stim/no_55_1_w.png","j","pattern_response","true","j","pattern_34","3190.9000000953674","true","62","","","","","","","","","","","","","","","","","","",""
"","","","","","html-keyboard-response","152","302220","0.0-2.0-7.0-0.26","6347481705fc940bcda1c8e1","D2","batch4","","null","<p class=block-text>Trial 66 out of 78</p>","null","pattern_show_trial_num","","","","","","","","","","","","","","","","","","","","","","","","",""
"","","","","","image-keyboard-response","153","304806","0.0-2.0-7.0-1.26","6347481705fc940bcda1c8e1","D2","batch4","","2585","stim/yes_37_dia_w1.png","j","pattern_response","false","f","pattern_59","2585","false","62","","","","","","","","","","","","","","","","","","",""
"","","","","","html-keyboard-response","154","306127","0.0-2.0-7.0-0.27","6347481705fc940bcda1c8e1","D2","batch4","","null","<p class=block-text>Trial 67 out of 78</p>","null","pattern_show_trial_num","","","","","","","","","","","","","","","","","","","","","","","","",""
"","","","","","image-keyboard-response","155","312782","0.0-2.0-7.0-1.27","6347481705fc940bcda1c8e1","D2","batch4","","6653.5","stim/no_70_2.png","j","pattern_response","true","j","pattern_40","6653.5","true","63","","","","","","","","","","","","","","","","","","",""
"","","","","","html-keyboard-response","156","314110","0.0-2.0-7.0-0.28","6347481705fc940bcda1c8e1","D2","batch4","","null","<p class=block-text>Trial 68 out of 78</p>","null","pattern_show_trial_num","","","","","","","","","","","","","","","","","","","","","","","","",""
"","","","","","image-keyboard-response","157","316084","0.0-2.0-7.0-1.28","6347481705fc940bcda1c8e1","D2","batch4","","1972.7000000476837","stim/no_23_1.png","j","pattern_response","true","j","pattern_08","1972.7000000476837","true","64","","","","","","","","","","","","","","","","","","",""
"","","","","","html-keyboard-response","158","317406","0.0-2.0-7.0-0.29","6347481705fc940bcda1c8e1","D2","batch4","","null","<p class=block-text>Trial 69 out of 78</p>","null","pattern_show_trial_num","","","","","","","","","","","","","","","","","","","","","","","","",""
"","","","","","image-keyboard-response","159","318213","0.0-2.0-7.0-1.29","6347481705fc940bcda1c8e1","D2","batch4","","805.2000000476837","stim/no_13_2_b.png","j","pattern_response","true","j","pattern_02","805.2000000476837","true","65","","","","","","","","","","","","","","","","","","",""
"","","","","","html-keyboard-response","160","319530","0.0-2.0-7.0-0.30","6347481705fc940bcda1c8e1","D2","batch4","","null","<p class=block-text>Trial 70 out of 78</p>","null","pattern_show_trial_num","","","","","","","","","","","","","","","","","","","","","","","","",""
"","","","","","image-keyboard-response","161","322452","0.0-2.0-7.0-1.30","6347481705fc940bcda1c8e1","D2","batch4","","2920.4000000953674","stim/no_44_1.png","j","pattern_response","true","j","pattern_24","2920.4000000953674","true","66","","","","","","","","","","","","","","","","","","",""
"","","","","","html-keyboard-response","162","323758","0.0-2.0-7.0-0.31","6347481705fc940bcda1c8e1","D2","batch4","","null","<p class=block-text>Trial 71 out of 78</p>","null","pattern_show_trial_num","","","","","","","","","","","","","","","","","","","","","","","","",""
"","","","","","image-keyboard-response","163","325912","0.0-2.0-7.0-1.31","6347481705fc940bcda1c8e1","D2","batch4","","2153.0999999046326","stim/yes_17_dia_w1.png","f","pattern_response","true","f","pattern_45","2153.0999999046326","true","67","","","","","","","","","","","","","","","","","","",""
"","","","","","html-keyboard-response","164","327234","0.0-2.0-7.0-0.32","6347481705fc940bcda1c8e1","D2","batch4","","null","<p class=block-text>Trial 72 out of 78</p>","null","pattern_show_trial_num","","","","","","","","","","","","","","","","","","","","","","","","",""
"","","","","","image-keyboard-response","165","328462","0.0-2.0-7.0-1.32","6347481705fc940bcda1c8e1","D2","batch4","","1226.1000000238419","stim/yes_29_ver_w1.png","f","pattern_response","true","f","pattern_53","1226.1000000238419","true","68","","","","","","","","","","","","","","","","","","",""
"","","","","","html-keyboard-response","166","329770","0.0-2.0-7.0-0.33","6347481705fc940bcda1c8e1","D2","batch4","","null","<p class=block-text>Trial 73 out of 78</p>","null","pattern_show_trial_num","","","","","","","","","","","","","","","","","","","","","","","","",""
"","","","","","image-keyboard-response","167","331776","0.0-2.0-7.0-1.33","6347481705fc940bcda1c8e1","D2","batch4","","2004.2999999523163","stim/yes_50_dia_w1.png","j","pattern_response","false","f","pattern_71","2004.2999999523163","false","68","","","","","","","","","","","","","","","","","","",""
"","","","","","html-keyboard-response","168","333093","0.0-2.0-7.0-0.34","6347481705fc940bcda1c8e1","D2","batch4","","null","<p class=block-text>Trial 74 out of 78</p>","null","pattern_show_trial_num","","","","","","","","","","","","","","","","","","","","","","","","",""
"","","","","","image-keyboard-response","169","336074","0.0-2.0-7.0-1.34","6347481705fc940bcda1c8e1","D2","batch4","","2979.8000000715256","stim/no_29_1_b.png","j","pattern_response","true","j","pattern_12","2979.8000000715256","true","69","","","","","","","","","","","","","","","","","","",""
"","","","","","html-keyboard-response","170","337388","0.0-2.0-7.0-0.35","6347481705fc940bcda1c8e1","D2","batch4","","null","<p class=block-text>Trial 75 out of 78</p>","null","pattern_show_trial_num","","","","","","","","","","","","","","","","","","","","","","","","",""
"","","","","","image-keyboard-response","171","339335","0.0-2.0-7.0-1.35","6347481705fc940bcda1c8e1","D2","batch4","","1945.2000000476837","stim/yes_22_ver_w1.png","f","pattern_response","true","f","pattern_47","1945.2000000476837","true","70","","","","","","","","","","","","","","","","","","",""
"","","","","","html-keyboard-response","172","340648","0.0-2.0-7.0-0.36","6347481705fc940bcda1c8e1","D2","batch4","","null","<p class=block-text>Trial 76 out of 78</p>","null","pattern_show_trial_num","","","","","","","","","","","","","","","","","","","","","","","","",""
"","","","","","image-keyboard-response","173","344222","0.0-2.0-7.0-1.36","6347481705fc940bcda1c8e1","D2","batch4","","3572.7000000476837","stim/no_38_1_b.png","j","pattern_response","true","j","pattern_20","3572.7000000476837","true","71","","","","","","","","","","","","","","","","","","",""
"","","","","","html-keyboard-response","174","345535","0.0-2.0-7.0-0.37","6347481705fc940bcda1c8e1","D2","batch4","","null","<p class=block-text>Trial 77 out of 78</p>","null","pattern_show_trial_num","","","","","","","","","","","","","","","","","","","","","","","","",""
"","","","","","image-keyboard-response","175","346841","0.0-2.0-7.0-1.37","6347481705fc940bcda1c8e1","D2","batch4","","1304.2999999523163","stim/no_32_1_w.png","j","pattern_response","true","j","pattern_14","1304.2999999523163","true","72","","","","","","","","","","","","","","","","","","",""
"","","","","","html-keyboard-response","176","348146","0.0-2.0-7.0-0.38","6347481705fc940bcda1c8e1","D2","batch4","","null","<p class=block-text>Trial 78 out of 78</p>","null","pattern_show_trial_num","","","","","","","","","","","","","","","","","","","","","","","","",""
"","","","","","image-keyboard-response","177","350507","0.0-2.0-7.0-1.38","6347481705fc940bcda1c8e1","D2","batch4","","2359.600000023842","stim/yes_45_hor_b2_b.png","f","pattern_response","true","f","pattern_67","2359.600000023842","true","73","","","","","","","","","","","","","","","","","","",""
"","","","","","html-button-response","178","359762","0.0-2.0-8.0","6347481705fc940bcda1c8e1","D2","batch4","","8744.100000023842","<p class = block-text>This concludes the 4-in-a-row detection game.Thank you for your responses!<br>
            You responded correctly on 94% of the trials.<br>
            When you are ready, press ""Continue"" button to continue </p>","0","","","","","","","","","","","","","","","","","","","","","","","","","",""
"true","","","","","fullscreen","179","362326","0.0-3.0-0.0","6347481705fc940bcda1c8e1","D2","batch4","","","","","","","","","","","","","","","","","","","","","","","","","","","","","",""
"","","","","","instructions","180","423935","0.0-3.0-1.0-0.0-0.0","6347481705fc940bcda1c8e1","D2","batch4","[{""page_index"":0,""viewing_time"":11077.200000047684},{""page_index"":1,""viewing_time"":6321.199999928474},{""page_index"":2,""viewing_time"":8656.600000023842},{""page_index"":3,""viewing_time"":12371.100000023842},{""page_index"":4,""viewing_time"":4417.799999952316},{""page_index"":5,""viewing_time"":14337},{""page_index"":6,""viewing_time"":4427.100000023842}]","61608.299999952316","","","tol-instructions","","","","","","","","","","","","","","","","","","","","","","","","",""
"","","","","","html-button-response","181","425040","0.0-3.0-1.0-1.0-0.0","6347481705fc940bcda1c8e1","D2","batch4","","1103.8999999761581","<p class=block-text> Let's answer a few questions <br>","0","tol_enter_quiz","","","","","","","","","","","","","","","","","","","","","","","","",""
"","","","","","html-button-response","182","430168","0.0-3.0-1.0-1.0-1.0","6347481705fc940bcda1c8e1","D2","batch4","","5127.199999928474","<p class = block-text>True or False: You can only move the ball on top of a peg. <br></p>","0","tol_quiz","true","","","","","","","","","","","","","","","","","","","","","","","",""
"","","","","","html-button-response","183","430975","0.0-3.0-1.0-1.0-2.0","6347481705fc940bcda1c8e1","D2","batch4","","806","<p class = block-text>Correct! You can only move the ball on top of a peg.</p>","0","tol_quiz_feedback","","","","","","","","","","","","","","","","","","","","","","","","",""
"","","","","","html-button-response","184","435991","0.0-3.0-1.0-1.0-3.0","6347481705fc940bcda1c8e1","D2","batch4","","5015.299999952316","<p class = block-text>True or False: You should try to match your board with the target board with fewest moves possible. <br></p>","0","tol_quiz","true","","","","","","","","","","","","","","","","","","","","","","","",""
"","","","","","html-button-response","185","436477","0.0-3.0-1.0-1.0-4.0","6347481705fc940bcda1c8e1","D2","batch4","","486","<p class = block-text>Correct! </p>","0","tol_quiz_feedback","","","","","","","","","","","","","","","","","","","","","","","","",""
"","","","","","html-button-response","186","439790","0.0-3.0-2.0","6347481705fc940bcda1c8e1","D2","batch4","","3311.8000000715256","<p class=block-text> Now that you've understood the game, let's practice a few easier examples before we start!<br> <br>","0","","","","","","","","","","","","","","","","","","","","","","","","","",""
"","","","","","single-stim-button","187","443545","0.0-3.0-3.0-0.0","6347481705fc940bcda1c8e1","D2","batch4","","3753","","","tol_practice","","","","","","","","","tol_peg_2","3753","3753","0","[[1,2,0],[0,0],[0]]","1","[[1,2,0],[0,0],[3]]","practice","3753","","","","","","","",""
"","","","","","single-stim-button","188","444332","0.0-3.0-3.0-1.0","6347481705fc940bcda1c8e1","D2","batch4","","785","","","tol_practice","","","","","","","","","tol_peg_3","785","785","0","[[1,2,0],[0,0],[3]]","1","[[1,2,0],[0,0],[3]]","practice","785","","","","","","","",""
"","","","","","poldrack-single-stim","189","445344","0.0-3.0-4.0","6347481705fc940bcda1c8e1","D2","batch4","","-1","","","tol_feedback","true","","","","","","","","","1000","1000","500","","","","","","-1","none","true","","0","","",""
"","","","","","single-stim-button","190","449587","0.0-3.0-5.0-0.0","6347481705fc940bcda1c8e1","D2","batch4","","4242","","","tol_practice","","","","","","","","","tol_peg_1","4242","4242","0","[[1,0,0],[3,0],[0]]","2","[[0,0,0],[3,1],[2]]","practice","4242","","","","","","","",""
"","","","","","single-stim-button","191","450354","0.0-3.0-5.0-1.0","6347481705fc940bcda1c8e1","D2","batch4","","767","","","tol_practice","","","","","","","","","tol_peg_3","767","767","0","[[1,0,0],[3,0],[2]]","2","[[0,0,0],[3,1],[2]]","practice","767","","","","","","","",""
"","","","","","single-stim-button","192","450980","0.0-3.0-5.1-0.1","6347481705fc940bcda1c8e1","D2","batch4","","625","","","tol_practice","","","","","","","","","tol_peg_1","625","625","0","[[0,0,0],[3,0],[2]]","3","[[0,0,0],[3,1],[2]]","practice","625","","","","","","","",""
"","","","","","single-stim-button","193","451394","0.0-3.0-5.1-1.1","6347481705fc940bcda1c8e1","D2","batch4","","413","","","tol_practice","","","","","","","","","tol_peg_2","413","413","0","[[0,0,0],[3,1],[2]]","3","[[0,0,0],[3,1],[2]]","practice","413","","","","","","","",""
"","","","","","poldrack-single-stim","194","452399","0.0-3.0-6.0","6347481705fc940bcda1c8e1","D2","batch4","","-1","","","tol_feedback","true","","","","","","","","","1000","1000","500","","","","","","-1","none","true","","0","","",""
"","","","","","single-stim-button","195","456287","0.0-3.0-7.0-0.0","6347481705fc940bcda1c8e1","D2","batch4","","3888","","","tol_practice","","","","","","","","","tol_peg_2","3888","3888","0","[[1,2,0],[0,0],[0]]","4","[[1,0,0],[2,0],[3]]","practice","3888","","","","","","","",""
"","","","","","single-stim-button","196","456716","0.0-3.0-7.0-1.0","6347481705fc940bcda1c8e1","D2","batch4","","428","","","tol_practice","","","","","","","","","tol_peg_3","428","428","0","[[1,2,0],[0,0],[3]]","4","[[1,0,0],[2,0],[3]]","practice","428","","","","","","","",""
"","","","","","single-stim-button","197","457230","0.0-3.0-7.1-0.1","6347481705fc940bcda1c8e1","D2","batch4","","513","","","tol_practice","","","","","","","","","tol_peg_1","513","513","0","[[1,0,0],[0,0],[3]]","5","[[1,0,0],[2,0],[3]]","practice","513","","","","","","","",""
"","","","","","single-stim-button","198","457598","0.0-3.0-7.1-1.1","6347481705fc940bcda1c8e1","D2","batch4","","367","","","tol_practice","","","","","","","","","tol_peg_2","367","367","0","[[1,0,0],[2,0],[3]]","5","[[1,0,0],[2,0],[3]]","practice","367","","","","","","","",""
"","","","","","poldrack-single-stim","199","458606","0.0-3.0-8.0","6347481705fc940bcda1c8e1","D2","batch4","","-1","","","tol_feedback","true","","","","","","","","","1000","1000","500","","","","","","-1","none","true","","0","","",""
"","","","","","html-button-response","200","463165","0.0-3.0-9.0","6347481705fc940bcda1c8e1","D2","batch4","","4558.700000047684","<div class = centerbox><p class = center-block-text>Great job! You are done with practice trials<br>You are about to start official trials.<br> <br> Problem <strong>1</strong> out of 25 problems</p></div>","0","tol_instruction","","","","","","","","","","","","","","","","","","","","","","","","",""
"","","","","","single-stim-button","201","467650","0.0-3.0-10.0-0.0","6347481705fc940bcda1c8e1","D2","batch4","","3483","","","tol_tohand","","","","","","","","","tol_peg_2","3483","3483","0","[[1,2,0],[0,0],[0]]","1","[[1,3,0],[2,0],[0]]","0","0","","","","","","3","",""
"","","","","","single-stim-button","202","468067","0.0-3.0-10.0-1.0","6347481705fc940bcda1c8e1","D2","batch4","","416","","","tol_toboard","","","","","","","","","tol_peg_3","416","416","0","[[1,2,0],[0,0],[3]]","1","[[1,3,0],[2,0],[0]]","0","0","","","","","","3","",""
"","","","","","single-stim-button","203","468554","0.0-3.0-10.1-0.1","6347481705fc940bcda1c8e1","D2","batch4","","486","","","tol_tohand","","","","","","","","","tol_peg_1","486","486","0","[[1,0,0],[0,0],[3]]","2","[[1,3,0],[2,0],[0]]","0","0","","","","","","3","",""
"","","","","","single-stim-button","204","468960","0.0-3.0-10.1-1.1","6347481705fc940bcda1c8e1","D2","batch4","","405","","","tol_toboard","","","","","","","","","tol_peg_2","405","405","0","[[1,0,0],[2,0],[3]]","2","[[1,3,0],[2,0],[0]]","0","0","","","","","","3","",""
"","","","","","single-stim-button","205","469373","0.0-3.0-10.2-0.2","6347481705fc940bcda1c8e1","D2","batch4","","412","","","tol_tohand","","","","","","","","","tol_peg_3","412","412","0","[[1,0,0],[2,0],[0]]","3","[[1,3,0],[2,0],[0]]","0","0","","","","","","3","",""
"","","","","","single-stim-button","206","469894","0.0-3.0-10.2-1.2","6347481705fc940bcda1c8e1","D2","batch4","","520","","","tol_toboard","","","","","","","","","tol_peg_1","520","520","0","[[1,3,0],[2,0],[0]]","3","[[1,3,0],[2,0],[0]]","0","0","","","","","","3","",""
"","","","","","poldrack-single-stim","207","470906","0.0-3.0-11.0","6347481705fc940bcda1c8e1","D2","batch4","","-1","","","tol_feedback","true","","","","","","","","","1000","1000","500","","","","","","-1","none","true","3483","4381","","",""
"","","","","","html-button-response","208","472823","0.0-3.0-12.0","6347481705fc940bcda1c8e1","D2","batch4","","1916.1999999284744","<div class = centerbox><p class = center-block-text>problem <strong>2</strong> out of 25 problems</p></div>","0","tol_trial_num","","","","","","","","","","","","","","","","","","","","","","","","",""
"","","","","","single-stim-button","209","475572","0.0-3.0-13.0-0.0","6347481705fc940bcda1c8e1","D2","batch4","","2749","","","tol_tohand","","","","","","","","","tol_peg_1","2749","2749","0","[[1,0,0],[3,0],[0]]","1","[[2,1,3],[0,0],[0]]","1","0","","","","","","5","",""
"","","","","","single-stim-button","210","481641","0.0-3.0-13.0-1.0","6347481705fc940bcda1c8e1","D2","batch4","","6069","","","tol_toboard","","","","","","","","","tol_peg_2","6069","6069","0","[[1,0,0],[3,2],[0]]","1","[[2,1,3],[0,0],[0]]","1","0","","","","","","5","",""
"","","","","","single-stim-button","211","482090","0.0-3.0-13.1-0.1","6347481705fc940bcda1c8e1","D2","batch4","","449","","","tol_tohand","","","","","","","","","tol_peg_1","449","449","0","[[0,0,0],[3,2],[0]]","2","[[2,1,3],[0,0],[0]]","1","0","","","","","","5","",""
"","","","","","single-stim-button","212","482606","0.0-3.0-13.1-1.1","6347481705fc940bcda1c8e1","D2","batch4","","516","","","tol_toboard","","","","","","","","","tol_peg_3","516","516","0","[[0,0,0],[3,2],[1]]","2","[[2,1,3],[0,0],[0]]","1","0","","","","","","5","",""
"","","","","","single-stim-button","213","482901","0.0-3.0-13.2-0.2","6347481705fc940bcda1c8e1","D2","batch4","","294","","","tol_tohand","","","","","","","","","tol_peg_2","294","294","0","[[0,0,0],[3,0],[1]]","3","[[2,1,3],[0,0],[0]]","1","0","","","","","","5","",""
"","","","","","single-stim-button","214","483238","0.0-3.0-13.2-1.2","6347481705fc940bcda1c8e1","D2","batch4","","337","","","tol_toboard","","","","","","","","","tol_peg_1","337","337","0","[[2,0,0],[3,0],[1]]","3","[[2,1,3],[0,0],[0]]","1","0","","","","","","5","",""
"","","","","","single-stim-button","215","483693","0.0-3.0-13.3-0.3","6347481705fc940bcda1c8e1","D2","batch4","","455","","","tol_tohand","","","","","","","","","tol_peg_3","455","455","0","[[2,0,0],[3,0],[0]]","4","[[2,1,3],[0,0],[0]]","1","0","","","","","","5","",""
"","","","","","single-stim-button","216","484127","0.0-3.0-13.3-1.3","6347481705fc940bcda1c8e1","D2","batch4","","434","","","tol_toboard","","","","","","","","","tol_peg_1","434","434","0","[[2,1,0],[3,0],[0]]","4","[[2,1,3],[0,0],[0]]","1","0","","","","","","5","",""
"","","","","","single-stim-button","217","484532","0.0-3.0-13.4-0.4","6347481705fc940bcda1c8e1","D2","batch4","","404","","","tol_tohand","","","","","","","","","tol_peg_2","404","404","0","[[2,1,0],[0,0],[0]]","5","[[2,1,3],[0,0],[0]]","1","0","","","","","","5","",""
"","","","","","single-stim-button","218","484858","0.0-3.0-13.4-1.4","6347481705fc940bcda1c8e1","D2","batch4","","326","","","tol_toboard","","","","","","","","","tol_peg_1","326","326","0","[[2,1,3],[0,0],[0]]","5","[[2,1,3],[0,0],[0]]","1","0","","","","","","5","",""
"","","","","","poldrack-single-stim","219","485873","0.0-3.0-14.0","6347481705fc940bcda1c8e1","D2","batch4","","-1","","","tol_feedback","true","","","","","","","","","1000","1000","500","","","","","","-1","none","true","2749","4351","","",""
"","","","","","html-button-response","220","486768","0.0-3.0-15.0","6347481705fc940bcda1c8e1","D2","batch4","","894.5","<div class = centerbox><p class = center-block-text>problem <strong>3</strong> out of 25 problems</p></div>","0","tol_trial_num","","","","","","","","","","","","","","","","","","","","","","","","",""
"","","","","","single-stim-button","221","488565","0.0-3.0-16.0-0.0","6347481705fc940bcda1c8e1","D2","batch4","","1797","","","tol_tohand","","","","","","","","","tol_peg_1","1797","1797","0","[[2,0,0],[0,0],[1]]","1","[[1,2,0],[3,0],[0]]","2","0","","","","","","4","",""
"","","","","","single-stim-button","222","490249","0.0-3.0-16.0-1.0","6347481705fc940bcda1c8e1","D2","batch4","","1683","","","tol_toboard","","","","","","","","","tol_peg_2","1683","1683","0","[[2,0,0],[3,0],[1]]","1","[[1,2,0],[3,0],[0]]","2","0","","","","","","4","",""
"","","","","","single-stim-button","223","490846","0.0-3.0-16.1-0.1","6347481705fc940bcda1c8e1","D2","batch4","","597","","","tol_tohand","","","","","","","","","tol_peg_2","597","597","0","[[2,0,0],[0,0],[1]]","2","[[1,2,0],[3,0],[0]]","2","0","","","","","","4","",""
"","","","","","single-stim-button","224","491557","0.0-3.0-16.1-1.1","6347481705fc940bcda1c8e1","D2","batch4","","710","","","tol_toboard","","","","","","","","","tol_peg_2","710","710","0","[[2,0,0],[3,0],[1]]","2","[[1,2,0],[3,0],[0]]","2","0","","","","","","4","",""
"","","","","","single-stim-button","225","491968","0.0-3.0-16.2-0.2","6347481705fc940bcda1c8e1","D2","batch4","","411","","","tol_tohand","","","","","","","","","tol_peg_1","411","411","0","[[0,0,0],[3,0],[1]]","3","[[1,2,0],[3,0],[0]]","2","0","","","","","","4","",""
"","","","","","single-stim-button","226","492356","0.0-3.0-16.2-1.2","6347481705fc940bcda1c8e1","D2","batch4","","388","","","tol_toboard","","","","","","","","","tol_peg_2","388","388","0","[[0,0,0],[3,2],[1]]","3","[[1,2,0],[3,0],[0]]","2","0","","","","","","4","",""
"","","","","","single-stim-button","227","492783","0.0-3.0-16.3-0.3","6347481705fc940bcda1c8e1","D2","batch4","","427","","","tol_tohand","","","","","","","","","tol_peg_3","427","427","0","[[0,0,0],[3,2],[0]]","4","[[1,2,0],[3,0],[0]]","2","0","","","","","","4","",""
"","","","","","single-stim-button","228","493290","0.0-3.0-16.3-1.3","6347481705fc940bcda1c8e1","D2","batch4","","507","","","tol_toboard","","","","","","","","","tol_peg_1","507","507","0","[[1,0,0],[3,2],[0]]","4","[[1,2,0],[3,0],[0]]","2","0","","","","","","4","",""
"","","","","","single-stim-button","229","494371","0.0-3.0-16.4-0.4","6347481705fc940bcda1c8e1","D2","batch4","","1081","","","tol_tohand","","","","","","","","","tol_peg_2","1081","1081","0","[[1,0,0],[3,0],[0]]","5","[[1,2,0],[3,0],[0]]","2","0","","","","","","4","",""
"","","","","","single-stim-button","230","494779","0.0-3.0-16.4-1.4","6347481705fc940bcda1c8e1","D2","batch4","","408","","","tol_toboard","","","","","","","","","tol_peg_1","408","408","0","[[1,2,0],[3,0],[0]]","5","[[1,2,0],[3,0],[0]]","2","0","","","","","","4","",""
"","","","","","poldrack-single-stim","231","495781","0.0-3.0-17.0","6347481705fc940bcda1c8e1","D2","batch4","","-1","","","tol_feedback","true","","","","","","","","","1000","1000","500","","","","","","-1","none","true","1797","4313","","",""
"","","","","","html-button-response","232","496637","0.0-3.0-18.0","6347481705fc940bcda1c8e1","D2","batch4","","855.3999999761581","<div class = centerbox><p class = center-block-text>problem <strong>4</strong> out of 25 problems</p></div>","0","tol_trial_num","","","","","","","","","","","","","","","","","","","","","","","","",""
"","","","","","single-stim-button","233","499727","0.0-3.0-19.0-0.0","6347481705fc940bcda1c8e1","D2","batch4","","3088","","","tol_tohand","","","","","","","","","tol_peg_2","3088","3088","0","[[3,0,0],[2,0],[0]]","1","[[3,0,0],[1,0],[2]]","3","0","","","","","","3","",""
"","","","","","single-stim-button","234","500110","0.0-3.0-19.0-1.0","6347481705fc940bcda1c8e1","D2","batch4","","383","","","tol_toboard","","","","","","","","","tol_peg_1","383","383","0","[[3,1,0],[2,0],[0]]","1","[[3,0,0],[1,0],[2]]","3","0","","","","","","3","",""
"","","","","","single-stim-button","235","500412","0.0-3.0-19.1-0.1","6347481705fc940bcda1c8e1","D2","batch4","","301","","","tol_tohand","","","","","","","","","tol_peg_2","301","301","0","[[3,1,0],[0,0],[0]]","2","[[3,0,0],[1,0],[2]]","3","0","","","","","","3","",""
"","","","","","single-stim-button","236","500731","0.0-3.0-19.1-1.1","6347481705fc940bcda1c8e1","D2","batch4","","317","","","tol_toboard","","","","","","","","","tol_peg_3","317","317","0","[[3,1,0],[0,0],[2]]","2","[[3,0,0],[1,0],[2]]","3","0","","","","","","3","",""
"","","","","","single-stim-button","237","501157","0.0-3.0-19.2-0.2","6347481705fc940bcda1c8e1","D2","batch4","","426","","","tol_tohand","","","","","","","","","tol_peg_1","426","426","0","[[3,0,0],[0,0],[2]]","3","[[3,0,0],[1,0],[2]]","3","0","","","","","","3","",""
"","","","","","single-stim-button","238","501517","0.0-3.0-19.2-1.2","6347481705fc940bcda1c8e1","D2","batch4","","360","","","tol_toboard","","","","","","","","","tol_peg_2","360","360","0","[[3,0,0],[1,0],[2]]","3","[[3,0,0],[1,0],[2]]","3","0","","","","","","3","",""
"","","","","","poldrack-single-stim","239","502518","0.0-3.0-20.0","6347481705fc940bcda1c8e1","D2","batch4","","-1","","","tol_feedback","true","","","","","","","","","1000","1000","500","","","","","","-1","none","true","3088","3815","","",""
"","","","","","html-button-response","240","503175","0.0-3.0-21.0","6347481705fc940bcda1c8e1","D2","batch4","","656.1999999284744","<div class = centerbox><p class = center-block-text>problem <strong>5</strong> out of 25 problems</p></div>","0","tol_trial_num","","","","","","","","","","","","","","","","","","","","","","","","",""
"","","","","","single-stim-button","241","506183","0.0-3.0-22.0-0.0","6347481705fc940bcda1c8e1","D2","batch4","","3007","","","tol_tohand","","","","","","","","","tol_peg_2","3007","3007","0","[[1,0,0],[0,0],[3]]","1","[[0,0,0],[1,2],[3]]","4","0","","","","","","7","",""
"","","","","","single-stim-button","242","510425","0.0-3.0-22.0-1.0","6347481705fc940bcda1c8e1","D2","batch4","","4242","","","tol_toboard","","","","","","","","","tol_peg_2","4242","4242","0","[[1,0,0],[2,0],[3]]","1","[[0,0,0],[1,2],[3]]","4","0","","","","","","7","",""
"","","","","","single-stim-button","243","512958","0.0-3.0-22.1-0.1","6347481705fc940bcda1c8e1","D2","batch4","","2532","","","tol_tohand","","","","","","","","","tol_peg_3","2532","2532","0","[[1,0,0],[2,0],[0]]","2","[[0,0,0],[1,2],[3]]","4","0","","","","","","7","",""
"","","","","","single-stim-button","244","514600","0.0-3.0-22.1-1.1","6347481705fc940bcda1c8e1","D2","batch4","","1642","","","tol_toboard","","","","","","","","","tol_peg_3","1642","1642","0","[[1,0,0],[2,0],[3]]","2","[[0,0,0],[1,2],[3]]","4","0","","","","","","7","",""
"","","","","","single-stim-button","245","518720","0.0-3.0-22.2-0.2","6347481705fc940bcda1c8e1","D2","batch4","","4119","","","tol_tohand","","","","","","","","","tol_peg_3","4119","4119","0","[[1,0,0],[2,0],[0]]","3","[[0,0,0],[1,2],[3]]","4","0","","","","","","7","",""
"","","","","","single-stim-button","246","520144","0.0-3.0-22.2-1.2","6347481705fc940bcda1c8e1","D2","batch4","","1424","","","tol_toboard","","","","","","","","","tol_peg_2","1424","1424","0","[[1,0,0],[2,3],[0]]","3","[[0,0,0],[1,2],[3]]","4","0","","","","","","7","",""
"","","","","","single-stim-button","247","520656","0.0-3.0-22.3-0.3","6347481705fc940bcda1c8e1","D2","batch4","","511","","","tol_tohand","","","","","","","","","tol_peg_1","511","511","0","[[0,0,0],[2,3],[0]]","4","[[0,0,0],[1,2],[3]]","4","0","","","","","","7","",""
"","","","","","single-stim-button","248","521239","0.0-3.0-22.3-1.3","6347481705fc940bcda1c8e1","D2","batch4","","582","","","tol_toboard","","","","","","","","","tol_peg_3","582","582","0","[[0,0,0],[2,3],[1]]","4","[[0,0,0],[1,2],[3]]","4","0","","","","","","7","",""
"","","","","","single-stim-button","249","521754","0.0-3.0-22.4-0.4","6347481705fc940bcda1c8e1","D2","batch4","","515","","","tol_tohand","","","","","","","","","tol_peg_2","515","515","0","[[0,0,0],[2,0],[1]]","5","[[0,0,0],[1,2],[3]]","4","0","","","","","","7","",""
"","","","","","single-stim-button","250","522228","0.0-3.0-22.4-1.4","6347481705fc940bcda1c8e1","D2","batch4","","473","","","tol_toboard","","","","","","","","","tol_peg_2","473","473","0","[[0,0,0],[2,3],[1]]","5","[[0,0,0],[1,2],[3]]","4","0","","","","","","7","",""
"","","","","","single-stim-button","251","522742","0.0-3.0-22.5-0.5","6347481705fc940bcda1c8e1","D2","batch4","","513","","","tol_tohand","","","","","","","","","tol_peg_2","513","513","0","[[0,0,0],[2,0],[1]]","6","[[0,0,0],[1,2],[3]]","4","0","","","","","","7","",""
"","","","","","single-stim-button","252","523224","0.0-3.0-22.5-1.5","6347481705fc940bcda1c8e1","D2","batch4","","481","","","tol_toboard","","","","","","","","","tol_peg_1","481","481","0","[[3,0,0],[2,0],[1]]","6","[[0,0,0],[1,2],[3]]","4","0","","","","","","7","",""
"","","","","","single-stim-button","253","524087","0.0-3.0-22.6-0.6","6347481705fc940bcda1c8e1","D2","batch4","","863","","","tol_tohand","","","","","","","","","tol_peg_2","863","863","0","[[3,0,0],[0,0],[1]]","7","[[0,0,0],[1,2],[3]]","4","0","","","","","","7","",""
"","","","","","single-stim-button","254","524967","0.0-3.0-22.6-1.6","6347481705fc940bcda1c8e1","D2","batch4","","880","","","tol_toboard","","","","","","","","","tol_peg_1","880","880","0","[[3,2,0],[0,0],[1]]","7","[[0,0,0],[1,2],[3]]","4","0","","","","","","7","",""
"","","","","","single-stim-button","255","525413","0.0-3.0-22.7-0.7","6347481705fc940bcda1c8e1","D2","batch4","","444","","","tol_tohand","","","","","","","","","tol_peg_3","444","444","0","[[3,2,0],[0,0],[0]]","8","[[0,0,0],[1,2],[3]]","4","0","","","","","","7","",""
"","","","","","single-stim-button","256","525806","0.0-3.0-22.7-1.7","6347481705fc940bcda1c8e1","D2","batch4","","393","","","tol_toboard","","","","","","","","","tol_peg_2","393","393","0","[[3,2,0],[1,0],[0]]","8","[[0,0,0],[1,2],[3]]","4","0","","","","","","7","",""
"","","","","","single-stim-button","257","526162","0.0-3.0-22.8-0.8","6347481705fc940bcda1c8e1","D2","batch4","","355","","","tol_tohand","","","","","","","","","tol_peg_1","355","355","0","[[3,0,0],[1,0],[0]]","9","[[0,0,0],[1,2],[3]]","4","0","","","","","","7","",""
"","","","","","single-stim-button","258","526584","0.0-3.0-22.8-1.8","6347481705fc940bcda1c8e1","D2","batch4","","422","","","tol_toboard","","","","","","","","","tol_peg_2","422","422","0","[[3,0,0],[1,2],[0]]","9","[[0,0,0],[1,2],[3]]","4","0","","","","","","7","",""
"","","","","","single-stim-button","259","527446","0.0-3.0-22.9-0.9","6347481705fc940bcda1c8e1","D2","batch4","","861","","","tol_tohand","","","","","","","","","tol_peg_1","861","861","0","[[0,0,0],[1,2],[0]]","10","[[0,0,0],[1,2],[3]]","4","0","","","","","","7","",""
"","","","","","single-stim-button","260","527975","0.0-3.0-22.9-1.9","6347481705fc940bcda1c8e1","D2","batch4","","528","","","tol_toboard","","","","","","","","","tol_peg_3","528","528","0","[[0,0,0],[1,2],[3]]","10","[[0,0,0],[1,2],[3]]","4","0","","","","","","7","",""
"","","","","","poldrack-single-stim","261","528977","0.0-3.0-23.0","6347481705fc940bcda1c8e1","D2","batch4","","-1","","","tol_feedback","true","","","","","","","","","1000","1000","500","","","","","","-1","none","true","3007","13720","","",""
"","","","","","html-button-response","262","529815","0.0-3.0-24.0","6347481705fc940bcda1c8e1","D2","batch4","","837.6000000238419","<div class = centerbox><p class = center-block-text>problem <strong>6</strong> out of 25 problems</p></div>","0","tol_trial_num","","","","","","","","","","","","","","","","","","","","","","","","",""
"","","","","","single-stim-button","263","533080","0.0-3.0-25.0-0.0","6347481705fc940bcda1c8e1","D2","batch4","","3265","","","tol_tohand","","","","","","","","","tol_peg_2","3265","3265","0","[[0,0,0],[1,0],[3]]","1","[[1,0,0],[2,3],[0]]","5","0","","","","","","6","",""
"","","","","","single-stim-button","264","535629","0.0-3.0-25.0-1.0","6347481705fc940bcda1c8e1","D2","batch4","","2549","","","tol_toboard","","","","","","","","","tol_peg_2","2549","2549","0","[[0,0,0],[1,2],[3]]","1","[[1,0,0],[2,3],[0]]","5","0","","","","","","6","",""
"","","","","","single-stim-button","265","536878","0.0-3.0-25.1-0.1","6347481705fc940bcda1c8e1","D2","batch4","","1249","","","tol_tohand","","","","","","","","","tol_peg_3","1249","1249","0","[[0,0,0],[1,2],[0]]","2","[[1,0,0],[2,3],[0]]","5","0","","","","","","6","",""
"","","","","","single-stim-button","266","537346","0.0-3.0-25.1-1.1","6347481705fc940bcda1c8e1","D2","batch4","","468","","","tol_toboard","","","","","","","","","tol_peg_1","468","468","0","[[3,0,0],[1,2],[0]]","2","[[1,0,0],[2,3],[0]]","5","0","","","","","","6","",""
"","","","","","single-stim-button","267","537642","0.0-3.0-25.2-0.2","6347481705fc940bcda1c8e1","D2","batch4","","296","","","tol_tohand","","","","","","","","","tol_peg_2","296","296","0","[[3,0,0],[1,0],[0]]","3","[[1,0,0],[2,3],[0]]","5","0","","","","","","6","",""
"","","","","","single-stim-button","268","538009","0.0-3.0-25.2-1.2","6347481705fc940bcda1c8e1","D2","batch4","","367","","","tol_toboard","","","","","","","","","tol_peg_3","367","367","0","[[3,0,0],[1,0],[2]]","3","[[1,0,0],[2,3],[0]]","5","0","","","","","","6","",""
"","","","","","single-stim-button","269","538425","0.0-3.0-25.3-0.3","6347481705fc940bcda1c8e1","D2","batch4","","416","","","tol_tohand","","","","","","","","","tol_peg_1","416","416","0","[[0,0,0],[1,0],[2]]","4","[[1,0,0],[2,3],[0]]","5","0","","","","","","6","",""
"","","","","","single-stim-button","270","540049","0.0-3.0-25.3-1.3","6347481705fc940bcda1c8e1","D2","batch4","","1624","","","tol_toboard","","","","","","","","","tol_peg_2","1624","1624","0","[[0,0,0],[1,3],[2]]","4","[[1,0,0],[2,3],[0]]","5","0","","","","","","6","",""
"","","","","","single-stim-button","271","541731","0.0-3.0-25.4-0.4","6347481705fc940bcda1c8e1","D2","batch4","","1682","","","tol_tohand","","","","","","","","","tol_peg_2","1682","1682","0","[[0,0,0],[1,0],[2]]","5","[[1,0,0],[2,3],[0]]","5","0","","","","","","6","",""
"","","","","","single-stim-button","272","543180","0.0-3.0-25.4-1.4","6347481705fc940bcda1c8e1","D2","batch4","","1449","","","tol_toboard","","","","","","","","","tol_peg_1","1449","1449","0","[[3,0,0],[1,0],[2]]","5","[[1,0,0],[2,3],[0]]","5","0","","","","","","6","",""
"","","","","","single-stim-button","273","547845","0.0-3.0-25.5-0.5","6347481705fc940bcda1c8e1","D2","batch4","","4665","","","tol_tohand","","","","","","","","","tol_peg_2","4665","4665","0","[[3,0,0],[0,0],[2]]","6","[[1,0,0],[2,3],[0]]","5","0","","","","","","6","",""
"","","","","","single-stim-button","274","548613","0.0-3.0-25.5-1.5","6347481705fc940bcda1c8e1","D2","batch4","","767","","","tol_toboard","","","","","","","","","tol_peg_1","767","767","0","[[3,1,0],[0,0],[2]]","6","[[1,0,0],[2,3],[0]]","5","0","","","","","","6","",""
"","","","","","single-stim-button","275","551094","0.0-3.0-25.6-0.6","6347481705fc940bcda1c8e1","D2","batch4","","2481","","","tol_tohand","","","","","","","","","tol_peg_3","2481","2481","0","[[3,1,0],[0,0],[0]]","7","[[1,0,0],[2,3],[0]]","5","0","","","","","","6","",""
"","","","","","single-stim-button","276","551492","0.0-3.0-25.6-1.6","6347481705fc940bcda1c8e1","D2","batch4","","398","","","tol_toboard","","","","","","","","","tol_peg_2","398","398","0","[[3,1,0],[2,0],[0]]","7","[[1,0,0],[2,3],[0]]","5","0","","","","","","6","",""
"","","","","","single-stim-button","277","551926","0.0-3.0-25.7-0.7","6347481705fc940bcda1c8e1","D2","batch4","","433","","","tol_tohand","","","","","","","","","tol_peg_1","433","433","0","[[3,0,0],[2,0],[0]]","8","[[1,0,0],[2,3],[0]]","5","0","","","","","","6","",""
"","","","","","single-stim-button","278","552360","0.0-3.0-25.7-1.7","6347481705fc940bcda1c8e1","D2","batch4","","434","","","tol_toboard","","","","","","","","","tol_peg_3","434","434","0","[[3,0,0],[2,0],[1]]","8","[[1,0,0],[2,3],[0]]","5","0","","","","","","6","",""
"","","","","","single-stim-button","279","552809","0.0-3.0-25.8-0.8","6347481705fc940bcda1c8e1","D2","batch4","","448","","","tol_tohand","","","","","","","","","tol_peg_1","448","448","0","[[0,0,0],[2,0],[1]]","9","[[1,0,0],[2,3],[0]]","5","0","","","","","","6","",""
"","","","","","single-stim-button","280","553081","0.0-3.0-25.8-1.8","6347481705fc940bcda1c8e1","D2","batch4","","272","","","tol_toboard","","","","","","","","","tol_peg_2","272","272","0","[[0,0,0],[2,3],[1]]","9","[[1,0,0],[2,3],[0]]","5","0","","","","","","6","",""
"","","","","","single-stim-button","281","553401","0.0-3.0-25.9-0.9","6347481705fc940bcda1c8e1","D2","batch4","","318","","","tol_tohand","","","","","","","","","tol_peg_3","318","318","0","[[0,0,0],[2,3],[0]]","10","[[1,0,0],[2,3],[0]]","5","0","","","","","","6","",""
"","","","","","single-stim-button","282","553837","0.0-3.0-25.9-1.9","6347481705fc940bcda1c8e1","D2","batch4","","435","","","tol_toboard","","","","","","","","","tol_peg_1","435","435","0","[[1,0,0],[2,3],[0]]","10","[[1,0,0],[2,3],[0]]","5","0","","","","","","6","",""
"","","","","","poldrack-single-stim","283","554838","0.0-3.0-26.0","6347481705fc940bcda1c8e1","D2","batch4","","-1","","","tol_feedback","true","","","","","","","","","1000","1000","500","","","","","","-1","none","true","3265","15253","","",""
"","","","","","html-button-response","284","555574","0.0-3.0-27.0","6347481705fc940bcda1c8e1","D2","batch4","","735.3999999761581","<div class = centerbox><p class = center-block-text>problem <strong>7</strong> out of 25 problems</p></div>","0","tol_trial_num","","","","","","","","","","","","","","","","","","","","","","","","",""
"","","","","","single-stim-button","285","558423","0.0-3.0-28.0-0.0","6347481705fc940bcda1c8e1","D2","batch4","","2849","","","tol_tohand","","","","","","","","","tol_peg_3","2849","2849","0","[[2,1,0],[0,0],[0]]","1","[[1,2,0],[3,0],[0]]","6","0","","","","","","5","",""
"","","","","","single-stim-button","286","559323","0.0-3.0-28.0-1.0","6347481705fc940bcda1c8e1","D2","batch4","","899","","","tol_toboard","","","","","","","","","tol_peg_2","899","899","0","[[2,1,0],[3,0],[0]]","1","[[1,2,0],[3,0],[0]]","6","0","","","","","","5","",""
"","","","","","single-stim-button","287","559932","0.0-3.0-28.1-0.1","6347481705fc940bcda1c8e1","D2","batch4","","608","","","tol_tohand","","","","","","","","","tol_peg_1","608","608","0","[[2,0,0],[3,0],[0]]","2","[[1,2,0],[3,0],[0]]","6","0","","","","","","5","",""
"","","","","","single-stim-button","288","560672","0.0-3.0-28.1-1.1","6347481705fc940bcda1c8e1","D2","batch4","","739","","","tol_toboard","","","","","","","","","tol_peg_3","739","739","0","[[2,0,0],[3,0],[1]]","2","[[1,2,0],[3,0],[0]]","6","0","","","","","","5","",""
"","","","","","single-stim-button","289","561176","0.0-3.0-28.2-0.2","6347481705fc940bcda1c8e1","D2","batch4","","503","","","tol_tohand","","","","","","","","","tol_peg_1","503","503","0","[[0,0,0],[3,0],[1]]","3","[[1,2,0],[3,0],[0]]","6","0","","","","","","5","",""
"","","","","","single-stim-button","290","562147","0.0-3.0-28.2-1.2","6347481705fc940bcda1c8e1","D2","batch4","","970","","","tol_toboard","","","","","","","","","tol_peg_2","970","970","0","[[0,0,0],[3,2],[1]]","3","[[1,2,0],[3,0],[0]]","6","0","","","","","","5","",""
"","","","","","single-stim-button","291","562421","0.0-3.0-28.3-0.3","6347481705fc940bcda1c8e1","D2","batch4","","274","","","tol_tohand","","","","","","","","","tol_peg_3","274","274","0","[[0,0,0],[3,2],[0]]","4","[[1,2,0],[3,0],[0]]","6","0","","","","","","5","",""
"","","","","","single-stim-button","292","562787","0.0-3.0-28.3-1.3","6347481705fc940bcda1c8e1","D2","batch4","","364","","","tol_toboard","","","","","","","","","tol_peg_1","364","364","0","[[1,0,0],[3,2],[0]]","4","[[1,2,0],[3,0],[0]]","6","0","","","","","","5","",""
"","","","","","single-stim-button","293","563211","0.0-3.0-28.4-0.4","6347481705fc940bcda1c8e1","D2","batch4","","424","","","tol_tohand","","","","","","","","","tol_peg_2","424","424","0","[[1,0,0],[3,0],[0]]","5","[[1,2,0],[3,0],[0]]","6","0","","","","","","5","",""
"","","","","","single-stim-button","294","563596","0.0-3.0-28.4-1.4","6347481705fc940bcda1c8e1","D2","batch4","","384","","","tol_toboard","","","","","","","","","tol_peg_1","384","384","0","[[1,2,0],[3,0],[0]]","5","[[1,2,0],[3,0],[0]]","6","0","","","","","","5","",""
"","","","","","poldrack-single-stim","295","564599","0.0-3.0-29.0","6347481705fc940bcda1c8e1","D2","batch4","","-1","","","tol_feedback","true","","","","","","","","","1000","1000","500","","","","","","-1","none","true","2849","4658","","",""
"","","","","","html-button-response","296","565162","0.0-3.0-30.0","6347481705fc940bcda1c8e1","D2","batch4","","562","<div class = centerbox><p class = center-block-text>problem <strong>8</strong> out of 25 problems</p></div>","0","tol_trial_num","","","","","","","","","","","","","","","","","","","","","","","","",""
"","","","","","single-stim-button","297","567576","0.0-3.0-31.0-0.0","6347481705fc940bcda1c8e1","D2","batch4","","2413","","","tol_tohand","","","","","","","","","tol_peg_3","2413","2413","0","[[0,0,0],[2,3],[0]]","1","[[1,2,0],[3,0],[0]]","7","0","","","","","","4","",""
"","","","","","single-stim-button","298","568828","0.0-3.0-31.0-1.0","6347481705fc940bcda1c8e1","D2","batch4","","1252","","","tol_toboard","","","","","","","","","tol_peg_1","1252","1252","0","[[1,0,0],[2,3],[0]]","1","[[1,2,0],[3,0],[0]]","7","0","","","","","","4","",""
"","","","","","single-stim-button","299","569500","0.0-3.0-31.1-0.1","6347481705fc940bcda1c8e1","D2","batch4","","672","","","tol_tohand","","","","","","","","","tol_peg_2","672","672","0","[[1,0,0],[2,0],[0]]","2","[[1,2,0],[3,0],[0]]","7","0","","","","","","4","",""
"","","","","","single-stim-button","300","569993","0.0-3.0-31.1-1.1","6347481705fc940bcda1c8e1","D2","batch4","","492","","","tol_toboard","","","","","","","","","tol_peg_3","492","492","0","[[1,0,0],[2,0],[3]]","2","[[1,2,0],[3,0],[0]]","7","0","","","","","","4","",""
"","","","","","single-stim-button","301","570408","0.0-3.0-31.2-0.2","6347481705fc940bcda1c8e1","D2","batch4","","414","","","tol_tohand","","","","","","","","","tol_peg_2","414","414","0","[[1,0,0],[0,0],[3]]","3","[[1,2,0],[3,0],[0]]","7","0","","","","","","4","",""
"","","","","","single-stim-button","302","570813","0.0-3.0-31.2-1.2","6347481705fc940bcda1c8e1","D2","batch4","","405","","","tol_toboard","","","","","","","","","tol_peg_1","405","405","0","[[1,2,0],[0,0],[3]]","3","[[1,2,0],[3,0],[0]]","7","0","","","","","","4","",""
"","","","","","single-stim-button","303","571152","0.0-3.0-31.3-0.3","6347481705fc940bcda1c8e1","D2","batch4","","338","","","tol_tohand","","","","","","","","","tol_peg_3","338","338","0","[[1,2,0],[0,0],[0]]","4","[[1,2,0],[3,0],[0]]","7","0","","","","","","4","",""
"","","","","","single-stim-button","304","571469","0.0-3.0-31.3-1.3","6347481705fc940bcda1c8e1","D2","batch4","","317","","","tol_toboard","","","","","","","","","tol_peg_2","317","317","0","[[1,2,0],[3,0],[0]]","4","[[1,2,0],[3,0],[0]]","7","0","","","","","","4","",""
"","","","","","poldrack-single-stim","305","572472","0.0-3.0-32.0","6347481705fc940bcda1c8e1","D2","batch4","","-1","","","tol_feedback","true","","","","","","","","","1000","1000","500","","","","","","-1","none","true","2413","3837","","",""
"","","","","","html-button-response","306","572964","0.0-3.0-33.0","6347481705fc940bcda1c8e1","D2","batch4","","491.60000002384186","<div class = centerbox><p class = center-block-text>problem <strong>9</strong> out of 25 problems</p></div>","0","tol_trial_num","","","","","","","","","","","","","","","","","","","","","","","","",""
"","","","","","single-stim-button","307","576378","0.0-3.0-34.0-0.0","6347481705fc940bcda1c8e1","D2","batch4","","3414","","","tol_tohand","","","","","","","","","tol_peg_1","3414","3414","0","[[3,0,0],[0,0],[1]]","1","[[2,1,0],[3,0],[0]]","8","0","","","","","","6","",""
"","","","","","single-stim-button","308","578480","0.0-3.0-34.0-1.0","6347481705fc940bcda1c8e1","D2","batch4","","2101","","","tol_toboard","","","","","","","","","tol_peg_1","2101","2101","0","[[3,2,0],[0,0],[1]]","1","[[2,1,0],[3,0],[0]]","8","0","","","","","","6","",""
"","","","","","single-stim-button","309","579543","0.0-3.0-34.1-0.1","6347481705fc940bcda1c8e1","D2","batch4","","1061","","","tol_tohand","","","","","","","","","tol_peg_3","1061","1061","0","[[3,2,0],[0,0],[0]]","2","[[2,1,0],[3,0],[0]]","8","0","","","","","","6","",""
"","","","","","single-stim-button","310","579826","0.0-3.0-34.1-1.1","6347481705fc940bcda1c8e1","D2","batch4","","283","","","tol_toboard","","","","","","","","","tol_peg_2","283","283","0","[[3,2,0],[1,0],[0]]","2","[[2,1,0],[3,0],[0]]","8","0","","","","","","6","",""
"","","","","","single-stim-button","311","580299","0.0-3.0-34.2-0.2","6347481705fc940bcda1c8e1","D2","batch4","","472","","","tol_tohand","","","","","","","","","tol_peg_1","472","472","0","[[3,0,0],[1,0],[0]]","3","[[2,1,0],[3,0],[0]]","8","0","","","","","","6","",""
"","","","","","single-stim-button","312","583873","0.0-3.0-34.2-1.2","6347481705fc940bcda1c8e1","D2","batch4","","3574","","","tol_toboard","","","","","","","","","tol_peg_2","3574","3574","0","[[3,0,0],[1,2],[0]]","3","[[2,1,0],[3,0],[0]]","8","0","","","","","","6","",""
"","","","","","single-stim-button","313","584351","0.0-3.0-34.3-0.3","6347481705fc940bcda1c8e1","D2","batch4","","477","","","tol_tohand","","","","","","","","","tol_peg_1","477","477","0","[[0,0,0],[1,2],[0]]","4","[[2,1,0],[3,0],[0]]","8","0","","","","","","6","",""
"","","","","","single-stim-button","314","585008","0.0-3.0-34.3-1.3","6347481705fc940bcda1c8e1","D2","batch4","","656","","","tol_toboard","","","","","","","","","tol_peg_3","656","656","0","[[0,0,0],[1,2],[3]]","4","[[2,1,0],[3,0],[0]]","8","0","","","","","","6","",""
"","","","","","single-stim-button","315","585680","0.0-3.0-34.4-0.4","6347481705fc940bcda1c8e1","D2","batch4","","672","","","tol_tohand","","","","","","","","","tol_peg_2","672","672","0","[[0,0,0],[1,0],[3]]","5","[[2,1,0],[3,0],[0]]","8","0","","","","","","6","",""
"","","","","","single-stim-button","316","586125","0.0-3.0-34.4-1.4","6347481705fc940bcda1c8e1","D2","batch4","","444","","","tol_toboard","","","","","","","","","tol_peg_1","444","444","0","[[2,0,0],[1,0],[3]]","5","[[2,1,0],[3,0],[0]]","8","0","","","","","","6","",""
"","","","","","single-stim-button","317","586542","0.0-3.0-34.5-0.5","6347481705fc940bcda1c8e1","D2","batch4","","416","","","tol_tohand","","","","","","","","","tol_peg_2","416","416","0","[[2,0,0],[0,0],[3]]","6","[[2,1,0],[3,0],[0]]","8","0","","","","","","6","",""
"","","","","","single-stim-button","318","586889","0.0-3.0-34.5-1.5","6347481705fc940bcda1c8e1","D2","batch4","","346","","","tol_toboard","","","","","","","","","tol_peg_1","346","346","0","[[2,1,0],[0,0],[3]]","6","[[2,1,0],[3,0],[0]]","8","0","","","","","","6","",""
"","","","","","single-stim-button","319","587277","0.0-3.0-34.6-0.6","6347481705fc940bcda1c8e1","D2","batch4","","388","","","tol_tohand","","","","","","","","","tol_peg_3","388","388","0","[[2,1,0],[0,0],[0]]","7","[[2,1,0],[3,0],[0]]","8","0","","","","","","6","",""
"","","","","","single-stim-button","320","587637","0.0-3.0-34.6-1.6","6347481705fc940bcda1c8e1","D2","batch4","","360","","","tol_toboard","","","","","","","","","tol_peg_2","360","360","0","[[2,1,0],[3,0],[0]]","7","[[2,1,0],[3,0],[0]]","8","0","","","","","","6","",""
"","","","","","poldrack-single-stim","321","588639","0.0-3.0-35.0","6347481705fc940bcda1c8e1","D2","batch4","","-1","","","tol_feedback","true","","","","","","","","","1000","1000","500","","","","","","-1","none","true","3414","6900","","",""
"","","","","","html-button-response","322","589301","0.0-3.0-36.0","6347481705fc940bcda1c8e1","D2","batch4","","661.3999999761581","<div class = centerbox><p class = center-block-text>problem <strong>10</strong> out of 25 problems</p></div>","0","tol_trial_num","","","","","","","","","","","","","","","","","","","","","","","","",""
"","","","","","single-stim-button","323","591914","0.0-3.0-37.0-0.0","6347481705fc940bcda1c8e1","D2","batch4","","2612","","","tol_tohand","","","","","","","","","tol_peg_2","2612","2612","0","[[3,0,0],[0,0],[2]]","1","[[3,0,0],[2,1],[0]]","9","0","","","","","","3","",""
"","","","","","single-stim-button","324","592309","0.0-3.0-37.0-1.0","6347481705fc940bcda1c8e1","D2","batch4","","395","","","tol_toboard","","","","","","","","","tol_peg_1","395","395","0","[[3,1,0],[0,0],[2]]","1","[[3,0,0],[2,1],[0]]","9","0","","","","","","3","",""
"","","","","","single-stim-button","325","592793","0.0-3.0-37.1-0.1","6347481705fc940bcda1c8e1","D2","batch4","","483","","","tol_tohand","","","","","","","","","tol_peg_3","483","483","0","[[3,1,0],[0,0],[0]]","2","[[3,0,0],[2,1],[0]]","9","0","","","","","","3","",""
"","","","","","single-stim-button","326","593141","0.0-3.0-37.1-1.1","6347481705fc940bcda1c8e1","D2","batch4","","348","","","tol_toboard","","","","","","","","","tol_peg_2","348","348","0","[[3,1,0],[2,0],[0]]","2","[[3,0,0],[2,1],[0]]","9","0","","","","","","3","",""
"","","","","","single-stim-button","327","593494","0.0-3.0-37.2-0.2","6347481705fc940bcda1c8e1","D2","batch4","","352","","","tol_tohand","","","","","","","","","tol_peg_1","352","352","0","[[3,0,0],[2,0],[0]]","3","[[3,0,0],[2,1],[0]]","9","0","","","","","","3","",""
"","","","","","single-stim-button","328","593755","0.0-3.0-37.2-1.2","6347481705fc940bcda1c8e1","D2","batch4","","260","","","tol_toboard","","","","","","","","","tol_peg_2","260","260","0","[[3,0,0],[2,1],[0]]","3","[[3,0,0],[2,1],[0]]","9","0","","","","","","3","",""
"","","","","","poldrack-single-stim","329","594758","0.0-3.0-38.0","6347481705fc940bcda1c8e1","D2","batch4","","-1","","","tol_feedback","true","","","","","","","","","1000","1000","500","","","","","","-1","none","true","2612","3447","","",""
"","","","","","html-button-response","330","595338","0.0-3.0-39.0","6347481705fc940bcda1c8e1","D2","batch4","","579.5","<div class = centerbox><p class = center-block-text>problem <strong>11</strong> out of 25 problems</p></div>","0","tol_trial_num","","","","","","","","","","","","","","","","","","","","","","","","",""
"","","","","","single-stim-button","331","601239","0.0-3.0-40.0-0.0","6347481705fc940bcda1c8e1","D2","batch4","","5901","","","tol_tohand","","","","","","","","","tol_peg_1","5901","5901","0","[[1,0,0],[3,0],[0]]","1","[[2,0,0],[1,3],[0]]","10","0","","","","","","6","",""
"","","","","","single-stim-button","332","602073","0.0-3.0-40.0-1.0","6347481705fc940bcda1c8e1","D2","batch4","","833","","","tol_toboard","","","","","","","","","tol_peg_2","833","833","0","[[1,0,0],[3,2],[0]]","1","[[2,0,0],[1,3],[0]]","10","0","","","","","","6","",""
"","","","","","single-stim-button","333","602450","0.0-3.0-40.1-0.1","6347481705fc940bcda1c8e1","D2","batch4","","377","","","tol_tohand","","","","","","","","","tol_peg_1","377","377","0","[[0,0,0],[3,2],[0]]","2","[[2,0,0],[1,3],[0]]","10","0","","","","","","6","",""
"","","","","","single-stim-button","334","603016","0.0-3.0-40.1-1.1","6347481705fc940bcda1c8e1","D2","batch4","","566","","","tol_toboard","","","","","","","","","tol_peg_3","566","566","0","[[0,0,0],[3,2],[1]]","2","[[2,0,0],[1,3],[0]]","10","0","","","","","","6","",""
"","","","","","single-stim-button","335","603366","0.0-3.0-40.2-0.2","6347481705fc940bcda1c8e1","D2","batch4","","349","","","tol_tohand","","","","","","","","","tol_peg_2","349","349","0","[[0,0,0],[3,0],[1]]","3","[[2,0,0],[1,3],[0]]","10","0","","","","","","6","",""
"","","","","","single-stim-button","336","603904","0.0-3.0-40.2-1.2","6347481705fc940bcda1c8e1","D2","batch4","","537","","","tol_toboard","","","","","","","","","tol_peg_1","537","537","0","[[2,0,0],[3,0],[1]]","3","[[2,0,0],[1,3],[0]]","10","0","","","","","","6","",""
"","","","","","single-stim-button","337","604449","0.0-3.0-40.3-0.3","6347481705fc940bcda1c8e1","D2","batch4","","545","","","tol_tohand","","","","","","","","","tol_peg_2","545","545","0","[[2,0,0],[0,0],[1]]","4","[[2,0,0],[1,3],[0]]","10","0","","","","","","6","",""
"","","","","","single-stim-button","338","605421","0.0-3.0-40.3-1.3","6347481705fc940bcda1c8e1","D2","batch4","","972","","","tol_toboard","","","","","","","","","tol_peg_1","972","972","0","[[2,3,0],[0,0],[1]]","4","[[2,0,0],[1,3],[0]]","10","0","","","","","","6","",""
"","","","","","single-stim-button","339","605733","0.0-3.0-40.4-0.4","6347481705fc940bcda1c8e1","D2","batch4","","312","","","tol_tohand","","","","","","","","","tol_peg_3","312","312","0","[[2,3,0],[0,0],[0]]","5","[[2,0,0],[1,3],[0]]","10","0","","","","","","6","",""
"","","","","","single-stim-button","340","606070","0.0-3.0-40.4-1.4","6347481705fc940bcda1c8e1","D2","batch4","","337","","","tol_toboard","","","","","","","","","tol_peg_2","337","337","0","[[2,3,0],[1,0],[0]]","5","[[2,0,0],[1,3],[0]]","10","0","","","","","","6","",""
"","","","","","single-stim-button","341","606458","0.0-3.0-40.5-0.5","6347481705fc940bcda1c8e1","D2","batch4","","388","","","tol_tohand","","","","","","","","","tol_peg_1","388","388","0","[[2,0,0],[1,0],[0]]","6","[[2,0,0],[1,3],[0]]","10","0","","","","","","6","",""
"","","","","","single-stim-button","342","606734","0.0-3.0-40.5-1.5","6347481705fc940bcda1c8e1","D2","batch4","","276","","","tol_toboard","","","","","","","","","tol_peg_2","276","276","0","[[2,0,0],[1,3],[0]]","6","[[2,0,0],[1,3],[0]]","10","0","","","","","","6","",""
"","","","","","poldrack-single-stim","343","607736","0.0-3.0-41.0","6347481705fc940bcda1c8e1","D2","batch4","","-1","","","tol_feedback","true","","","","","","","","","1000","1000","500","","","","","","-1","none","true","5901","7872","","",""
"","","","","","html-button-response","344","608604","0.0-3.0-42.0","6347481705fc940bcda1c8e1","D2","batch4","","867.5","<div class = centerbox><p class = center-block-text>problem <strong>12</strong> out of 25 problems</p></div>","0","tol_trial_num","","","","","","","","","","","","","","","","","","","","","","","","",""
"","","","","","single-stim-button","345","613151","0.0-3.0-43.0-0.0","6347481705fc940bcda1c8e1","D2","batch4","","4546","","","tol_tohand","","","","","","","","","tol_peg_2","4546","4546","0","[[1,2,0],[0,0],[0]]","1","[[2,3,0],[0,0],[1]]","11","0","","","","","","4","",""
"","","","","","single-stim-button","346","613607","0.0-3.0-43.0-1.0","6347481705fc940bcda1c8e1","D2","batch4","","455","","","tol_toboard","","","","","","","","","tol_peg_3","455","455","0","[[1,2,0],[0,0],[3]]","1","[[2,3,0],[0,0],[1]]","11","0","","","","","","4","",""
"","","","","","single-stim-button","347","614344","0.0-3.0-43.1-0.1","6347481705fc940bcda1c8e1","D2","batch4","","736","","","tol_tohand","","","","","","","","","tol_peg_3","736","736","0","[[1,2,0],[0,0],[0]]","2","[[2,3,0],[0,0],[1]]","11","0","","","","","","4","",""
"","","","","","single-stim-button","348","614700","0.0-3.0-43.1-1.1","6347481705fc940bcda1c8e1","D2","batch4","","356","","","tol_toboard","","","","","","","","","tol_peg_2","356","356","0","[[1,2,0],[3,0],[0]]","2","[[2,3,0],[0,0],[1]]","11","0","","","","","","4","",""
"","","","","","single-stim-button","349","614968","0.0-3.0-43.2-0.2","6347481705fc940bcda1c8e1","D2","batch4","","266","","","tol_tohand","","","","","","","","","tol_peg_1","266","266","0","[[1,0,0],[3,0],[0]]","3","[[2,3,0],[0,0],[1]]","11","0","","","","","","4","",""
