"success","timeout","failed_images","failed_audio","failed_video","trial_type","trial_index","time_elapsed","internal_node_id","subject_id","study_id","session_id","task","rt","stimulus","response","item","answer","correct","spm_correct","spm_rt","view_history","mouse_click","stim_duration","block_duration","timing_post_trial","current_position","tol_num_moves_made","tol_target","tol_problem_id","tol_rt","key_press","possible_responses","tol_correct","preplanning","tol_rt_per_trial","tol_min_moves","fiar_detect_rt","fiar_detect_correct","total_correct_fiar_detect","post_trial_gap","choices"
"true","false","[]","[]","[]","preload","0","1271","0.0-0.0","636148a08e1e96b962192d3f","F1","batch6","","","","","","","","","","","","","","","","","","","","","","","","","","","","","",""
"true","","","","","fullscreen","1","13788","0.0-1.0-0.0","636148a08e1e96b962192d3f","F1","batch6","","","","","","","","","","","","","","","","","","","","","","","","","","","","","",""
"true","","","","","fullscreen","2","17003","0.0-2.0-0.0","636148a08e1e96b962192d3f","F1","batch6","spm_fullscreen","","","","","","","","","","","","","","","","","","","","","","","","","","","","",""
"","","","","","html-button-response","3","59328","0.0-2.0-1.0","636148a08e1e96b962192d3f","F1","batch6","","42323.10000014305","<p class = block-text><b>Instructions</b> <br>This is a widely used intelligence test in research. <br>In this test, a figure with a missing piece will be presented.<br>Below the figure are alternative pieces to complete the figure, only one of which is correct.<br> Different figures might involve different principles for obtaining the missing piece<br>Your job is to select the most logical piece to complete the figure.</p>","0","","","","","","","","","","","","","","","","","","","","","","","","","",""
"","","","","","html-keyboard-response","4","60140","0.0-2.0-2.0-0.0","636148a08e1e96b962192d3f","F1","batch6","spm_show_trial_num","null","<p class=block-text>Trial 1 out of 60</p>","null","","","","","","","","","","","","","","","","","","","","","","","","","",""
"","","","","","image-button-response","5","70489","0.0-2.0-2.0-1.0","636148a08e1e96b962192d3f","F1","batch6","spm_respsonse","10346","img/question_1_1.jpeg","3","mat_01","4","1","1","10346","","","","","","","","","","","","","","","","","","","","",""
"","","","","","html-keyboard-response","6","71548","0.0-2.0-2.0-0.1","636148a08e1e96b962192d3f","F1","batch6","spm_show_trial_num","null","<p class=block-text>Trial 2 out of 60</p>","null","","","","","","","","","","","","","","","","","","","","","","","","","",""
"","","","","","image-button-response","7","74661","0.0-2.0-2.0-1.1","636148a08e1e96b962192d3f","F1","batch6","spm_respsonse","3111.0999999046326","img/question_1_2.jpeg","4","mat_02","5","1","1","3111.0999999046326","","","","","","","","","","","","","","","","","","","","",""
"","","","","","html-keyboard-response","8","75727","0.0-2.0-2.0-0.2","636148a08e1e96b962192d3f","F1","batch6","spm_show_trial_num","null","<p class=block-text>Trial 3 out of 60</p>","null","","","","","","","","","","","","","","","","","","","","","","","","","",""
"","","","","","image-button-response","9","80868","0.0-2.0-2.0-1.2","636148a08e1e96b962192d3f","F1","batch6","spm_respsonse","5139.5","img/question_1_3.jpeg","0","mat_03","1","1","1","5139.5","","","","","","","","","","","","","","","","","","","","",""
"","","","","","html-keyboard-response","10","81937","0.0-2.0-2.0-0.3","636148a08e1e96b962192d3f","F1","batch6","spm_show_trial_num","null","<p class=block-text>Trial 4 out of 60</p>","null","","","","","","","","","","","","","","","","","","","","","","","","","",""
"","","","","","image-button-response","11","85186","0.0-2.0-2.0-1.3","636148a08e1e96b962192d3f","F1","batch6","spm_respsonse","3247.7999999523163","img/question_1_4.jpeg","1","mat_04","2","1","1","3247.7999999523163","","","","","","","","","","","","","","","","","","","","",""
"","","","","","html-keyboard-response","12","86249","0.0-2.0-2.0-0.4","636148a08e1e96b962192d3f","F1","batch6","spm_show_trial_num","null","<p class=block-text>Trial 5 out of 60</p>","null","","","","","","","","","","","","","","","","","","","","","","","","","",""
"","","","","","image-button-response","13","89544","0.0-2.0-2.0-1.4","636148a08e1e96b962192d3f","F1","batch6","spm_respsonse","3293.7999999523163","img/question_1_5.jpeg","5","mat_05","6","1","1","3293.7999999523163","","","","","","","","","","","","","","","","","","","","",""
"","","","","","html-keyboard-response","14","90610","0.0-2.0-2.0-0.5","636148a08e1e96b962192d3f","F1","batch6","spm_show_trial_num","null","<p class=block-text>Trial 6 out of 60</p>","null","","","","","","","","","","","","","","","","","","","","","","","","","",""
"","","","","","image-button-response","15","94068","0.0-2.0-2.0-1.5","636148a08e1e96b962192d3f","F1","batch6","spm_respsonse","3455.5999999046326","img/question_1_6.jpeg","2","mat_06","3","1","1","3455.5999999046326","","","","","","","","","","","","","","","","","","","","",""
"","","","","","html-keyboard-response","16","95144","0.0-2.0-2.0-0.6","636148a08e1e96b962192d3f","F1","batch6","spm_show_trial_num","null","<p class=block-text>Trial 7 out of 60</p>","null","","","","","","","","","","","","","","","","","","","","","","","","","",""
"","","","","","image-button-response","17","99290","0.0-2.0-2.0-1.6","636148a08e1e96b962192d3f","F1","batch6","spm_respsonse","4144.599999904633","img/question_1_7.jpeg","5","mat_07","6","1","1","4144.599999904633","","","","","","","","","","","","","","","","","","","","",""
"","","","","","html-keyboard-response","18","100352","0.0-2.0-2.0-0.7","636148a08e1e96b962192d3f","F1","batch6","spm_show_trial_num","null","<p class=block-text>Trial 8 out of 60</p>","null","","","","","","","","","","","","","","","","","","","","","","","","","",""
"","","","","","image-button-response","19","103914","0.0-2.0-2.0-1.7","636148a08e1e96b962192d3f","F1","batch6","spm_respsonse","3560.9000000953674","img/question_1_8.jpeg","1","mat_08","2","1","1","3560.9000000953674","","","","","","","","","","","","","","","","","","","","",""
"","","","","","html-keyboard-response","20","104972","0.0-2.0-2.0-0.8","636148a08e1e96b962192d3f","F1","batch6","spm_show_trial_num","null","<p class=block-text>Trial 9 out of 60</p>","null","","","","","","","","","","","","","","","","","","","","","","","","","",""
"","","","","","image-button-response","21","109936","0.0-2.0-2.0-1.8","636148a08e1e96b962192d3f","F1","batch6","spm_respsonse","4962.799999952316","img/question_1_9.jpeg","0","mat_09","1","1","1","4962.799999952316","","","","","","","","","","","","","","","","","","","","",""
"","","","","","html-keyboard-response","22","110996","0.0-2.0-2.0-0.9","636148a08e1e96b962192d3f","F1","batch6","spm_show_trial_num","null","<p class=block-text>Trial 10 out of 60</p>","null","","","","","","","","","","","","","","","","","","","","","","","","","",""
"","","","","","image-button-response","23","117972","0.0-2.0-2.0-1.9","636148a08e1e96b962192d3f","F1","batch6","spm_respsonse","6974","img/question_1_10.jpeg","2","mat_10","3","1","1","6974","","","","","","","","","","","","","","","","","","","","",""
"","","","","","html-keyboard-response","24","119043","0.0-2.0-2.0-0.10","636148a08e1e96b962192d3f","F1","batch6","spm_show_trial_num","null","<p class=block-text>Trial 11 out of 60</p>","null","","","","","","","","","","","","","","","","","","","","","","","","","",""
"","","","","","image-button-response","25","128430","0.0-2.0-2.0-1.10","636148a08e1e96b962192d3f","F1","batch6","spm_respsonse","9385.599999904633","img/question_1_11.jpeg","3","mat_11","4","1","1","9385.599999904633","","","","","","","","","","","","","","","","","","","","",""
"","","","","","html-keyboard-response","26","129490","0.0-2.0-2.0-0.11","636148a08e1e96b962192d3f","F1","batch6","spm_show_trial_num","null","<p class=block-text>Trial 12 out of 60</p>","null","","","","","","","","","","","","","","","","","","","","","","","","","",""
"","","","","","image-button-response","27","141788","0.0-2.0-2.0-1.11","636148a08e1e96b962192d3f","F1","batch6","spm_respsonse","12296.200000047684","img/question_1_12.jpeg","4","mat_12","5","1","1","12296.200000047684","","","","","","","","","","","","","","","","","","","","",""
"","","","","","html-keyboard-response","28","142851","0.0-2.0-2.0-0.12","636148a08e1e96b962192d3f","F1","batch6","spm_show_trial_num","null","<p class=block-text>Trial 13 out of 60</p>","null","","","","","","","","","","","","","","","","","","","","","","","","","",""
"","","","","","image-button-response","29","145519","0.0-2.0-2.0-1.12","636148a08e1e96b962192d3f","F1","batch6","spm_respsonse","2665.5999999046326","img/question_2_1.jpeg","1","mat_13","2","1","1","2665.5999999046326","","","","","","","","","","","","","","","","","","","","",""
"","","","","","html-keyboard-response","30","146581","0.0-2.0-2.0-0.13","636148a08e1e96b962192d3f","F1","batch6","spm_show_trial_num","null","<p class=block-text>Trial 14 out of 60</p>","null","","","","","","","","","","","","","","","","","","","","","","","","","",""
"","","","","","image-button-response","31","153945","0.0-2.0-2.0-1.13","636148a08e1e96b962192d3f","F1","batch6","spm_respsonse","7362","img/question_2_2.jpeg","5","mat_14","6","1","1","7362","","","","","","","","","","","","","","","","","","","","",""
"","","","","","html-keyboard-response","32","155014","0.0-2.0-2.0-0.14","636148a08e1e96b962192d3f","F1","batch6","spm_show_trial_num","null","<p class=block-text>Trial 15 out of 60</p>","null","","","","","","","","","","","","","","","","","","","","","","","","","",""
"","","","","","image-button-response","33","157948","0.0-2.0-2.0-1.14","636148a08e1e96b962192d3f","F1","batch6","spm_respsonse","2932.5","img/question_2_3.jpeg","0","mat_15","1","1","1","2932.5","","","","","","","","","","","","","","","","","","","","",""
"","","","","","html-keyboard-response","34","159003","0.0-2.0-2.0-0.15","636148a08e1e96b962192d3f","F1","batch6","spm_show_trial_num","null","<p class=block-text>Trial 16 out of 60</p>","null","","","","","","","","","","","","","","","","","","","","","","","","","",""
"","","","","","image-button-response","35","165020","0.0-2.0-2.0-1.15","636148a08e1e96b962192d3f","F1","batch6","spm_respsonse","6015.5","img/question_2_4.jpeg","1","mat_16","2","1","1","6015.5","","","","","","","","","","","","","","","","","","","","",""
"","","","","","html-keyboard-response","36","166085","0.0-2.0-2.0-0.16","636148a08e1e96b962192d3f","F1","batch6","spm_show_trial_num","null","<p class=block-text>Trial 17 out of 60</p>","null","","","","","","","","","","","","","","","","","","","","","","","","","",""
"","","","","","image-button-response","37","169400","0.0-2.0-2.0-1.16","636148a08e1e96b962192d3f","F1","batch6","spm_respsonse","3313.2000000476837","img/question_2_5.jpeg","0","mat_17","1","1","1","3313.2000000476837","","","","","","","","","","","","","","","","","","","","",""
"","","","","","html-keyboard-response","38","170453","0.0-2.0-2.0-0.17","636148a08e1e96b962192d3f","F1","batch6","spm_show_trial_num","null","<p class=block-text>Trial 18 out of 60</p>","null","","","","","","","","","","","","","","","","","","","","","","","","","",""
"","","","","","image-button-response","39","181262","0.0-2.0-2.0-1.17","636148a08e1e96b962192d3f","F1","batch6","spm_respsonse","10807.5","img/question_2_6.jpeg","2","mat_18","3","1","1","10807.5","","","","","","","","","","","","","","","","","","","","",""
"","","","","","html-keyboard-response","40","182334","0.0-2.0-2.0-0.18","636148a08e1e96b962192d3f","F1","batch6","spm_show_trial_num","null","<p class=block-text>Trial 19 out of 60</p>","null","","","","","","","","","","","","","","","","","","","","","","","","","",""
"","","","","","image-button-response","41","188402","0.0-2.0-2.0-1.18","636148a08e1e96b962192d3f","F1","batch6","spm_respsonse","6066.300000190735","img/question_2_7.jpeg","4","mat_19","5","1","1","6066.300000190735","","","","","","","","","","","","","","","","","","","","",""
"","","","","","html-keyboard-response","42","189464","0.0-2.0-2.0-0.19","636148a08e1e96b962192d3f","F1","batch6","spm_show_trial_num","null","<p class=block-text>Trial 20 out of 60</p>","null","","","","","","","","","","","","","","","","","","","","","","","","","",""
"","","","","","image-button-response","43","195589","0.0-2.0-2.0-1.19","636148a08e1e96b962192d3f","F1","batch6","spm_respsonse","6122.900000095367","img/question_2_8.jpeg","5","mat_20","6","1","1","6122.900000095367","","","","","","","","","","","","","","","","","","","","",""
"","","","","","html-keyboard-response","44","196660","0.0-2.0-2.0-0.20","636148a08e1e96b962192d3f","F1","batch6","spm_show_trial_num","null","<p class=block-text>Trial 21 out of 60</p>","null","","","","","","","","","","","","","","","","","","","","","","","","","",""
"","","","","","image-button-response","45","202156","0.0-2.0-2.0-1.20","636148a08e1e96b962192d3f","F1","batch6","spm_respsonse","5494.200000047684","img/question_2_9.jpeg","3","mat_21","4","1","1","5494.200000047684","","","","","","","","","","","","","","","","","","","","",""
"","","","","","html-keyboard-response","46","203213","0.0-2.0-2.0-0.21","636148a08e1e96b962192d3f","F1","batch6","spm_show_trial_num","null","<p class=block-text>Trial 22 out of 60</p>","null","","","","","","","","","","","","","","","","","","","","","","","","","",""
"","","","","","image-button-response","47","208678","0.0-2.0-2.0-1.21","636148a08e1e96b962192d3f","F1","batch6","spm_respsonse","5463.299999952316","img/question_2_10.jpeg","2","mat_22","3","1","1","5463.299999952316","","","","","","","","","","","","","","","","","","","","",""
"","","","","","html-keyboard-response","48","209751","0.0-2.0-2.0-0.22","636148a08e1e96b962192d3f","F1","batch6","spm_show_trial_num","null","<p class=block-text>Trial 23 out of 60</p>","null","","","","","","","","","","","","","","","","","","","","","","","","","",""
"","","","","","image-button-response","49","215934","0.0-2.0-2.0-1.22","636148a08e1e96b962192d3f","F1","batch6","spm_respsonse","6181.900000095367","img/question_2_11.jpeg","3","mat_23","4","1","1","6181.900000095367","","","","","","","","","","","","","","","","","","","","",""
"","","","","","html-keyboard-response","50","216999","0.0-2.0-2.0-0.23","636148a08e1e96b962192d3f","F1","batch6","spm_show_trial_num","null","<p class=block-text>Trial 24 out of 60</p>","null","","","","","","","","","","","","","","","","","","","","","","","","","",""
"","","","","","image-button-response","51","225700","0.0-2.0-2.0-1.23","636148a08e1e96b962192d3f","F1","batch6","spm_respsonse","8699.599999904633","img/question_2_12.jpeg","4","mat_24","5","1","1","8699.599999904633","","","","","","","","","","","","","","","","","","","","",""
"","","","","","html-button-response","52","227646","0.0-2.0-3.0","636148a08e1e96b962192d3f","F1","batch6","attention_check","1682","<p class = block-text>Attention check: Please choose 1<br></p>","0","","","true","","","","","","","","","","","","","","","","","","","","","","",""
"","","","","","html-keyboard-response","53","228448","0.0-2.0-4.0-0.0","636148a08e1e96b962192d3f","F1","batch6","spm_show_trial_num","null","<p class=block-text>Trial 25 out of 60</p>","null","","","","","","","","","","","","","","","","","","","","","","","","","",""
"","","","","","image-button-response","54","234348","0.0-2.0-4.0-1.0","636148a08e1e96b962192d3f","F1","batch6","spm_respsonse","5898.799999952316","img/question_3_1.jpeg","7","mat_25","8","1","1","5898.799999952316","","","","","","","","","","","","","","","","","","","","",""
"","","","","","html-keyboard-response","55","235408","0.0-2.0-4.0-0.1","636148a08e1e96b962192d3f","F1","batch6","spm_show_trial_num","null","<p class=block-text>Trial 26 out of 60</p>","null","","","","","","","","","","","","","","","","","","","","","","","","","",""
"","","","","","image-button-response","56","243570","0.0-2.0-4.0-1.1","636148a08e1e96b962192d3f","F1","batch6","spm_respsonse","8160.599999904633","img/question_3_2.jpeg","1","mat_26","2","1","1","8160.599999904633","","","","","","","","","","","","","","","","","","","","",""
"","","","","","html-keyboard-response","57","244633","0.0-2.0-4.0-0.2","636148a08e1e96b962192d3f","F1","batch6","spm_show_trial_num","null","<p class=block-text>Trial 27 out of 60</p>","null","","","","","","","","","","","","","","","","","","","","","","","","","",""
"","","","","","image-button-response","58","255352","0.0-2.0-4.0-1.2","636148a08e1e96b962192d3f","F1","batch6","spm_respsonse","10716.599999904633","img/question_3_3.jpeg","2","mat_27","3","1","1","10716.599999904633","","","","","","","","","","","","","","","","","","","","",""
"","","","","","html-keyboard-response","59","256412","0.0-2.0-4.0-0.3","636148a08e1e96b962192d3f","F1","batch6","spm_show_trial_num","null","<p class=block-text>Trial 28 out of 60</p>","null","","","","","","","","","","","","","","","","","","","","","","","","","",""
"","","","","","image-button-response","60","269170","0.0-2.0-4.0-1.3","636148a08e1e96b962192d3f","F1","batch6","spm_respsonse","12756","img/question_3_4.jpeg","7","mat_28","8","1","1","12756","","","","","","","","","","","","","","","","","","","","",""
"","","","","","html-keyboard-response","61","270230","0.0-2.0-4.0-0.4","636148a08e1e96b962192d3f","F1","batch6","spm_show_trial_num","null","<p class=block-text>Trial 29 out of 60</p>","null","","","","","","","","","","","","","","","","","","","","","","","","","",""
"","","","","","image-button-response","62","278258","0.0-2.0-4.0-1.4","636148a08e1e96b962192d3f","F1","batch6","spm_respsonse","8026.200000047684","img/question_3_5.jpeg","6","mat_29","7","1","1","8026.200000047684","","","","","","","","","","","","","","","","","","","","",""
"","","","","","html-keyboard-response","63","279319","0.0-2.0-4.0-0.5","636148a08e1e96b962192d3f","F1","batch6","spm_show_trial_num","null","<p class=block-text>Trial 30 out of 60</p>","null","","","","","","","","","","","","","","","","","","","","","","","","","",""
"","","","","","image-button-response","64","285572","0.0-2.0-4.0-1.5","636148a08e1e96b962192d3f","F1","batch6","spm_respsonse","6251.900000095367","img/question_3_6.jpeg","3","mat_30","4","1","1","6251.900000095367","","","","","","","","","","","","","","","","","","","","",""
"","","","","","html-keyboard-response","65","286633","0.0-2.0-4.0-0.6","636148a08e1e96b962192d3f","F1","batch6","spm_show_trial_num","null","<p class=block-text>Trial 31 out of 60</p>","null","","","","","","","","","","","","","","","","","","","","","","","","","",""
"","","","","","image-button-response","66","292641","0.0-2.0-4.0-1.6","636148a08e1e96b962192d3f","F1","batch6","spm_respsonse","6005.099999904633","img/question_3_7.jpeg","4","mat_31","5","1","1","6005.099999904633","","","","","","","","","","","","","","","","","","","","",""
"","","","","","html-keyboard-response","67","293704","0.0-2.0-4.0-0.7","636148a08e1e96b962192d3f","F1","batch6","spm_show_trial_num","null","<p class=block-text>Trial 32 out of 60</p>","null","","","","","","","","","","","","","","","","","","","","","","","","","",""
"","","","","","image-button-response","68","300180","0.0-2.0-4.0-1.7","636148a08e1e96b962192d3f","F1","batch6","spm_respsonse","6474.600000143051","img/question_3_8.jpeg","0","mat_32","1","1","1","6474.600000143051","","","","","","","","","","","","","","","","","","","","",""
"","","","","","html-keyboard-response","69","301255","0.0-2.0-4.0-0.8","636148a08e1e96b962192d3f","F1","batch6","spm_show_trial_num","null","<p class=block-text>Trial 33 out of 60</p>","null","","","","","","","","","","","","","","","","","","","","","","","","","",""
"","","","","","image-button-response","70","317749","0.0-2.0-4.0-1.8","636148a08e1e96b962192d3f","F1","batch6","spm_respsonse","16491.900000095367","img/question_3_9.jpeg","6","mat_33","7","1","1","16491.900000095367","","","","","","","","","","","","","","","","","","","","",""
"","","","","","html-keyboard-response","71","318810","0.0-2.0-4.0-0.9","636148a08e1e96b962192d3f","F1","batch6","spm_show_trial_num","null","<p class=block-text>Trial 34 out of 60</p>","null","","","","","","","","","","","","","","","","","","","","","","","","","",""
"","","","","","image-button-response","72","367601","0.0-2.0-4.0-1.9","636148a08e1e96b962192d3f","F1","batch6","spm_respsonse","48788.799999952316","img/question_3_10.jpeg","5","mat_34","6","1","1","48788.799999952316","","","","","","","","","","","","","","","","","","","","",""
"","","","","","html-keyboard-response","73","368663","0.0-2.0-4.0-0.10","636148a08e1e96b962192d3f","F1","batch6","spm_show_trial_num","null","<p class=block-text>Trial 35 out of 60</p>","null","","","","","","","","","","","","","","","","","","","","","","","","","",""
"","","","","","image-button-response","74","390572","0.0-2.0-4.0-1.10","636148a08e1e96b962192d3f","F1","batch6","spm_respsonse","21907.89999985695","img/question_3_11.jpeg","0","mat_35","1","1","1","21907.89999985695","","","","","","","","","","","","","","","","","","","","",""
"","","","","","html-keyboard-response","75","391641","0.0-2.0-4.0-0.11","636148a08e1e96b962192d3f","F1","batch6","spm_show_trial_num","null","<p class=block-text>Trial 36 out of 60</p>","null","","","","","","","","","","","","","","","","","","","","","","","","","",""
"","","","","","image-button-response","76","434132","0.0-2.0-4.0-1.11","636148a08e1e96b962192d3f","F1","batch6","spm_respsonse","42489.200000047684","img/question_3_12.jpeg","1","mat_36","2","1","1","42489.200000047684","","","","","","","","","","","","","","","","","","","","",""
"","","","","","html-keyboard-response","77","435192","0.0-2.0-4.0-0.12","636148a08e1e96b962192d3f","F1","batch6","spm_show_trial_num","null","<p class=block-text>Trial 37 out of 60</p>","null","","","","","","","","","","","","","","","","","","","","","","","","","",""
"","","","","","image-button-response","78","441605","0.0-2.0-4.0-1.12","636148a08e1e96b962192d3f","F1","batch6","spm_respsonse","6412.400000095367","img/question_4_1.jpeg","2","mat_37","3","1","1","6412.400000095367","","","","","","","","","","","","","","","","","","","","",""
"","","","","","html-keyboard-response","79","442667","0.0-2.0-4.0-0.13","636148a08e1e96b962192d3f","F1","batch6","spm_show_trial_num","null","<p class=block-text>Trial 38 out of 60</p>","null","","","","","","","","","","","","","","","","","","","","","","","","","",""
"","","","","","image-button-response","80","454143","0.0-2.0-4.0-1.13","636148a08e1e96b962192d3f","F1","batch6","spm_respsonse","11474.700000047684","img/question_4_2.jpeg","3","mat_38","4","1","1","11474.700000047684","","","","","","","","","","","","","","","","","","","","",""
"","","","","","html-keyboard-response","81","455205","0.0-2.0-4.0-0.14","636148a08e1e96b962192d3f","F1","batch6","spm_show_trial_num","null","<p class=block-text>Trial 39 out of 60</p>","null","","","","","","","","","","","","","","","","","","","","","","","","","",""
"","","","","","image-button-response","82","467846","0.0-2.0-4.0-1.14","636148a08e1e96b962192d3f","F1","batch6","spm_respsonse","12638.899999856949","img/question_4_3.jpeg","2","mat_39","3","1","1","12638.899999856949","","","","","","","","","","","","","","","","","","","","",""
"","","","","","html-keyboard-response","83","468917","0.0-2.0-4.0-0.15","636148a08e1e96b962192d3f","F1","batch6","spm_show_trial_num","null","<p class=block-text>Trial 40 out of 60</p>","null","","","","","","","","","","","","","","","","","","","","","","","","","",""
"","","","","","image-button-response","84","490825","0.0-2.0-4.0-1.15","636148a08e1e96b962192d3f","F1","batch6","spm_respsonse","21906.400000095367","img/question_4_4.jpeg","6","mat_40","7","1","1","21906.400000095367","","","","","","","","","","","","","","","","","","","","",""
"","","","","","html-keyboard-response","85","491892","0.0-2.0-4.0-0.16","636148a08e1e96b962192d3f","F1","batch6","spm_show_trial_num","null","<p class=block-text>Trial 41 out of 60</p>","null","","","","","","","","","","","","","","","","","","","","","","","","","",""
"","","","","","image-button-response","86","511686","0.0-2.0-4.0-1.16","636148a08e1e96b962192d3f","F1","batch6","spm_respsonse","19792","img/question_4_5.jpeg","7","mat_41","8","1","1","19792","","","","","","","","","","","","","","","","","","","","",""
"","","","","","html-keyboard-response","87","512747","0.0-2.0-4.0-0.17","636148a08e1e96b962192d3f","F1","batch6","spm_show_trial_num","null","<p class=block-text>Trial 42 out of 60</p>","null","","","","","","","","","","","","","","","","","","","","","","","","","",""
"","","","","","image-button-response","88","527707","0.0-2.0-4.0-1.17","636148a08e1e96b962192d3f","F1","batch6","spm_respsonse","14957.799999952316","img/question_4_6.jpeg","5","mat_42","6","1","1","14957.799999952316","","","","","","","","","","","","","","","","","","","","",""
"","","","","","html-keyboard-response","89","528774","0.0-2.0-4.0-0.18","636148a08e1e96b962192d3f","F1","batch6","spm_show_trial_num","null","<p class=block-text>Trial 43 out of 60</p>","null","","","","","","","","","","","","","","","","","","","","","","","","","",""
"","","","","","image-button-response","90","584297","0.0-2.0-4.0-1.18","636148a08e1e96b962192d3f","F1","batch6","spm_respsonse","55521.699999809265","img/question_4_7.jpeg","4","mat_43","5","1","1","55521.699999809265","","","","","","","","","","","","","","","","","","","","",""
"","","","","","html-keyboard-response","91","585366","0.0-2.0-4.0-0.19","636148a08e1e96b962192d3f","F1","batch6","spm_show_trial_num","null","<p class=block-text>Trial 44 out of 60</p>","null","","","","","","","","","","","","","","","","","","","","","","","","","",""
"","","","","","image-button-response","92","591570","0.0-2.0-4.0-1.19","636148a08e1e96b962192d3f","F1","batch6","spm_respsonse","6202.099999904633","img/question_4_8.jpeg","3","mat_44","4","1","1","6202.099999904633","","","","","","","","","","","","","","","","","","","","",""
"","","","","","html-keyboard-response","93","592638","0.0-2.0-4.0-0.20","636148a08e1e96b962192d3f","F1","batch6","spm_show_trial_num","null","<p class=block-text>Trial 45 out of 60</p>","null","","","","","","","","","","","","","","","","","","","","","","","","","",""
"","","","","","image-button-response","94","626114","0.0-2.0-4.0-1.20","636148a08e1e96b962192d3f","F1","batch6","spm_respsonse","33473.800000190735","img/question_4_9.jpeg","0","mat_45","1","1","1","33473.800000190735","","","","","","","","","","","","","","","","","","","","",""
"","","","","","html-keyboard-response","95","627182","0.0-2.0-4.0-0.21","636148a08e1e96b962192d3f","F1","batch6","spm_show_trial_num","null","<p class=block-text>Trial 46 out of 60</p>","null","","","","","","","","","","","","","","","","","","","","","","","","","",""
"","","","","","image-button-response","96","658114","0.0-2.0-4.0-1.21","636148a08e1e96b962192d3f","F1","batch6","spm_respsonse","30929.700000047684","img/question_4_10.jpeg","1","mat_46","2","1","1","30929.700000047684","","","","","","","","","","","","","","","","","","","","",""
"","","","","","html-keyboard-response","97","659167","0.0-2.0-4.0-0.22","636148a08e1e96b962192d3f","F1","batch6","spm_show_trial_num","null","<p class=block-text>Trial 47 out of 60</p>","null","","","","","","","","","","","","","","","","","","","","","","","","","",""
"","","","","","image-button-response","98","759789","0.0-2.0-4.0-1.22","636148a08e1e96b962192d3f","F1","batch6","spm_respsonse","100619.59999990463","img/question_4_11.jpeg","4","mat_47","5","1","1","100619.59999990463","","","","","","","","","","","","","","","","","","","","",""
"","","","","","html-keyboard-response","99","760864","0.0-2.0-4.0-0.23","636148a08e1e96b962192d3f","F1","batch6","spm_show_trial_num","null","<p class=block-text>Trial 48 out of 60</p>","null","","","","","","","","","","","","","","","","","","","","","","","","","",""
"","","","","","image-button-response","100","929888","0.0-2.0-4.0-1.23","636148a08e1e96b962192d3f","F1","batch6","spm_respsonse","169022","img/question_4_12.jpeg","5","mat_48","6","1","1","169022","","","","","","","","","","","","","","","","","","","","",""
"","","","","","html-keyboard-response","101","930947","0.0-2.0-4.0-0.24","636148a08e1e96b962192d3f","F1","batch6","spm_show_trial_num","null","<p class=block-text>Trial 49 out of 60</p>","null","","","","","","","","","","","","","","","","","","","","","","","","","",""
"","","","","","image-button-response","102","947576","0.0-2.0-4.0-1.24","636148a08e1e96b962192d3f","F1","batch6","spm_respsonse","16627.10000014305","img/question_5_1.jpeg","6","mat_49","7","1","1","16627.10000014305","","","","","","","","","","","","","","","","","","","","",""
"","","","","","html-keyboard-response","103","948649","0.0-2.0-4.0-0.25","636148a08e1e96b962192d3f","F1","batch6","spm_show_trial_num","null","<p class=block-text>Trial 50 out of 60</p>","null","","","","","","","","","","","","","","","","","","","","","","","","","",""
"","","","","","image-button-response","104","985188","0.0-2.0-4.0-1.25","636148a08e1e96b962192d3f","F1","batch6","spm_respsonse","36537.59999990463","img/question_5_2.jpeg","5","mat_50","6","1","1","36537.59999990463","","","","","","","","","","","","","","","","","","","","",""
"","","","","","html-keyboard-response","105","986249","0.0-2.0-4.0-0.26","636148a08e1e96b962192d3f","F1","batch6","spm_show_trial_num","null","<p class=block-text>Trial 51 out of 60</p>","null","","","","","","","","","","","","","","","","","","","","","","","","","",""
"","","","","","image-button-response","106","1008731","0.0-2.0-4.0-1.26","636148a08e1e96b962192d3f","F1","batch6","spm_respsonse","22480.200000047684","img/question_5_3.jpeg","7","mat_51","8","1","1","22480.200000047684","","","","","","","","","","","","","","","","","","","","",""
"","","","","","html-keyboard-response","107","1009805","0.0-2.0-4.0-0.27","636148a08e1e96b962192d3f","F1","batch6","spm_show_trial_num","null","<p class=block-text>Trial 52 out of 60</p>","null","","","","","","","","","","","","","","","","","","","","","","","","","",""
"","","","","","image-button-response","108","1038296","0.0-2.0-4.0-1.27","636148a08e1e96b962192d3f","F1","batch6","spm_respsonse","28489.299999952316","img/question_5_4.jpeg","2","mat_52","2","0","0","28489.299999952316","","","","","","","","","","","","","","","","","","","","",""
"","","","","","html-keyboard-response","109","1039356","0.0-2.0-4.0-0.28","636148a08e1e96b962192d3f","F1","batch6","spm_show_trial_num","null","<p class=block-text>Trial 53 out of 60</p>","null","","","","","","","","","","","","","","","","","","","","","","","","","",""
"","","","","","image-button-response","110","1055677","0.0-2.0-4.0-1.28","636148a08e1e96b962192d3f","F1","batch6","spm_respsonse","16318.799999952316","img/question_5_5.jpeg","0","mat_53","1","1","1","16318.799999952316","","","","","","","","","","","","","","","","","","","","",""
"","","","","","html-keyboard-response","111","1056745","0.0-2.0-4.0-0.29","636148a08e1e96b962192d3f","F1","batch6","spm_show_trial_num","null","<p class=block-text>Trial 54 out of 60</p>","null","","","","","","","","","","","","","","","","","","","","","","","","","",""
"","","","","","image-button-response","112","1088304","0.0-2.0-4.0-1.29","636148a08e1e96b962192d3f","F1","batch6","spm_respsonse","31557","img/question_5_6.jpeg","4","mat_54","5","1","1","31557","","","","","","","","","","","","","","","","","","","","",""
"","","","","","html-keyboard-response","113","1089366","0.0-2.0-4.0-0.30","636148a08e1e96b962192d3f","F1","batch6","spm_show_trial_num","null","<p class=block-text>Trial 55 out of 60</p>","null","","","","","","","","","","","","","","","","","","","","","","","","","",""
"","","","","","image-button-response","114","1114980","0.0-2.0-4.0-1.30","636148a08e1e96b962192d3f","F1","batch6","spm_respsonse","25613","img/question_5_7.jpeg","0","mat_55","1","1","1","25613","","","","","","","","","","","","","","","","","","","","",""
"","","","","","html-keyboard-response","115","1116039","0.0-2.0-4.0-0.31","636148a08e1e96b962192d3f","F1","batch6","spm_show_trial_num","null","<p class=block-text>Trial 56 out of 60</p>","null","","","","","","","","","","","","","","","","","","","","","","","","","",""
"","","","","","image-button-response","116","1131580","0.0-2.0-4.0-1.31","636148a08e1e96b962192d3f","F1","batch6","spm_respsonse","15539.799999952316","img/question_5_8.jpeg","5","mat_56","6","1","1","15539.799999952316","","","","","","","","","","","","","","","","","","","","",""
"","","","","","html-keyboard-response","117","1132633","0.0-2.0-4.0-0.32","636148a08e1e96b962192d3f","F1","batch6","spm_show_trial_num","null","<p class=block-text>Trial 57 out of 60</p>","null","","","","","","","","","","","","","","","","","","","","","","","","","",""
"","","","","","image-button-response","118","1163179","0.0-2.0-4.0-1.32","636148a08e1e96b962192d3f","F1","batch6","spm_respsonse","30543.099999904633","img/question_5_9.jpeg","2","mat_57","3","1","1","30543.099999904633","","","","","","","","","","","","","","","","","","","","",""
"","","","","","html-keyboard-response","119","1164242","0.0-2.0-4.0-0.33","636148a08e1e96b962192d3f","F1","batch6","spm_show_trial_num","null","<p class=block-text>Trial 58 out of 60</p>","null","","","","","","","","","","","","","","","","","","","","","","","","","",""
"","","","","","image-button-response","120","1221574","0.0-2.0-4.0-1.33","636148a08e1e96b962192d3f","F1","batch6","spm_respsonse","57330.200000047684","img/question_5_10.jpeg","1","mat_58","2","1","1","57330.200000047684","","","","","","","","","","","","","","","","","","","","",""
"","","","","","html-keyboard-response","121","1222644","0.0-2.0-4.0-0.34","636148a08e1e96b962192d3f","F1","batch6","spm_show_trial_num","null","<p class=block-text>Trial 59 out of 60</p>","null","","","","","","","","","","","","","","","","","","","","","","","","","",""
"","","","","","image-button-response","122","1377291","0.0-2.0-4.0-1.34","636148a08e1e96b962192d3f","F1","batch6","spm_respsonse","154645.70000004768","img/question_5_11.jpeg","6","mat_59","4","0","0","154645.70000004768","","","","","","","","","","","","","","","","","","","","",""
"","","","","","html-keyboard-response","123","1378353","0.0-2.0-4.0-0.35","636148a08e1e96b962192d3f","F1","batch6","spm_show_trial_num","null","<p class=block-text>Trial 60 out of 60</p>","null","","","","","","","","","","","","","","","","","","","","","","","","","",""
"","","","","","image-button-response","124","1602752","0.0-2.0-4.0-1.35","636148a08e1e96b962192d3f","F1","batch6","spm_respsonse","224397","img/question_5_12.jpeg","4","mat_60","5","1","1","224397","","","","","","","","","","","","","","","","","","","","",""
"","","","","","html-button-response","125","1605274","0.0-2.0-5.0","636148a08e1e96b962192d3f","F1","batch6","spm_goodbye","2261.7999999523163","<p class= block-text>This concludes the Standard Progressive Matrix game. Thank you for your responses!<br> When you are ready, click the button continue</p>","0","","","","","","","","","","","","","","","","","","","","","","","","","",""
"true","","","","","fullscreen","126","1610111","0.0-3.0-0.0","636148a08e1e96b962192d3f","F1","batch6","","","","","","","","","","","","","","","","","","","","","","","","","","","","","",""
"","","","","","instructions","127","1677537","0.0-3.0-1.0-0.0-0.0","636148a08e1e96b962192d3f","F1","batch6","tol-instructions","67425.29999995232","","","","","","","","[{""page_index"":0,""viewing_time"":15183},{""page_index"":1,""viewing_time"":5946.200000047684},{""page_index"":2,""viewing_time"":3981.699999809265},{""page_index"":3,""viewing_time"":10579},{""page_index"":4,""viewing_time"":11266.700000047684},{""page_index"":5,""viewing_time"":16738.200000047684},{""page_index"":6,""viewing_time"":3730.0999999046326}]","","","","","","","","","","","","","","","","","","","",""
"","","","","","html-button-response","128","1678486","0.0-3.0-1.0-1.0-0.0","636148a08e1e96b962192d3f","F1","batch6","tol_enter_quiz","948.6999998092651","<p class=block-text> Let's answer a few questions <br>","0","","","","","","","","","","","","","","","","","","","","","","","","","",""
"","","","","","html-button-response","129","1681858","0.0-3.0-1.0-1.0-1.0","636148a08e1e96b962192d3f","F1","batch6","tol_quiz","3371.5999999046326","<p class = block-text>True or False: You can only move the ball on top of a peg. <br></p>","0","","","true","","","","","","","","","","","","","","","","","","","","","","",""
"","","","","","html-button-response","130","1683500","0.0-3.0-1.0-1.0-2.0","636148a08e1e96b962192d3f","F1","batch6","tol_quiz_feedback","1640.2999999523163","<p class = block-text>Correct! You can only move the ball on top of a peg.</p>","0","","","","","","","","","","","","","","","","","","","","","","","","","",""
"","","","","","html-button-response","131","1686046","0.0-3.0-1.0-1.0-3.0","636148a08e1e96b962192d3f","F1","batch6","tol_quiz","2545.0999999046326","<p class = block-text>True or False: You should try to match your board with the target board with fewest moves possible. <br></p>","0","","","true","","","","","","","","","","","","","","","","","","","","","","",""
"","","","","","html-button-response","132","1686716","0.0-3.0-1.0-1.0-4.0","636148a08e1e96b962192d3f","F1","batch6","tol_quiz_feedback","669.7000000476837","<p class = block-text>Correct! </p>","0","","","","","","","","","","","","","","","","","","","","","","","","","",""
"","","","","","html-button-response","133","1688688","0.0-3.0-2.0","636148a08e1e96b962192d3f","F1","batch6","","1970","<p class=block-text> Now that you've understood the game, let's practice a few easier examples before we start!<br> <br>","0","","","","","","","","","","","","","","","","","","","","","","","","","",""
"","","","","","single-stim-button","134","1690901","0.0-3.0-3.0-0.0","636148a08e1e96b962192d3f","F1","batch6","tol_practice","2213","","","","","","","","","tol_peg_2","2213","2213","0","[[1,2,0],[0,0],[0]]","1","[[1,2,0],[0,0],[3]]","practice","2213","","","","","","","","","","",""
"","","","","","single-stim-button","135","1692291","0.0-3.0-3.0-1.0","636148a08e1e96b962192d3f","F1","batch6","tol_practice","1388","","","","","","","","","tol_peg_3","1388","1388","0","[[1,2,0],[0,0],[3]]","1","[[1,2,0],[0,0],[3]]","practice","1388","","","","","","","","","","",""
"","","","","","poldrack-single-stim","136","1693304","0.0-3.0-4.0","636148a08e1e96b962192d3f","F1","batch6","tol_feedback","-1","","","","","true","","","","","1000","1000","500","","","","","","-1","none","true","","0","","","","","",""
"","","","","","single-stim-button","137","1696947","0.0-3.0-5.0-0.0","636148a08e1e96b962192d3f","F1","batch6","tol_practice","3642","","","","","","","","","tol_peg_1","3642","3642","0","[[1,0,0],[3,0],[0]]","2","[[0,0,0],[3,1],[2]]","practice","3642","","","","","","","","","","",""
"","","","","","single-stim-button","138","1698437","0.0-3.0-5.0-1.0","636148a08e1e96b962192d3f","F1","batch6","tol_practice","1489","","","","","","","","","tol_peg_3","1489","1489","0","[[1,0,0],[3,0],[2]]","2","[[0,0,0],[3,1],[2]]","practice","1489","","","","","","","","","","",""
"","","","","","single-stim-button","139","1699925","0.0-3.0-5.1-0.1","636148a08e1e96b962192d3f","F1","batch6","tol_practice","1487","","","","","","","","","tol_peg_1","1487","1487","0","[[0,0,0],[3,0],[2]]","3","[[0,0,0],[3,1],[2]]","practice","1487","","","","","","","","","","",""
"","","","","","single-stim-button","140","1700842","0.0-3.0-5.1-1.1","636148a08e1e96b962192d3f","F1","batch6","tol_practice","916","","","","","","","","","tol_peg_2","916","916","0","[[0,0,0],[3,1],[2]]","3","[[0,0,0],[3,1],[2]]","practice","916","","","","","","","","","","",""
"","","","","","poldrack-single-stim","141","1701850","0.0-3.0-6.0","636148a08e1e96b962192d3f","F1","batch6","tol_feedback","-1","","","","","true","","","","","1000","1000","500","","","","","","-1","none","true","","0","","","","","",""
"","","","","","single-stim-button","142","1706846","0.0-3.0-7.0-0.0","636148a08e1e96b962192d3f","F1","batch6","tol_practice","4995","","","","","","","","","tol_peg_2","4995","4995","0","[[1,2,0],[0,0],[0]]","4","[[1,0,0],[2,0],[3]]","practice","4995","","","","","","","","","","",""
"","","","","","single-stim-button","143","1707653","0.0-3.0-7.0-1.0","636148a08e1e96b962192d3f","F1","batch6","tol_practice","806","","","","","","","","","tol_peg_3","806","806","0","[[1,2,0],[0,0],[3]]","4","[[1,0,0],[2,0],[3]]","practice","806","","","","","","","","","","",""
"","","","","","single-stim-button","144","1709116","0.0-3.0-7.1-0.1","636148a08e1e96b962192d3f","F1","batch6","tol_practice","1462","","","","","","","","","tol_peg_1","1462","1462","0","[[1,0,0],[0,0],[3]]","5","[[1,0,0],[2,0],[3]]","practice","1462","","","","","","","","","","",""
"","","","","","single-stim-button","145","1709626","0.0-3.0-7.1-1.1","636148a08e1e96b962192d3f","F1","batch6","tol_practice","510","","","","","","","","","tol_peg_2","510","510","0","[[1,0,0],[2,0],[3]]","5","[[1,0,0],[2,0],[3]]","practice","510","","","","","","","","","","",""
"","","","","","poldrack-single-stim","146","1710627","0.0-3.0-8.0","636148a08e1e96b962192d3f","F1","batch6","tol_feedback","-1","","","","","true","","","","","1000","1000","500","","","","","","-1","none","true","","0","","","","","",""
"","","","","","html-button-response","147","1713332","0.0-3.0-9.0","636148a08e1e96b962192d3f","F1","batch6","tol_instruction","2704.600000143051","<div class = centerbox><p class = center-block-text>Great job! You are done with practice trials<br>You are about to start official trials.<br> <br> Problem <strong>1</strong> out of 25 problems</p></div>","0","","","","","","","","","","","","","","","","","","","","","","","","","",""
"","","","","","single-stim-button","148","1730712","0.0-3.0-10.0-0.0","636148a08e1e96b962192d3f","F1","batch6","tol_tohand","16367","","","","","","","","","tol_peg_1","16367","16367","0","[[1,0,0],[3,0],[0]]","1","[[1,3,0],[2,0],[0]]","0","0","","","","","","3","","","","",""
"","","","","","single-stim-button","149","1734318","0.0-3.0-10.0-1.0","636148a08e1e96b962192d3f","F1","batch6","tol_toboard","3605","","","","","","","","","tol_peg_2","3605","3605","0","[[1,0,0],[3,2],[0]]","1","[[1,3,0],[2,0],[0]]","0","0","","","","","","3","","","","",""
"","","","","","single-stim-button","150","1737806","0.0-3.0-10.1-0.1","636148a08e1e96b962192d3f","F1","batch6","tol_tohand","3488","","","","","","","","","tol_peg_2","3488","3488","0","[[1,0,0],[3,0],[0]]","2","[[1,3,0],[2,0],[0]]","0","0","","","","","","3","","","","",""
"","","","","","single-stim-button","151","1738489","0.0-3.0-10.1-1.1","636148a08e1e96b962192d3f","F1","batch6","tol_toboard","683","","","","","","","","","tol_peg_3","683","683","0","[[1,0,0],[3,0],[2]]","2","[[1,3,0],[2,0],[0]]","0","0","","","","","","3","","","","",""
"","","","","","single-stim-button","152","1739384","0.0-3.0-10.2-0.2","636148a08e1e96b962192d3f","F1","batch6","tol_tohand","893","","","","","","","","","tol_peg_2","893","893","0","[[1,0,0],[0,0],[2]]","3","[[1,3,0],[2,0],[0]]","0","0","","","","","","3","","","","",""
"","","","","","single-stim-button","153","1739940","0.0-3.0-10.2-1.2","636148a08e1e96b962192d3f","F1","batch6","tol_toboard","556","","","","","","","","","tol_peg_1","556","556","0","[[1,3,0],[0,0],[2]]","3","[[1,3,0],[2,0],[0]]","0","0","","","","","","3","","","","",""
"","","","","","single-stim-button","154","1741130","0.0-3.0-10.3-0.3","636148a08e1e96b962192d3f","F1","batch6","tol_tohand","1189","","","","","","","","","tol_peg_3","1189","1189","0","[[1,3,0],[0,0],[0]]","4","[[1,3,0],[2,0],[0]]","0","0","","","","","","3","","","","",""
"","","","","","single-stim-button","155","1741659","0.0-3.0-10.3-1.3","636148a08e1e96b962192d3f","F1","batch6","tol_toboard","528","","","","","","","","","tol_peg_2","528","528","0","[[1,3,0],[2,0],[0]]","4","[[1,3,0],[2,0],[0]]","0","0","","","","","","3","","","","",""
"","","","","","poldrack-single-stim","156","1742666","0.0-3.0-11.0","636148a08e1e96b962192d3f","F1","batch6","tol_feedback","-1","","","","","true","","","","","1000","1000","500","","","","","","-1","none","true","16367","21937","","","","","",""
"","","","","","html-button-response","157","1743562","0.0-3.0-12.0","636148a08e1e96b962192d3f","F1","batch6","tol_trial_num","894.7999999523163","<div class = centerbox><p class = center-block-text>problem <strong>2</strong> out of 25 problems</p></div>","0","","","","","","","","","","","","","","","","","","","","","","","","","",""
"","","","","","single-stim-button","158","1754020","0.0-3.0-13.0-0.0","636148a08e1e96b962192d3f","F1","batch6","tol_tohand","10457","","","","","","","","","tol_peg_1","10457","10457","0","[[1,0,0],[3,0],[0]]","1","[[2,1,3],[0,0],[0]]","1","0","","","","","","5","","","","",""
"","","","","","single-stim-button","159","1754771","0.0-3.0-13.0-1.0","636148a08e1e96b962192d3f","F1","batch6","tol_toboard","750","","","","","","","","","tol_peg_3","750","750","0","[[1,0,0],[3,0],[2]]","1","[[2,1,3],[0,0],[0]]","1","0","","","","","","5","","","","",""
"","","","","","single-stim-button","160","1758845","0.0-3.0-13.1-0.1","636148a08e1e96b962192d3f","F1","batch6","tol_tohand","4074","","","","","","","","","tol_peg_1","4074","4074","0","[[0,0,0],[3,0],[2]]","2","[[2,1,3],[0,0],[0]]","1","0","","","","","","5","","","","",""
"","","","","","single-stim-button","161","1759493","0.0-3.0-13.1-1.1","636148a08e1e96b962192d3f","F1","batch6","tol_toboard","647","","","","","","","","","tol_peg_2","647","647","0","[[0,0,0],[3,1],[2]]","2","[[2,1,3],[0,0],[0]]","1","0","","","","","","5","","","","",""
"","","","","","single-stim-button","162","1760429","0.0-3.0-13.2-0.2","636148a08e1e96b962192d3f","F1","batch6","tol_tohand","935","","","","","","","","","tol_peg_3","935","935","0","[[0,0,0],[3,1],[0]]","3","[[2,1,3],[0,0],[0]]","1","0","","","","","","5","","","","",""
"","","","","","single-stim-button","163","1761380","0.0-3.0-13.2-1.2","636148a08e1e96b962192d3f","F1","batch6","tol_toboard","950","","","","","","","","","tol_peg_1","950","950","0","[[2,0,0],[3,1],[0]]","3","[[2,1,3],[0,0],[0]]","1","0","","","","","","5","","","","",""
"","","","","","single-stim-button","164","1762194","0.0-3.0-13.3-0.3","636148a08e1e96b962192d3f","F1","batch6","tol_tohand","813","","","","","","","","","tol_peg_2","813","813","0","[[2,0,0],[3,0],[0]]","4","[[2,1,3],[0,0],[0]]","1","0","","","","","","5","","","","",""
"","","","","","single-stim-button","165","1762908","0.0-3.0-13.3-1.3","636148a08e1e96b962192d3f","F1","batch6","tol_toboard","714","","","","","","","","","tol_peg_1","714","714","0","[[2,1,0],[3,0],[0]]","4","[[2,1,3],[0,0],[0]]","1","0","","","","","","5","","","","",""
"","","","","","single-stim-button","166","1763342","0.0-3.0-13.4-0.4","636148a08e1e96b962192d3f","F1","batch6","tol_tohand","434","","","","","","","","","tol_peg_2","434","434","0","[[2,1,0],[0,0],[0]]","5","[[2,1,3],[0,0],[0]]","1","0","","","","","","5","","","","",""
"","","","","","single-stim-button","167","1763886","0.0-3.0-13.4-1.4","636148a08e1e96b962192d3f","F1","batch6","tol_toboard","544","","","","","","","","","tol_peg_1","544","544","0","[[2,1,3],[0,0],[0]]","5","[[2,1,3],[0,0],[0]]","1","0","","","","","","5","","","","",""
"","","","","","poldrack-single-stim","168","1764887","0.0-3.0-14.0","636148a08e1e96b962192d3f","F1","batch6","tol_feedback","-1","","","","","true","","","","","1000","1000","500","","","","","","-1","none","true","10457","16713","","","","","",""
"","","","","","html-button-response","169","1765990","0.0-3.0-15.0","636148a08e1e96b962192d3f","F1","batch6","tol_trial_num","1102.2999999523163","<div class = centerbox><p class = center-block-text>problem <strong>3</strong> out of 25 problems</p></div>","0","","","","","","","","","","","","","","","","","","","","","","","","","",""
"","","","","","single-stim-button","170","1770237","0.0-3.0-16.0-0.0","636148a08e1e96b962192d3f","F1","batch6","tol_tohand","4245","","","","","","","","","tol_peg_1","4245","4245","0","[[2,0,0],[0,0],[1]]","1","[[1,2,0],[3,0],[0]]","2","0","","","","","","4","","","","",""
"","","","","","single-stim-button","171","1770817","0.0-3.0-16.0-1.0","636148a08e1e96b962192d3f","F1","batch6","tol_toboard","579","","","","","","","","","tol_peg_2","579","579","0","[[2,0,0],[3,0],[1]]","1","[[1,2,0],[3,0],[0]]","2","0","","","","","","4","","","","",""
"","","","","","single-stim-button","172","1773495","0.0-3.0-16.1-0.1","636148a08e1e96b962192d3f","F1","batch6","tol_tohand","2677","","","","","","","","","tol_peg_1","2677","2677","0","[[0,0,0],[3,0],[1]]","2","[[1,2,0],[3,0],[0]]","2","0","","","","","","4","","","","",""
"","","","","","single-stim-button","173","1774252","0.0-3.0-16.1-1.1","636148a08e1e96b962192d3f","F1","batch6","tol_toboard","757","","","","","","","","","tol_peg_2","757","757","0","[[0,0,0],[3,2],[1]]","2","[[1,2,0],[3,0],[0]]","2","0","","","","","","4","","","","",""
"","","","","","single-stim-button","174","1775504","0.0-3.0-16.2-0.2","636148a08e1e96b962192d3f","F1","batch6","tol_tohand","1251","","","","","","","","","tol_peg_3","1251","1251","0","[[0,0,0],[3,2],[0]]","3","[[1,2,0],[3,0],[0]]","2","0","","","","","","4","","","","",""
"","","","","","single-stim-button","175","1776484","0.0-3.0-16.2-1.2","636148a08e1e96b962192d3f","F1","batch6","tol_toboard","979","","","","","","","","","tol_peg_1","979","979","0","[[1,0,0],[3,2],[0]]","3","[[1,2,0],[3,0],[0]]","2","0","","","","","","4","","","","",""
"","","","","","single-stim-button","176","1778358","0.0-3.0-16.3-0.3","636148a08e1e96b962192d3f","F1","batch6","tol_tohand","1874","","","","","","","","","tol_peg_2","1874","1874","0","[[1,0,0],[3,0],[0]]","4","[[1,2,0],[3,0],[0]]","2","0","","","","","","4","","","","",""
"","","","","","single-stim-button","177","1778809","0.0-3.0-16.3-1.3","636148a08e1e96b962192d3f","F1","batch6","tol_toboard","449","","","","","","","","","tol_peg_1","449","449","0","[[1,2,0],[3,0],[0]]","4","[[1,2,0],[3,0],[0]]","2","0","","","","","","4","","","","",""
"","","","","","poldrack-single-stim","178","1779810","0.0-3.0-17.0","636148a08e1e96b962192d3f","F1","batch6","tol_feedback","-1","","","","","true","","","","","1000","1000","500","","","","","","-1","none","true","4245","10047","","","","","",""
"","","","","","html-button-response","179","1780838","0.0-3.0-18.0","636148a08e1e96b962192d3f","F1","batch6","tol_trial_num","1027.7000000476837","<div class = centerbox><p class = center-block-text>problem <strong>4</strong> out of 25 problems</p></div>","0","","","","","","","","","","","","","","","","","","","","","","","","","",""
"","","","","","single-stim-button","180","1788114","0.0-3.0-19.0-0.0","636148a08e1e96b962192d3f","F1","batch6","tol_tohand","7276","","","","","","","","","tol_peg_2","7276","7276","0","[[3,0,0],[2,0],[0]]","1","[[3,0,0],[1,0],[2]]","3","0","","","","","","3","","","","",""
"","","","","","single-stim-button","181","1788758","0.0-3.0-19.0-1.0","636148a08e1e96b962192d3f","F1","batch6","tol_toboard","644","","","","","","","","","tol_peg_1","644","644","0","[[3,1,0],[2,0],[0]]","1","[[3,0,0],[1,0],[2]]","3","0","","","","","","3","","","","",""
"","","","","","single-stim-button","182","1789628","0.0-3.0-19.1-0.1","636148a08e1e96b962192d3f","F1","batch6","tol_tohand","869","","","","","","","","","tol_peg_2","869","869","0","[[3,1,0],[0,0],[0]]","2","[[3,0,0],[1,0],[2]]","3","0","","","","","","3","","","","",""
"","","","","","single-stim-button","183","1790280","0.0-3.0-19.1-1.1","636148a08e1e96b962192d3f","F1","batch6","tol_toboard","652","","","","","","","","","tol_peg_3","652","652","0","[[3,1,0],[0,0],[2]]","2","[[3,0,0],[1,0],[2]]","3","0","","","","","","3","","","","",""
"","","","","","single-stim-button","184","1790962","0.0-3.0-19.2-0.2","636148a08e1e96b962192d3f","F1","batch6","tol_tohand","682","","","","","","","","","tol_peg_1","682","682","0","[[3,0,0],[0,0],[2]]","3","[[3,0,0],[1,0],[2]]","3","0","","","","","","3","","","","",""
"","","","","","single-stim-button","185","1791465","0.0-3.0-19.2-1.2","636148a08e1e96b962192d3f","F1","batch6","tol_toboard","501","","","","","","","","","tol_peg_2","501","501","0","[[3,0,0],[1,0],[2]]","3","[[3,0,0],[1,0],[2]]","3","0","","","","","","3","","","","",""
"","","","","","poldrack-single-stim","186","1792469","0.0-3.0-20.0","636148a08e1e96b962192d3f","F1","batch6","tol_feedback","-1","","","","","true","","","","","1000","1000","500","","","","","","-1","none","true","7276","8827","","","","","",""
"","","","","","html-button-response","187","1793238","0.0-3.0-21.0","636148a08e1e96b962192d3f","F1","batch6","tol_trial_num","767.5","<div class = centerbox><p class = center-block-text>problem <strong>5</strong> out of 25 problems</p></div>","0","","","","","","","","","","","","","","","","","","","","","","","","","",""
"","","","","","single-stim-button","188","1876180","0.0-3.0-22.0-0.0","636148a08e1e96b962192d3f","F1","batch6","tol_tohand","82942","","","","","","","","","tol_peg_3","82942","82942","0","[[1,0,0],[2,0],[0]]","1","[[0,0,0],[1,2],[3]]","4","0","","","","","","7","","","","",""
"","","","","","single-stim-button","189","1879810","0.0-3.0-22.0-1.0","636148a08e1e96b962192d3f","F1","batch6","tol_toboard","3630","","","","","","","","","tol_peg_1","3630","3630","0","[[1,3,0],[2,0],[0]]","1","[[0,0,0],[1,2],[3]]","4","0","","","","","","7","","","","",""
"","","","","","single-stim-button","190","1881264","0.0-3.0-22.1-0.1","636148a08e1e96b962192d3f","F1","batch6","tol_tohand","1453","","","","","","","","","tol_peg_2","1453","1453","0","[[1,3,0],[0,0],[0]]","2","[[0,0,0],[1,2],[3]]","4","0","","","","","","7","","","","",""
"","","","","","single-stim-button","191","1881679","0.0-3.0-22.1-1.1","636148a08e1e96b962192d3f","F1","batch6","tol_toboard","413","","","","","","","","","tol_peg_3","413","413","0","[[1,3,0],[0,0],[2]]","2","[[0,0,0],[1,2],[3]]","4","0","","","","","","7","","","","",""
"","","","","","single-stim-button","192","1910217","0.0-3.0-22.2-0.2","636148a08e1e96b962192d3f","F1","batch6","tol_tohand","28537","","","","","","","","","tol_peg_3","28537","28537","0","[[1,3,0],[0,0],[0]]","3","[[0,0,0],[1,2],[3]]","4","0","","","","","","7","","","","",""
"","","","","","single-stim-button","193","1910708","0.0-3.0-22.2-1.2","636148a08e1e96b962192d3f","F1","batch6","tol_toboard","491","","","","","","","","","tol_peg_2","491","491","0","[[1,3,0],[2,0],[0]]","3","[[0,0,0],[1,2],[3]]","4","0","","","","","","7","","","","",""
"","","","","","single-stim-button","194","1913021","0.0-3.0-22.3-0.3","636148a08e1e96b962192d3f","F1","batch6","tol_tohand","2312","","","","","","","","","tol_peg_1","2312","2312","0","[[1,0,0],[2,0],[0]]","4","[[0,0,0],[1,2],[3]]","4","0","","","","","","7","","","","",""
"","","","","","single-stim-button","195","1921929","0.0-3.0-22.3-1.3","636148a08e1e96b962192d3f","F1","batch6","tol_toboard","8907","","","","","","","","","tol_peg_2","8907","8907","0","[[1,0,0],[2,3],[0]]","4","[[0,0,0],[1,2],[3]]","4","0","","","","","","7","","","","",""
"","","","","","single-stim-button","196","1923729","0.0-3.0-22.4-0.4","636148a08e1e96b962192d3f","F1","batch6","tol_tohand","1800","","","","","","","","","tol_peg_1","1800","1800","0","[[0,0,0],[2,3],[0]]","5","[[0,0,0],[1,2],[3]]","4","0","","","","","","7","","","","",""
"","","","","","single-stim-button","197","1924346","0.0-3.0-22.4-1.4","636148a08e1e96b962192d3f","F1","batch6","tol_toboard","617","","","","","","","","","tol_peg_3","617","617","0","[[0,0,0],[2,3],[1]]","5","[[0,0,0],[1,2],[3]]","4","0","","","","","","7","","","","",""
"","","","","","single-stim-button","198","1925062","0.0-3.0-22.5-0.5","636148a08e1e96b962192d3f","F1","batch6","tol_tohand","715","","","","","","","","","tol_peg_2","715","715","0","[[0,0,0],[2,0],[1]]","6","[[0,0,0],[1,2],[3]]","4","0","","","","","","7","","","","",""
"","","","","","single-stim-button","199","1925517","0.0-3.0-22.5-1.5","636148a08e1e96b962192d3f","F1","batch6","tol_toboard","454","","","","","","","","","tol_peg_1","454","454","0","[[3,0,0],[2,0],[1]]","6","[[0,0,0],[1,2],[3]]","4","0","","","","","","7","","","","",""
"","","","","","single-stim-button","200","1926861","0.0-3.0-22.6-0.6","636148a08e1e96b962192d3f","F1","batch6","tol_tohand","1342","","","","","","","","","tol_peg_2","1342","1342","0","[[3,0,0],[0,0],[1]]","7","[[0,0,0],[1,2],[3]]","4","0","","","","","","7","","","","",""
"","","","","","single-stim-button","201","1927464","0.0-3.0-22.6-1.6","636148a08e1e96b962192d3f","F1","batch6","tol_toboard","603","","","","","","","","","tol_peg_1","603","603","0","[[3,2,0],[0,0],[1]]","7","[[0,0,0],[1,2],[3]]","4","0","","","","","","7","","","","",""
"","","","","","single-stim-button","202","1928199","0.0-3.0-22.7-0.7","636148a08e1e96b962192d3f","F1","batch6","tol_tohand","734","","","","","","","","","tol_peg_3","734","734","0","[[3,2,0],[0,0],[0]]","8","[[0,0,0],[1,2],[3]]","4","0","","","","","","7","","","","",""
"","","","","","single-stim-button","203","1928739","0.0-3.0-22.7-1.7","636148a08e1e96b962192d3f","F1","batch6","tol_toboard","539","","","","","","","","","tol_peg_2","539","539","0","[[3,2,0],[1,0],[0]]","8","[[0,0,0],[1,2],[3]]","4","0","","","","","","7","","","","",""
"","","","","","single-stim-button","204","1929595","0.0-3.0-22.8-0.8","636148a08e1e96b962192d3f","F1","batch6","tol_tohand","855","","","","","","","","","tol_peg_1","855","855","0","[[3,0,0],[1,0],[0]]","9","[[0,0,0],[1,2],[3]]","4","0","","","","","","7","","","","",""
"","","","","","single-stim-button","205","1930126","0.0-3.0-22.8-1.8","636148a08e1e96b962192d3f","F1","batch6","tol_toboard","531","","","","","","","","","tol_peg_2","531","531","0","[[3,0,0],[1,2],[0]]","9","[[0,0,0],[1,2],[3]]","4","0","","","","","","7","","","","",""
"","","","","","single-stim-button","206","1930586","0.0-3.0-22.9-0.9","636148a08e1e96b962192d3f","F1","batch6","tol_tohand","459","","","","","","","","","tol_peg_1","459","459","0","[[0,0,0],[1,2],[0]]","10","[[0,0,0],[1,2],[3]]","4","0","","","","","","7","","","","",""
"","","","","","single-stim-button","207","1931098","0.0-3.0-22.9-1.9","636148a08e1e96b962192d3f","F1","batch6","tol_toboard","512","","","","","","","","","tol_peg_3","512","512","0","[[0,0,0],[1,2],[3]]","10","[[0,0,0],[1,2],[3]]","4","0","","","","","","7","","","","",""
"","","","","","poldrack-single-stim","208","1932112","0.0-3.0-23.0","636148a08e1e96b962192d3f","F1","batch6","tol_feedback","-1","","","","","true","","","","","1000","1000","500","","","","","","-1","none","true","82942","121149","","","","","",""
"","","","","","html-button-response","209","1932903","0.0-3.0-24.0","636148a08e1e96b962192d3f","F1","batch6","tol_trial_num","789.5999999046326","<div class = centerbox><p class = center-block-text>problem <strong>6</strong> out of 25 problems</p></div>","0","","","","","","","","","","","","","","","","","","","","","","","","","",""
"","","","","","single-stim-button","210","1966996","0.0-3.0-25.0-0.0","636148a08e1e96b962192d3f","F1","batch6","tol_tohand","34093","","","","","","","","","tol_peg_3","34093","34093","0","[[0,0,0],[1,2],[0]]","1","[[1,0,0],[2,3],[0]]","5","0","","","","","","6","","","","",""
"","","","","","single-stim-button","211","1967850","0.0-3.0-25.0-1.0","636148a08e1e96b962192d3f","F1","batch6","tol_toboard","853","","","","","","","","","tol_peg_1","853","853","0","[[3,0,0],[1,2],[0]]","1","[[1,0,0],[2,3],[0]]","5","0","","","","","","6","","","","",""
"","","","","","single-stim-button","212","1976151","0.0-3.0-25.1-0.1","636148a08e1e96b962192d3f","F1","batch6","tol_tohand","8300","","","","","","","","","tol_peg_2","8300","8300","0","[[3,0,0],[1,0],[0]]","2","[[1,0,0],[2,3],[0]]","5","0","","","","","","6","","","","",""
"","","","","","single-stim-button","213","1976813","0.0-3.0-25.1-1.1","636148a08e1e96b962192d3f","F1","batch6","tol_toboard","662","","","","","","","","","tol_peg_1","662","662","0","[[3,2,0],[1,0],[0]]","2","[[1,0,0],[2,3],[0]]","5","0","","","","","","6","","","","",""
"","","","","","single-stim-button","214","1978333","0.0-3.0-25.2-0.2","636148a08e1e96b962192d3f","F1","batch6","tol_tohand","1518","","","","","","","","","tol_peg_2","1518","1518","0","[[3,2,0],[0,0],[0]]","3","[[1,0,0],[2,3],[0]]","5","0","","","","","","6","","","","",""
"","","","","","single-stim-button","215","1978792","0.0-3.0-25.2-1.2","636148a08e1e96b962192d3f","F1","batch6","tol_toboard","459","","","","","","","","","tol_peg_3","459","459","0","[[3,2,0],[0,0],[1]]","3","[[1,0,0],[2,3],[0]]","5","0","","","","","","6","","","","",""
"","","","","","single-stim-button","216","1979638","0.0-3.0-25.3-0.3","636148a08e1e96b962192d3f","F1","batch6","tol_tohand","846","","","","","","","","","tol_peg_1","846","846","0","[[3,0,0],[0,0],[1]]","4","[[1,0,0],[2,3],[0]]","5","0","","","","","","6","","","","",""
"","","","","","single-stim-button","217","1980024","0.0-3.0-25.3-1.3","636148a08e1e96b962192d3f","F1","batch6","tol_toboard","385","","","","","","","","","tol_peg_2","385","385","0","[[3,0,0],[2,0],[1]]","4","[[1,0,0],[2,3],[0]]","5","0","","","","","","6","","","","",""
"","","","","","single-stim-button","218","1981838","0.0-3.0-25.4-0.4","636148a08e1e96b962192d3f","F1","batch6","tol_tohand","1813","","","","","","","","","tol_peg_1","1813","1813","0","[[0,0,0],[2,0],[1]]","5","[[1,0,0],[2,3],[0]]","5","0","","","","","","6","","","","",""
"","","","","","single-stim-button","219","1982499","0.0-3.0-25.4-1.4","636148a08e1e96b962192d3f","F1","batch6","tol_toboard","659","","","","","","","","","tol_peg_2","659","659","0","[[0,0,0],[2,3],[1]]","5","[[1,0,0],[2,3],[0]]","5","0","","","","","","6","","","","",""
"","","","","","single-stim-button","220","1982998","0.0-3.0-25.5-0.5","636148a08e1e96b962192d3f","F1","batch6","tol_tohand","499","","","","","","","","","tol_peg_3","499","499","0","[[0,0,0],[2,3],[0]]","6","[[1,0,0],[2,3],[0]]","5","0","","","","","","6","","","","",""
"","","","","","single-stim-button","221","1983482","0.0-3.0-25.5-1.5","636148a08e1e96b962192d3f","F1","batch6","tol_toboard","484","","","","","","","","","tol_peg_1","484","484","0","[[1,0,0],[2,3],[0]]","6","[[1,0,0],[2,3],[0]]","5","0","","","","","","6","","","","",""
"","","","","","poldrack-single-stim","222","1984489","0.0-3.0-26.0","636148a08e1e96b962192d3f","F1","batch6","tol_feedback","-1","","","","","true","","","","","1000","1000","500","","","","","","-1","none","true","34093","47069","","","","","",""
"","","","","","html-button-response","223","1989297","0.0-3.0-27.0","636148a08e1e96b962192d3f","F1","batch6","tol_trial_num","4807.299999952316","<div class = centerbox><p class = center-block-text>problem <strong>7</strong> out of 25 problems</p></div>","0","","","","","","","","","","","","","","","","","","","","","","","","","",""
"","","","","","single-stim-button","224","1996731","0.0-3.0-28.0-0.0","636148a08e1e96b962192d3f","F1","batch6","tol_tohand","7434","","","","","","","","","tol_peg_3","7434","7434","0","[[2,1,0],[0,0],[0]]","1","[[1,2,0],[3,0],[0]]","6","0","","","","","","5","","","","",""
"","","","","","single-stim-button","225","1997691","0.0-3.0-28.0-1.0","636148a08e1e96b962192d3f","F1","batch6","tol_toboard","959","","","","","","","","","tol_peg_2","959","959","0","[[2,1,0],[3,0],[0]]","1","[[1,2,0],[3,0],[0]]","6","0","","","","","","5","","","","",""
"","","","","","single-stim-button","226","1999754","0.0-3.0-28.1-0.1","636148a08e1e96b962192d3f","F1","batch6","tol_tohand","2062","","","","","","","","","tol_peg_1","2062","2062","0","[[2,0,0],[3,0],[0]]","2","[[1,2,0],[3,0],[0]]","6","0","","","","","","5","","","","",""
"","","","","","single-stim-button","227","2001724","0.0-3.0-28.1-1.1","636148a08e1e96b962192d3f","F1","batch6","tol_toboard","1969","","","","","","","","","tol_peg_3","1969","1969","0","[[2,0,0],[3,0],[1]]","2","[[1,2,0],[3,0],[0]]","6","0","","","","","","5","","","","",""
"","","","","","single-stim-button","228","2002440","0.0-3.0-28.2-0.2","636148a08e1e96b962192d3f","F1","batch6","tol_tohand","715","","","","","","","","","tol_peg_1","715","715","0","[[0,0,0],[3,0],[1]]","3","[[1,2,0],[3,0],[0]]","6","0","","","","","","5","","","","",""
"","","","","","single-stim-button","229","2002892","0.0-3.0-28.2-1.2","636148a08e1e96b962192d3f","F1","batch6","tol_toboard","452","","","","","","","","","tol_peg_2","452","452","0","[[0,0,0],[3,2],[1]]","3","[[1,2,0],[3,0],[0]]","6","0","","","","","","5","","","","",""
"","","","","","single-stim-button","230","2003373","0.0-3.0-28.3-0.3","636148a08e1e96b962192d3f","F1","batch6","tol_tohand","479","","","","","","","","","tol_peg_3","479","479","0","[[0,0,0],[3,2],[0]]","4","[[1,2,0],[3,0],[0]]","6","0","","","","","","5","","","","",""
"","","","","","single-stim-button","231","2004153","0.0-3.0-28.3-1.3","636148a08e1e96b962192d3f","F1","batch6","tol_toboard","779","","","","","","","","","tol_peg_1","779","779","0","[[1,0,0],[3,2],[0]]","4","[[1,2,0],[3,0],[0]]","6","0","","","","","","5","","","","",""
"","","","","","single-stim-button","232","2004664","0.0-3.0-28.4-0.4","636148a08e1e96b962192d3f","F1","batch6","tol_tohand","510","","","","","","","","","tol_peg_2","510","510","0","[[1,0,0],[3,0],[0]]","5","[[1,2,0],[3,0],[0]]","6","0","","","","","","5","","","","",""
"","","","","","single-stim-button","233","2005032","0.0-3.0-28.4-1.4","636148a08e1e96b962192d3f","F1","batch6","tol_toboard","368","","","","","","","","","tol_peg_1","368","368","0","[[1,2,0],[3,0],[0]]","5","[[1,2,0],[3,0],[0]]","6","0","","","","","","5","","","","",""
"","","","","","poldrack-single-stim","234","2006034","0.0-3.0-29.0","636148a08e1e96b962192d3f","F1","batch6","tol_feedback","-1","","","","","true","","","","","1000","1000","500","","","","","","-1","none","true","7434","11200","","","","","",""
"","","","","","html-button-response","235","2006836","0.0-3.0-30.0","636148a08e1e96b962192d3f","F1","batch6","tol_trial_num","800.7000000476837","<div class = centerbox><p class = center-block-text>problem <strong>8</strong> out of 25 problems</p></div>","0","","","","","","","","","","","","","","","","","","","","","","","","","",""
"","","","","","single-stim-button","236","2014046","0.0-3.0-31.0-0.0","636148a08e1e96b962192d3f","F1","batch6","tol_tohand","7210","","","","","","","","","tol_peg_3","7210","7210","0","[[0,0,0],[2,3],[0]]","1","[[1,2,0],[3,0],[0]]","7","0","","","","","","4","","","","",""
"","","","","","single-stim-button","237","2014948","0.0-3.0-31.0-1.0","636148a08e1e96b962192d3f","F1","batch6","tol_toboard","901","","","","","","","","","tol_peg_1","901","901","0","[[1,0,0],[2,3],[0]]","1","[[1,2,0],[3,0],[0]]","7","0","","","","","","4","","","","",""
"","","","","","single-stim-button","238","2015794","0.0-3.0-31.1-0.1","636148a08e1e96b962192d3f","F1","batch6","tol_tohand","846","","","","","","","","","tol_peg_2","846","846","0","[[1,0,0],[2,0],[0]]","2","[[1,2,0],[3,0],[0]]","7","0","","","","","","4","","","","",""
"","","","","","single-stim-button","239","2016676","0.0-3.0-31.1-1.1","636148a08e1e96b962192d3f","F1","batch6","tol_toboard","882","","","","","","","","","tol_peg_3","882","882","0","[[1,0,0],[2,0],[3]]","2","[[1,2,0],[3,0],[0]]","7","0","","","","","","4","","","","",""
"","","","","","single-stim-button","240","2017236","0.0-3.0-31.2-0.2","636148a08e1e96b962192d3f","F1","batch6","tol_tohand","560","","","","","","","","","tol_peg_2","560","560","0","[[1,0,0],[0,0],[3]]","3","[[1,2,0],[3,0],[0]]","7","0","","","","","","4","","","","",""
"","","","","","single-stim-button","241","2017894","0.0-3.0-31.2-1.2","636148a08e1e96b962192d3f","F1","batch6","tol_toboard","657","","","","","","","","","tol_peg_1","657","657","0","[[1,2,0],[0,0],[3]]","3","[[1,2,0],[3,0],[0]]","7","0","","","","","","4","","","","",""
"","","","","","single-stim-button","242","2018510","0.0-3.0-31.3-0.3","636148a08e1e96b962192d3f","F1","batch6","tol_tohand","615","","","","","","","","","tol_peg_3","615","615","0","[[1,2,0],[0,0],[0]]","4","[[1,2,0],[3,0],[0]]","7","0","","","","","","4","","","","",""
"","","","","","single-stim-button","243","2018848","0.0-3.0-31.3-1.3","636148a08e1e96b962192d3f","F1","batch6","tol_toboard","337","","","","","","","","","tol_peg_2","337","337","0","[[1,2,0],[3,0],[0]]","4","[[1,2,0],[3,0],[0]]","7","0","","","","","","4","","","","",""
"","","","","","poldrack-single-stim","244","2019857","0.0-3.0-32.0","636148a08e1e96b962192d3f","F1","batch6","tol_feedback","-1","","","","","true","","","","","1000","1000","500","","","","","","-1","none","true","7210","9231","","","","","",""
"","","","","","html-button-response","245","2020782","0.0-3.0-33.0","636148a08e1e96b962192d3f","F1","batch6","tol_trial_num","924.3999998569489","<div class = centerbox><p class = center-block-text>problem <strong>9</strong> out of 25 problems</p></div>","0","","","","","","","","","","","","","","","","","","","","","","","","","",""
"","","","","","single-stim-button","246","2034924","0.0-3.0-34.0-0.0","636148a08e1e96b962192d3f","F1","batch6","tol_tohand","14141","","","","","","","","","tol_peg_1","14141","14141","0","[[3,0,0],[0,0],[1]]","1","[[2,1,0],[3,0],[0]]","8","0","","","","","","6","","","","",""
"","","","","","single-stim-button","247","2035578","0.0-3.0-34.0-1.0","636148a08e1e96b962192d3f","F1","batch6","tol_toboard","654","","","","","","","","","tol_peg_2","654","654","0","[[3,0,0],[2,0],[1]]","1","[[2,1,0],[3,0],[0]]","8","0","","","","","","6","","","","",""
"","","","","","single-stim-button","248","2036444","0.0-3.0-34.1-0.1","636148a08e1e96b962192d3f","F1","batch6","tol_tohand","865","","","","","","","","","tol_peg_3","865","865","0","[[3,0,0],[2,0],[0]]","2","[[2,1,0],[3,0],[0]]","8","0","","","","","","6","","","","",""
"","","","","","single-stim-button","249","2040428","0.0-3.0-34.1-1.1","636148a08e1e96b962192d3f","F1","batch6","tol_toboard","3984","","","","","","","","","tol_peg_2","3984","3984","0","[[3,0,0],[2,1],[0]]","2","[[2,1,0],[3,0],[0]]","8","0","","","","","","6","","","","",""
"","","","","","single-stim-button","250","2040950","0.0-3.0-34.2-0.2","636148a08e1e96b962192d3f","F1","batch6","tol_tohand","521","","","","","","","","","tol_peg_1","521","521","0","[[0,0,0],[2,1],[0]]","3","[[2,1,0],[3,0],[0]]","8","0","","","","","","6","","","","",""
"","","","","","single-stim-button","251","2041985","0.0-3.0-34.2-1.2","636148a08e1e96b962192d3f","F1","batch6","tol_toboard","1035","","","","","","","","","tol_peg_3","1035","1035","0","[[0,0,0],[2,1],[3]]","3","[[2,1,0],[3,0],[0]]","8","0","","","","","","6","","","","",""
"","","","","","single-stim-button","252","2046178","0.0-3.0-34.3-0.3","636148a08e1e96b962192d3f","F1","batch6","tol_tohand","4192","","","","","","","","","tol_peg_3","4192","4192","0","[[0,0,0],[2,1],[0]]","4","[[2,1,0],[3,0],[0]]","8","0","","","","","","6","","","","",""
"","","","","","single-stim-button","253","2048112","0.0-3.0-34.3-1.3","636148a08e1e96b962192d3f","F1","batch6","tol_toboard","1933","","","","","","","","","tol_peg_1","1933","1933","0","[[3,0,0],[2,1],[0]]","4","[[2,1,0],[3,0],[0]]","8","0","","","","","","6","","","","",""
"","","","","","single-stim-button","254","2048862","0.0-3.0-34.4-0.4","636148a08e1e96b962192d3f","F1","batch6","tol_tohand","750","","","","","","","","","tol_peg_2","750","750","0","[[3,0,0],[2,0],[0]]","5","[[2,1,0],[3,0],[0]]","8","0","","","","","","6","","","","",""
"","","","","","single-stim-button","255","2049490","0.0-3.0-34.4-1.4","636148a08e1e96b962192d3f","F1","batch6","tol_toboard","627","","","","","","","","","tol_peg_3","627","627","0","[[3,0,0],[2,0],[1]]","5","[[2,1,0],[3,0],[0]]","8","0","","","","","","6","","","","",""
"","","","","","single-stim-button","256","2050675","0.0-3.0-34.5-0.5","636148a08e1e96b962192d3f","F1","batch6","tol_tohand","1185","","","","","","","","","tol_peg_1","1185","1185","0","[[0,0,0],[2,0],[1]]","6","[[2,1,0],[3,0],[0]]","8","0","","","","","","6","","","","",""
"","","","","","single-stim-button","257","2051142","0.0-3.0-34.5-1.5","636148a08e1e96b962192d3f","F1","batch6","tol_toboard","465","","","","","","","","","tol_peg_2","465","465","0","[[0,0,0],[2,3],[1]]","6","[[2,1,0],[3,0],[0]]","8","0","","","","","","6","","","","",""
"","","","","","single-stim-button","258","2054011","0.0-3.0-34.6-0.6","636148a08e1e96b962192d3f","F1","batch6","tol_tohand","2868","","","","","","","","","tol_peg_2","2868","2868","0","[[0,0,0],[2,0],[1]]","7","[[2,1,0],[3,0],[0]]","8","0","","","","","","6","","","","",""
"","","","","","single-stim-button","259","2054761","0.0-3.0-34.6-1.6","636148a08e1e96b962192d3f","F1","batch6","tol_toboard","749","","","","","","","","","tol_peg_1","749","749","0","[[3,0,0],[2,0],[1]]","7","[[2,1,0],[3,0],[0]]","8","0","","","","","","6","","","","",""
"","","","","","single-stim-button","260","2059710","0.0-3.0-34.7-0.7","636148a08e1e96b962192d3f","F1","batch6","tol_tohand","4949","","","","","","","","","tol_peg_3","4949","4949","0","[[3,0,0],[2,0],[0]]","8","[[2,1,0],[3,0],[0]]","8","0","","","","","","6","","","","",""
"","","","","","single-stim-button","261","2060926","0.0-3.0-34.7-1.7","636148a08e1e96b962192d3f","F1","batch6","tol_toboard","1215","","","","","","","","","tol_peg_1","1215","1215","0","[[3,1,0],[2,0],[0]]","8","[[2,1,0],[3,0],[0]]","8","0","","","","","","6","","","","",""
"","","","","","single-stim-button","262","2061411","0.0-3.0-34.8-0.8","636148a08e1e96b962192d3f","F1","batch6","tol_tohand","484","","","","","","","","","tol_peg_2","484","484","0","[[3,1,0],[0,0],[0]]","9","[[2,1,0],[3,0],[0]]","8","0","","","","","","6","","","","",""
"","","","","","single-stim-button","263","2061941","0.0-3.0-34.8-1.8","636148a08e1e96b962192d3f","F1","batch6","tol_toboard","530","","","","","","","","","tol_peg_3","530","530","0","[[3,1,0],[0,0],[2]]","9","[[2,1,0],[3,0],[0]]","8","0","","","","","","6","","","","",""
"","","","","","single-stim-button","264","2062542","0.0-3.0-34.9-0.9","636148a08e1e96b962192d3f","F1","batch6","tol_tohand","600","","","","","","","","","tol_peg_1","600","600","0","[[3,0,0],[0,0],[2]]","10","[[2,1,0],[3,0],[0]]","8","0","","","","","","6","","","","",""
"","","","","","single-stim-button","265","2063484","0.0-3.0-34.9-1.9","636148a08e1e96b962192d3f","F1","batch6","tol_toboard","941","","","","","","","","","tol_peg_2","941","941","0","[[3,0,0],[1,0],[2]]","10","[[2,1,0],[3,0],[0]]","8","0","","","","","","6","","","","",""
"","","","","","single-stim-button","266","2070268","0.0-3.0-34.10-0.10","636148a08e1e96b962192d3f","F1","batch6","tol_tohand","6783","","","","","","","","","tol_peg_3","6783","6783","0","[[3,0,0],[1,0],[0]]","11","[[2,1,0],[3,0],[0]]","8","0","","","","","","6","","","","",""
"","","","","","single-stim-button","267","2074304","0.0-3.0-34.10-1.10","636148a08e1e96b962192d3f","F1","batch6","tol_toboard","4036","","","","","","","","","tol_peg_3","4036","4036","0","[[3,0,0],[1,0],[2]]","11","[[2,1,0],[3,0],[0]]","8","0","","","","","","6","","","","",""
"","","","","","single-stim-button","268","2087076","0.0-3.0-34.11-0.11","636148a08e1e96b962192d3f","F1","batch6","tol_tohand","12771","","","","","","","","","tol_peg_3","12771","12771","0","[[3,0,0],[1,0],[0]]","12","[[2,1,0],[3,0],[0]]","8","0","","","","","","6","","","","",""
"","","","","","single-stim-button","269","2087489","0.0-3.0-34.11-1.11","636148a08e1e96b962192d3f","F1","batch6","tol_toboard","412","","","","","","","","","tol_peg_2","412","412","0","[[3,0,0],[1,2],[0]]","12","[[2,1,0],[3,0],[0]]","8","0","","","","","","6","","","","",""
"","","","","","single-stim-button","270","2088292","0.0-3.0-34.12-0.12","636148a08e1e96b962192d3f","F1","batch6","tol_tohand","802","","","","","","","","","tol_peg_1","802","802","0","[[0,0,0],[1,2],[0]]","13","[[2,1,0],[3,0],[0]]","8","0","","","","","","6","","","","",""
"","","","","","single-stim-button","271","2088852","0.0-3.0-34.12-1.12","636148a08e1e96b962192d3f","F1","batch6","tol_toboard","560","","","","","","","","","tol_peg_3","560","560","0","[[0,0,0],[1,2],[3]]","13","[[2,1,0],[3,0],[0]]","8","0","","","","","","6","","","","",""
"","","","","","single-stim-button","272","2090035","0.0-3.0-34.13-0.13","636148a08e1e96b962192d3f","F1","batch6","tol_tohand","1181","","","","","","","","","tol_peg_2","1181","1181","0","[[0,0,0],[1,0],[3]]","14","[[2,1,0],[3,0],[0]]","8","0","","","","","","6","","","","",""
"","","","","","single-stim-button","273","2090500","0.0-3.0-34.13-1.13","636148a08e1e96b962192d3f","F1","batch6","tol_toboard","465","","","","","","","","","tol_peg_1","465","465","0","[[2,0,0],[1,0],[3]]","14","[[2,1,0],[3,0],[0]]","8","0","","","","","","6","","","","",""
"","","","","","single-stim-button","274","2091000","0.0-3.0-34.14-0.14","636148a08e1e96b962192d3f","F1","batch6","tol_tohand","499","","","","","","","","","tol_peg_2","499","499","0","[[2,0,0],[0,0],[3]]","15","[[2,1,0],[3,0],[0]]","8","0","","","","","","6","","","","",""
"","","","","","single-stim-button","275","2092160","0.0-3.0-34.14-1.14","636148a08e1e96b962192d3f","F1","batch6","tol_toboard","1159","","","","","","","","","tol_peg_1","1159","1159","0","[[2,1,0],[0,0],[3]]","15","[[2,1,0],[3,0],[0]]","8","0","","","","","","6","","","","",""
"","","","","","single-stim-button","276","2092693","0.0-3.0-34.15-0.15","636148a08e1e96b962192d3f","F1","batch6","tol_tohand","533","","","","","","","","","tol_peg_3","533","533","0","[[2,1,0],[0,0],[0]]","16","[[2,1,0],[3,0],[0]]","8","0","","","","","","6","","","","",""
"","","","","","single-stim-button","277","2093145","0.0-3.0-34.15-1.15","636148a08e1e96b962192d3f","F1","batch6","tol_toboard","451","","","","","","","","","tol_peg_2","451","451","0","[[2,1,0],[3,0],[0]]","16","[[2,1,0],[3,0],[0]]","8","0","","","","","","6","","","","",""
"","","","","","poldrack-single-stim","278","2094154","0.0-3.0-35.0","636148a08e1e96b962192d3f","F1","batch6","tol_feedback","-1","","","","","true","","","","","1000","1000","500","","","","","","-1","none","true","14141","53124","","","","","",""
"","","","","","html-button-response","279","2094786","0.0-3.0-36.0","636148a08e1e96b962192d3f","F1","batch6","tol_trial_num","631.2000000476837","<div class = centerbox><p class = center-block-text>problem <strong>10</strong> out of 25 problems</p></div>","0","","","","","","","","","","","","","","","","","","","","","","","","","",""
"","","","","","single-stim-button","280","2101971","0.0-3.0-37.0-0.0","636148a08e1e96b962192d3f","F1","batch6","tol_tohand","7184","","","","","","","","","tol_peg_2","7184","7184","0","[[3,0,0],[0,0],[2]]","1","[[3,0,0],[2,1],[0]]","9","0","","","","","","3","","","","",""
"","","","","","single-stim-button","281","2102472","0.0-3.0-37.0-1.0","636148a08e1e96b962192d3f","F1","batch6","tol_toboard","501","","","","","","","","","tol_peg_1","501","501","0","[[3,1,0],[0,0],[2]]","1","[[3,0,0],[2,1],[0]]","9","0","","","","","","3","","","","",""
"","","","","","single-stim-button","282","2103544","0.0-3.0-37.1-0.1","636148a08e1e96b962192d3f","F1","batch6","tol_tohand","1071","","","","","","","","","tol_peg_3","1071","1071","0","[[3,1,0],[0,0],[0]]","2","[[3,0,0],[2,1],[0]]","9","0","","","","","","3","","","","",""
"","","","","","single-stim-button","283","2103906","0.0-3.0-37.1-1.1","636148a08e1e96b962192d3f","F1","batch6","tol_toboard","361","","","","","","","","","tol_peg_2","361","361","0","[[3,1,0],[2,0],[0]]","2","[[3,0,0],[2,1],[0]]","9","0","","","","","","3","","","","",""
"","","","","","single-stim-button","284","2104732","0.0-3.0-37.2-0.2","636148a08e1e96b962192d3f","F1","batch6","tol_tohand","826","","","","","","","","","tol_peg_1","826","826","0","[[3,0,0],[2,0],[0]]","3","[[3,0,0],[2,1],[0]]","9","0","","","","","","3","","","","",""
"","","","","","single-stim-button","285","2105052","0.0-3.0-37.2-1.2","636148a08e1e96b962192d3f","F1","batch6","tol_toboard","320","","","","","","","","","tol_peg_2","320","320","0","[[3,0,0],[2,1],[0]]","3","[[3,0,0],[2,1],[0]]","9","0","","","","","","3","","","","",""
"","","","","","poldrack-single-stim","286","2106055","0.0-3.0-38.0","636148a08e1e96b962192d3f","F1","batch6","tol_feedback","-1","","","","","true","","","","","1000","1000","500","","","","","","-1","none","true","7184","9081","","","","","",""
"","","","","","html-button-response","287","2106920","0.0-3.0-39.0","636148a08e1e96b962192d3f","F1","batch6","tol_trial_num","864.9000000953674","<div class = centerbox><p class = center-block-text>problem <strong>11</strong> out of 25 problems</p></div>","0","","","","","","","","","","","","","","","","","","","","","","","","","",""
"","","","","","single-stim-button","288","2177588","0.0-3.0-40.0-0.0","636148a08e1e96b962192d3f","F1","batch6","tol_tohand","70667","","","","","","","","","tol_peg_1","70667","70667","0","[[1,0,0],[3,0],[0]]","1","[[2,0,0],[1,3],[0]]","10","0","","","","","","6","","","","",""
"","","","","","single-stim-button","289","2178495","0.0-3.0-40.0-1.0","636148a08e1e96b962192d3f","F1","batch6","tol_toboard","905","","","","","","","","","tol_peg_3","905","905","0","[[1,0,0],[3,0],[2]]","1","[[2,0,0],[1,3],[0]]","10","0","","","","","","6","","","","",""
"","","","","","single-stim-button","290","2180170","0.0-3.0-40.1-0.1","636148a08e1e96b962192d3f","F1","batch6","tol_tohand","1675","","","","","","","","","tol_peg_1","1675","1675","0","[[0,0,0],[3,0],[2]]","2","[[2,0,0],[1,3],[0]]","10","0","","","","","","6","","","","",""
"","","","","","single-stim-button","291","2181120","0.0-3.0-40.1-1.1","636148a08e1e96b962192d3f","F1","batch6","tol_toboard","949","","","","","","","","","tol_peg_2","949","949","0","[[0,0,0],[3,1],[2]]","2","[[2,0,0],[1,3],[0]]","10","0","","","","","","6","","","","",""
"","","","","","single-stim-button","292","2181766","0.0-3.0-40.2-0.2","636148a08e1e96b962192d3f","F1","batch6","tol_tohand","645","","","","","","","","","tol_peg_3","645","645","0","[[0,0,0],[3,1],[0]]","3","[[2,0,0],[1,3],[0]]","10","0","","","","","","6","","","","",""
"","","","","","single-stim-button","293","2182280","0.0-3.0-40.2-1.2","636148a08e1e96b962192d3f","F1","batch6","tol_toboard","514","","","","","","","","","tol_peg_1","514","514","0","[[2,0,0],[3,1],[0]]","3","[[2,0,0],[1,3],[0]]","10","0","","","","","","6","","","","",""
"","","","","","single-stim-button","294","2183836","0.0-3.0-40.3-0.3","636148a08e1e96b962192d3f","F1","batch6","tol_tohand","1556","","","","","","","","","tol_peg_2","1556","1556","0","[[2,0,0],[3,0],[0]]","4","[[2,0,0],[1,3],[0]]","10","0","","","","","","6","","","","",""
"","","","","","single-stim-button","295","2184368","0.0-3.0-40.3-1.3","636148a08e1e96b962192d3f","F1","batch6","tol_toboard","531","","","","","","","","","tol_peg_3","531","531","0","[[2,0,0],[3,0],[1]]","4","[[2,0,0],[1,3],[0]]","10","0","","","","","","6","","","","",""
"","","","","","single-stim-button","296","2184746","0.0-3.0-40.4-0.4","636148a08e1e96b962192d3f","F1","batch6","tol_tohand","377","","","","","","","","","tol_peg_2","377","377","0","[[2,0,0],[0,0],[1]]","5","[[2,0,0],[1,3],[0]]","10","0","","","","","","6","","","","",""
"","","","","","single-stim-button","297","2185274","0.0-3.0-40.4-1.4","636148a08e1e96b962192d3f","F1","batch6","tol_toboard","527","","","","","","","","","tol_peg_1","527","527","0","[[2,3,0],[0,0],[1]]","5","[[2,0,0],[1,3],[0]]","10","0","","","","","","6","","","","",""
"","","","","","single-stim-button","298","2185989","0.0-3.0-40.5-0.5","636148a08e1e96b962192d3f","F1","batch6","tol_tohand","713","","","","","","","","","tol_peg_3","713","713","0","[[2,3,0],[0,0],[0]]","6","[[2,0,0],[1,3],[0]]","10","0","","","","","","6","","","","",""
"","","","","","single-stim-button","299","2186418","0.0-3.0-40.5-1.5","636148a08e1e96b962192d3f","F1","batch6","tol_toboard","429","","","","","","","","","tol_peg_2","429","429","0","[[2,3,0],[1,0],[0]]","6","[[2,0,0],[1,3],[0]]","10","0","","","","","","6","","","","",""
"","","","","","single-stim-button","300","2186886","0.0-3.0-40.6-0.6","636148a08e1e96b962192d3f","F1","batch6","tol_tohand","467","","","","","","","","","tol_peg_1","467","467","0","[[2,0,0],[1,0],[0]]","7","[[2,0,0],[1,3],[0]]","10","0","","","","","","6","","","","",""
"","","","","","single-stim-button","301","2187312","0.0-3.0-40.6-1.6","636148a08e1e96b962192d3f","F1","batch6","tol_toboard","425","","","","","","","","","tol_peg_2","425","425","0","[[2,0,0],[1,3],[0]]","7","[[2,0,0],[1,3],[0]]","10","0","","","","","","6","","","","",""
"","","","","","poldrack-single-stim","302","2188314","0.0-3.0-41.0","636148a08e1e96b962192d3f","F1","batch6","tol_feedback","-1","","","","","true","","","","","1000","1000","500","","","","","","-1","none","true","70667","76100","","","","","",""
"","","","","","html-button-response","303","2189098","0.0-3.0-42.0","636148a08e1e96b962192d3f","F1","batch6","tol_trial_num","782.3999998569489","<div class = centerbox><p class = center-block-text>problem <strong>12</strong> out of 25 problems</p></div>","0","","","","","","","","","","","","","","","","","","","","","","","","","",""
"","","","","","single-stim-button","304","2201740","0.0-3.0-43.0-0.0","636148a08e1e96b962192d3f","F1","batch6","tol_tohand","12642","","","","","","","","","tol_peg_1","12642","12642","0","[[1,0,0],[3,0],[0]]","1","[[2,3,0],[0,0],[1]]","11","0","","","","","","4","","","","",""
"","","","","","single-stim-button","305","2202135","0.0-3.0-43.0-1.0","636148a08e1e96b962192d3f","F1","batch6","tol_toboard","394","","","","","","","","","tol_peg_2","394","394","0","[[1,0,0],[3,2],[0]]","1","[[2,3,0],[0,0],[1]]","11","0","","","","","","4","","","","",""
"","","","","","single-stim-button","306","2203062","0.0-3.0-43.1-0.1","636148a08e1e96b962192d3f","F1","batch6","tol_tohand","925","","","","","","","","","tol_peg_1","925","925","0","[[0,0,0],[3,2],[0]]","2","[[2,3,0],[0,0],[1]]","11","0","","","","","","4","","","","",""
"","","","","","single-stim-button","307","2203674","0.0-3.0-43.1-1.1","636148a08e1e96b962192d3f","F1","batch6","tol_toboard","612","","","","","","","","","tol_peg_3","612","612","0","[[0,0,0],[3,2],[1]]","2","[[2,3,0],[0,0],[1]]","11","0","","","","","","4","","","","",""
"","","","","","single-stim-button","308","2204336","0.0-3.0-43.2-0.2","636148a08e1e96b962192d3f","F1","batch6","tol_tohand","661","","","","","","","","","tol_peg_2","661","661","0","[[0,0,0],[3,0],[1]]","3","[[2,3,0],[0,0],[1]]","11","0","","","","","","4","","","","",""
"","","","","","single-stim-button","309","2205048","0.0-3.0-43.2-1.2","636148a08e1e96b962192d3f","F1","batch6","tol_toboard","711","","","","","","","","","tol_peg_1","711","711","0","[[2,0,0],[3,0],[1]]","3","[[2,3,0],[0,0],[1]]","11","0","","","","","","4","","","","",""
"","","","","","single-stim-button","310","2205497","0.0-3.0-43.3-0.3","636148a08e1e96b962192d3f","F1","batch6","tol_tohand","447","","","","","","","","","tol_peg_2","447","447","0","[[2,0,0],[0,0],[1]]","4","[[2,3,0],[0,0],[1]]","11","0","","","","","","4","","","","",""
"","","","","","single-stim-button","311","2205842","0.0-3.0-43.3-1.3","636148a08e1e96b962192d3f","F1","batch6","tol_toboard","345","","","","","","","","","tol_peg_1","345","345","0","[[2,3,0],[0,0],[1]]","4","[[2,3,0],[0,0],[1]]","11","0","","","","","","4","","","","",""
"","","","","","poldrack-single-stim","312","2206843","0.0-3.0-44.0","636148a08e1e96b962192d3f","F1","batch6","tol_feedback","-1","","","","","true","","","","","1000","1000","500","","","","","","-1","none","true","12642","14675","","","","","",""
"","","","","","html-button-response","313","2207744","0.0-3.0-45.0","636148a08e1e96b962192d3f","F1","batch6","tol_trial_num","899.9000000953674","<div class = centerbox><p class = center-block-text>problem <strong>13</strong> out of 25 problems</p></div>","0","","","","","","","","","","","","","","","","","","","","","","","","","",""
"","","","","","single-stim-button","314","2228270","0.0-3.0-46.0-0.0","636148a08e1e96b962192d3f","F1","batch6","tol_tohand","20526","","","","","","","","","tol_peg_2","20526","20526","0","[[1,2,0],[0,0],[0]]","1","[[0,0,0],[2,3],[1]]","12","0","","","","","","4","","","","",""
"","","","","","single-stim-button","315","2228726","0.0-3.0-46.0-1.0","636148a08e1e96b962192d3f","F1","batch6","tol_toboard","455","","","","","","","","","tol_peg_3","455","455","0","[[1,2,0],[0,0],[3]]","1","[[0,0,0],[2,3],[1]]","12","0","","","","","","4","","","","",""
"","","","","","single-stim-button","316","2229266","0.0-3.0-46.1-0.1","636148a08e1e96b962192d3f","F1","batch6","tol_tohand","539","","","","","","","","","tol_peg_1","539","539","0","[[1,0,0],[0,0],[3]]","2","[[0,0,0],[2,3],[1]]","12","0","","","","","","4","","","","",""
"","","","","","single-stim-button","317","2229758","0.0-3.0-46.1-1.1","636148a08e1e96b962192d3f","F1","batch6","tol_toboard","492","","","","","","","","","tol_peg_2","492","492","0","[[1,0,0],[2,0],[3]]","2","[[0,0,0],[2,3],[1]]","12","0","","","","","","4","","","","",""
"","","","","","single-stim-button","318","2230593","0.0-3.0-46.2-0.2","636148a08e1e96b962192d3f","F1","batch6","tol_tohand","833","","","","","","","","","tol_peg_3","833","833","0","[[1,0,0],[2,0],[0]]","3","[[0,0,0],[2,3],[1]]","12","0","","","","","","4","","","","",""
"","","","","","single-stim-button","319","2231091","0.0-3.0-46.2-1.2","636148a08e1e96b962192d3f","F1","batch6","tol_toboard","497","","","","","","","","","tol_peg_2","497","497","0","[[1,0,0],[2,3],[0]]","3","[[0,0,0],[2,3],[1]]","12","0","","","","","","4","","","","",""
"","","","","","single-stim-button","320","2231599","0.0-3.0-46.3-0.3","636148a08e1e96b962192d3f","F1","batch6","tol_tohand","507","","","","","","","","","tol_peg_1","507","507","0","[[0,0,0],[2,3],[0]]","4","[[0,0,0],[2,3],[1]]","12","0","","","","","","4","","","","",""
"","","","","","single-stim-button","321","2231975","0.0-3.0-46.3-1.3","636148a08e1e96b962192d3f","F1","batch6","tol_toboard","375","","","","","","","","","tol_peg_3","375","375","0","[[0,0,0],[2,3],[1]]","4","[[0,0,0],[2,3],[1]]","12","0","","","","","","4","","","","",""
"","","","","","poldrack-single-stim","322","2232980","0.0-3.0-47.0","636148a08e1e96b962192d3f","F1","batch6","tol_feedback","-1","","","","","true","","","","","1000","1000","500","","","","","","-1","none","true","20526","22405","","","","","",""
"","","","","","html-button-response","323","2236356","0.0-3.0-48.0","636148a08e1e96b962192d3f","F1","batch6","attention_check","3374.899999856949","<p class = block-text>How many balls are in your board<br></p>","1","","","true","","","","","","","","","","","","","","","","","","","","","","",""
"","","","","","html-button-response","324","2242168","0.0-3.0-49.0","636148a08e1e96b962192d3f","F1","batch6","tol_trial_num","5811.400000095367","<div class = centerbox><p class = center-block-text>problem <strong>14</strong> out of 25 problems</p></div>","0","","","","","","","","","","","","","","","","","","","","","","","","","",""
"","","","","","single-stim-button","325","2245938","0.0-3.0-50.0-0.0","636148a08e1e96b962192d3f","F1","batch6","tol_tohand","3769","","","","","","","","","tol_peg_1","3769","3769","0","[[2,0,0],[3,0],[0]]","1","[[1,2,0],[3,0],[0]]","13","0","","","","","","4","","","","",""
"","","","","","single-stim-button","326","2246765","0.0-3.0-50.0-1.0","636148a08e1e96b962192d3f","F1","batch6","tol_toboard","825","","","","","","","","","tol_peg_3","825","825","0","[[2,0,0],[3,0],[1]]","1","[[1,2,0],[3,0],[0]]","13","0","","","","","","4","","","","",""
"","","","","","single-stim-button","327","2248400","0.0-3.0-50.1-0.1","636148a08e1e96b962192d3f","F1","batch6","tol_tohand","1635","","","","","","","","","tol_peg_1","1635","1635","0","[[0,0,0],[3,0],[1]]","2","[[1,2,0],[3,0],[0]]","13","0","","","","","","4","","","","",""
"","","","","","single-stim-button","328","2249278","0.0-3.0-50.1-1.1","636148a08e1e96b962192d3f","F1","batch6","tol_toboard","877","","","","","","","","","tol_peg_2","877","877","0","[[0,0,0],[3,2],[1]]","2","[[1,2,0],[3,0],[0]]","13","0","","","","","","4","","","","",""
"","","","","","single-stim-button","329","2249915","0.0-3.0-50.2-0.2","636148a08e1e96b962192d3f","F1","batch6","tol_tohand","636","","","","","","","","","tol_peg_3","636","636","0","[[0,0,0],[3,2],[0]]","3","[[1,2,0],[3,0],[0]]","13","0","","","","","","4","","","","",""
"","","","","","single-stim-button","330","2250411","0.0-3.0-50.2-1.2","636148a08e1e96b962192d3f","F1","batch6","tol_toboard","495","","","","","","","","","tol_peg_1","495","495","0","[[1,0,0],[3,2],[0]]","3","[[1,2,0],[3,0],[0]]","13","0","","","","","","4","","","","",""
"","","","","","single-stim-button","331","2250866","0.0-3.0-50.3-0.3","636148a08e1e96b962192d3f","F1","batch6","tol_tohand","455","","","","","","","","","tol_peg_2","455","455","0","[[1,0,0],[3,0],[0]]","4","[[1,2,0],[3,0],[0]]","13","0","","","","","","4","","","","",""
"","","","","","single-stim-button","332","2251193","0.0-3.0-50.3-1.3","636148a08e1e96b962192d3f","F1","batch6","tol_toboard","325","","","","","","","","","tol_peg_1","325","325","0","[[1,2,0],[3,0],[0]]","4","[[1,2,0],[3,0],[0]]","13","0","","","","","","4","","","","",""
"","","","","","poldrack-single-stim","333","2252194","0.0-3.0-51.0","636148a08e1e96b962192d3f","F1","batch6","tol_feedback","-1","","","","","true","","","","","1000","1000","500","","","","","","-1","none","true","3769","6495","","","","","",""
"","","","","","html-button-response","334","2253073","0.0-3.0-52.0","636148a08e1e96b962192d3f","F1","batch6","tol_trial_num","877.2999999523163","<div class = centerbox><p class = center-block-text>problem <strong>15</strong> out of 25 problems</p></div>","0","","","","","","","","","","","","","","","","","","","","","","","","","",""
"","","","","","single-stim-button","335","2257298","0.0-3.0-53.0-0.0","636148a08e1e96b962192d3f","F1","batch6","tol_tohand","4225","","","","","","","","","tol_peg_1","4225","4225","0","[[1,0,0],[3,0],[0]]","1","[[2,0,0],[3,0],[1]]","14","0","","","","","","3","","","","",""
"","","","","","single-stim-button","336","2257685","0.0-3.0-53.0-1.0","636148a08e1e96b962192d3f","F1","batch6","tol_toboard","386","","","","","","","","","tol_peg_2","386","386","0","[[1,0,0],[3,2],[0]]","1","[[2,0,0],[3,0],[1]]","14","0","","","","","","3","","","","",""
"","","","","","single-stim-button","337","2258297","0.0-3.0-53.1-0.1","636148a08e1e96b962192d3f","F1","batch6","tol_tohand","611","","","","","","","","","tol_peg_1","611","611","0","[[0,0,0],[3,2],[0]]","2","[[2,0,0],[3,0],[1]]","14","0","","","","","","3","","","","",""
"","","","","","single-stim-button","338","2258827","0.0-3.0-53.1-1.1","636148a08e1e96b962192d3f","F1","batch6","tol_toboard","530","","","","","","","","","tol_peg_3","530","530","0","[[0,0,0],[3,2],[1]]","2","[[2,0,0],[3,0],[1]]","14","0","","","","","","3","","","","",""
"","","","","","single-stim-button","339","2259861","0.0-3.0-53.2-0.2","636148a08e1e96b962192d3f","F1","batch6","tol_tohand","1032","","","","","","","","","tol_peg_2","1032","1032","0","[[0,0,0],[3,0],[1]]","3","[[2,0,0],[3,0],[1]]","14","0","","","","","","3","","","","",""
"","","","","","single-stim-button","340","2260157","0.0-3.0-53.2-1.2","636148a08e1e96b962192d3f","F1","batch6","tol_toboard","296","","","","","","","","","tol_peg_1","296","296","0","[[2,0,0],[3,0],[1]]","3","[[2,0,0],[3,0],[1]]","14","0","","","","","","3","","","","",""
"","","","","","poldrack-single-stim","341","2261159","0.0-3.0-54.0","636148a08e1e96b962192d3f","F1","batch6","tol_feedback","-1","","","","","true","","","","","1000","1000","500","","","","","","-1","none","true","4225","5868","","","","","",""
"","","","","","html-button-response","342","2262060","0.0-3.0-55.0","636148a08e1e96b962192d3f","F1","batch6","tol_trial_num","900.7999999523163","<div class = centerbox><p class = center-block-text>problem <strong>16</strong> out of 25 problems</p></div>","0","","","","","","","","","","","","","","","","","","","","","","","","","",""
"","","","","","single-stim-button","343","2278649","0.0-3.0-56.0-0.0","636148a08e1e96b962192d3f","F1","batch6","tol_tohand","16587","","","","","","","","","tol_peg_3","16587","16587","0","[[0,0,0],[2,3],[0]]","1","[[2,3,0],[1,0],[0]]","15","0","","","","","","7","","","","",""
"","","","","","single-stim-button","344","2279069","0.0-3.0-56.0-1.0","636148a08e1e96b962192d3f","F1","batch6","tol_toboard","419","","","","","","","","","tol_peg_1","419","419","0","[[1,0,0],[2,3],[0]]","1","[[2,3,0],[1,0],[0]]","15","0","","","","","","7","","","","",""
"","","","","","single-stim-button","345","2290934","0.0-3.0-56.1-0.1","636148a08e1e96b962192d3f","F1","batch6","tol_tohand","11865","","","","","","","","","tol_peg_2","11865","11865","0","[[1,0,0],[2,0],[0]]","2","[[2,3,0],[1,0],[0]]","15","0","","","","","","7","","","","",""
"","","","","","single-stim-button","346","2291579","0.0-3.0-56.1-1.1","636148a08e1e96b962192d3f","F1","batch6","tol_toboard","643","","","","","","","","","tol_peg_3","643","643","0","[[1,0,0],[2,0],[3]]","2","[[2,3,0],[1,0],[0]]","15","0","","","","","","7","","","","",""
"","","","","","single-stim-button","347","2292755","0.0-3.0-56.2-0.2","636148a08e1e96b962192d3f","F1","batch6","tol_tohand","1175","","","","","","","","","tol_peg_2","1175","1175","0","[[1,0,0],[0,0],[3]]","3","[[2,3,0],[1,0],[0]]","15","0","","","","","","7","","","","",""
"","","","","","single-stim-button","348","2304394","0.0-3.0-56.2-1.2","636148a08e1e96b962192d3f","F1","batch6","tol_toboard","11639","","","","","","","","","tol_peg_1","11639","11639","0","[[1,2,0],[0,0],[3]]","3","[[2,3,0],[1,0],[0]]","15","0","","","","","","7","","","","",""
"","","","","","single-stim-button","349","2307387","0.0-3.0-56.3-0.3","636148a08e1e96b962192d3f","F1","batch6","tol_tohand","2993","","","","","","","","","tol_peg_1","2993","2993","0","[[1,0,0],[0,0],[3]]","4","[[2,3,0],[1,0],[0]]","15","0","","","","","","7","","","","",""
"","","","","","single-stim-button","350","2307782","0.0-3.0-56.3-1.3","636148a08e1e96b962192d3f","F1","batch6","tol_toboard","394","","","","","","","","","tol_peg_2","394","394","0","[[1,0,0],[2,0],[3]]","4","[[2,3,0],[1,0],[0]]","15","0","","","","","","7","","","","",""
"","","","","","single-stim-button","351","2308190","0.0-3.0-56.4-0.4","636148a08e1e96b962192d3f","F1","batch6","tol_tohand","408","","","","","","","","","tol_peg_3","408","408","0","[[1,0,0],[2,0],[0]]","5","[[2,3,0],[1,0],[0]]","15","0","","","","","","7","","","","",""
"","","","","","single-stim-button","352","2308580","0.0-3.0-56.4-1.4","636148a08e1e96b962192d3f","F1","batch6","tol_toboard","390","","","","","","","","","tol_peg_2","390","390","0","[[1,0,0],[2,3],[0]]","5","[[2,3,0],[1,0],[0]]","15","0","","","","","","7","","","","",""
"","","","","","single-stim-button","353","2309482","0.0-3.0-56.5-0.5","636148a08e1e96b962192d3f","F1","batch6","tol_tohand","902","","","","","","","","","tol_peg_1","902","902","0","[[0,0,0],[2,3],[0]]","6","[[2,3,0],[1,0],[0]]","15","0","","","","","","7","","","","",""
"","","","","","single-stim-button","354","2309949","0.0-3.0-56.5-1.5","636148a08e1e96b962192d3f","F1","batch6","tol_toboard","467","","","","","","","","","tol_peg_3","467","467","0","[[0,0,0],[2,3],[1]]","6","[[2,3,0],[1,0],[0]]","15","0","","","","","","7","","","","",""
