"success","timeout","failed_images","failed_audio","failed_video","trial_type","trial_index","time_elapsed","internal_node_id","subject_id","study_id","session_id","view_history","rt","stimulus","response","task","correct","answer","item","fiar_detect_rt","fiar_detect_correct","total_correct_fiar_detect","post_trial_gap","choices","spm_correct","spm_rt","mouse_click","stim_duration","block_duration","timing_post_trial","current_position","tol_num_moves_made","tol_target","tol_problem_id","tol_rt","key_press","possible_responses","tol_correct","preplanning","tol_rt_per_trial","tol_min_moves"
"true","false","[]","[]","[]","preload","0","9147","0.0-0.0","636181cafa036fd02cb083db","D2","batch4","","","","","","","","","","","","","","","","","","","","","","","","","","","","","",""
"true","","","","","fullscreen","1","16485","0.0-1.0-0.0","636181cafa036fd02cb083db","D2","batch4","","","","","","","","","","","","","","","","","","","","","","","","","","","","","",""
"true","","","","","fullscreen","2","20006","0.0-2.0-0.0","636181cafa036fd02cb083db","D2","batch4","","","","","","","","","","","","","","","","","","","","","","","","","","","","","",""
"","","","","","instructions","3","31116","0.0-2.0-1.0-0.0","636181cafa036fd02cb083db","D2","batch4","[{""page_index"":0,""viewing_time"":7684},{""page_index"":1,""viewing_time"":3424}]","11108","","","","","","","","","","","","","","","","","","","","","","","","","","","",""
"","","","","","html-button-response","4","32156","0.0-2.0-1.0-1.0-0.0","636181cafa036fd02cb083db","D2","batch4","","1039","<p class=block-text> Let's answer a few questions <br>","0","pattern_enter_quiz","","","","","","","","","","","","","","","","","","","","","","","","",""
"","","","","","html-button-response","5","33844","0.0-2.0-1.0-1.0-1.0","636181cafa036fd02cb083db","D2","batch4","","1686","<p class = block-text>True or False: You will have as much time as you want to make each choice. <br></p>","1","pattern_quiz","true","","","","","","","","","","","","","","","","","","","","","","","",""
"","","","","","html-button-response","6","34757","0.0-2.0-1.0-1.0-2.0","636181cafa036fd02cb083db","D2","batch4","","911","<p class = block-text>Correct! You should make your choice <strong> as fast as you can</strong>.</p>","0","pattern_quiz_feedback","","","","","","","","","","","","","","","","","","","","","","","","",""
"","","","","","html-button-response","7","37340","0.0-2.0-1.0-1.0-3.0","636181cafa036fd02cb083db","D2","batch4","","2582","<p class = block-text>True or False: You will look for 4 pieces in black or white color connected in a row either horizontally, vertically or diagonally. <br></p>","0","pattern_quiz","true","","","","","","","","","","","","","","","","","","","","","","","",""
"","","","","","html-button-response","8","38068","0.0-2.0-1.0-1.0-4.0","636181cafa036fd02cb083db","D2","batch4","","726","<p class = block-text>Correct! </p>","0","pattern_quiz_feedback","","","","","","","","","","","","","","","","","","","","","","","","",""
"","","","","","html-button-response","9","39197","0.0-2.0-2.0","636181cafa036fd02cb083db","D2","batch4","","1127","<p class=block-text> Now that you've understood the game, let's do a few practice trials before we start!<br> <br>","0","pattern_enter_practice","","","","","","","","","","","","","","","","","","","","","","","","",""
"","","","","","image-keyboard-response","10","41132","0.0-2.0-3.0-0.0","636181cafa036fd02cb083db","D2","batch4","","1928","stim/prac_yes_18_hor_w1.png","f","pattern_practice","true","f","","","","","","","","","","","","","","","","","","","","","","",""
"","","","","","html-keyboard-response","11","42153","0.0-2.0-3.0-1.0","636181cafa036fd02cb083db","D2","batch4","","null","<p style=""font-size:30px;color:green;"">Correct!</p>","null","pattern_feedback","","","","","","","","","","","","","","","","","","","","","","","","",""
"","","","","","image-keyboard-response","12","43355","0.0-2.0-3.0-0.1","636181cafa036fd02cb083db","D2","batch4","","1195","stim/prac_yes_16_ver_w1.png","f","pattern_practice","true","f","","","","","","","","","","","","","","","","","","","","","","",""
"","","","","","html-keyboard-response","13","44373","0.0-2.0-3.0-1.1","636181cafa036fd02cb083db","D2","batch4","","null","<p style=""font-size:30px;color:green;"">Correct!</p>","null","pattern_feedback","","","","","","","","","","","","","","","","","","","","","","","","",""
"","","","","","image-keyboard-response","14","45884","0.0-2.0-3.0-0.2","636181cafa036fd02cb083db","D2","batch4","","1504","stim/prac_no_16_1.png","j","pattern_practice","true","j","","","","","","","","","","","","","","","","","","","","","","",""
"","","","","","html-keyboard-response","15","46899","0.0-2.0-3.0-1.2","636181cafa036fd02cb083db","D2","batch4","","null","<p style=""font-size:30px;color:green;"">Correct!</p>","null","pattern_feedback","","","","","","","","","","","","","","","","","","","","","","","","",""
"","","","","","image-keyboard-response","16","48164","0.0-2.0-3.0-0.3","636181cafa036fd02cb083db","D2","batch4","","1258","stim/prac_yes_20_dia_b1.png","f","pattern_practice","true","f","","","","","","","","","","","","","","","","","","","","","","",""
"","","","","","html-keyboard-response","17","49173","0.0-2.0-3.0-1.3","636181cafa036fd02cb083db","D2","batch4","","null","<p style=""font-size:30px;color:green;"">Correct!</p>","null","pattern_feedback","","","","","","","","","","","","","","","","","","","","","","","","",""
"","","","","","image-keyboard-response","18","50123","0.0-2.0-3.0-0.4","636181cafa036fd02cb083db","D2","batch4","","945","stim/prac_no_18_1.png","j","pattern_practice","true","j","","","","","","","","","","","","","","","","","","","","","","",""
"","","","","","html-keyboard-response","19","51149","0.0-2.0-3.0-1.4","636181cafa036fd02cb083db","D2","batch4","","null","<p style=""font-size:30px;color:green;"">Correct!</p>","null","pattern_feedback","","","","","","","","","","","","","","","","","","","","","","","","",""
"","","","","","html-button-response","20","54467","0.0-2.0-4.0","636181cafa036fd02cb083db","D2","batch4","","3320","<p class=block-text> Good job! You are done with practice trials!<br>
        You responded correctly on 100% of the trials.<br>
        Press the button below to start official trials. Now you won't see any feedback about your response</p>","0","pattern_enter_official_trials","","","","","","","","","","","","","","","","","","","","","","","","",""
"","","","","","html-keyboard-response","21","55272","0.0-2.0-5.0-0.0","636181cafa036fd02cb083db","D2","batch4","","null","<p class=block-text>Trial 1 out of 78</p>","null","pattern_show_trial_num","","","","","","","","","","","","","","","","","","","","","","","","",""
"","","","","","image-keyboard-response","22","57820","0.0-2.0-5.0-1.0","636181cafa036fd02cb083db","D2","batch4","","2541","stim/no_39_1_w.png","j","pattern_response","true","j","pattern_21","2541","true","1","","","","","","","","","","","","","","","","","","",""
"","","","","","html-keyboard-response","23","59148","0.0-2.0-5.0-0.1","636181cafa036fd02cb083db","D2","batch4","","null","<p class=block-text>Trial 2 out of 78</p>","null","pattern_show_trial_num","","","","","","","","","","","","","","","","","","","","","","","","",""
"","","","","","image-keyboard-response","24","62043","0.0-2.0-5.0-1.1","636181cafa036fd02cb083db","D2","batch4","","2889","stim/no_49_2_b.png","j","pattern_response","true","j","pattern_29","2889","true","2","","","","","","","","","","","","","","","","","","",""
"","","","","","html-keyboard-response","25","63366","0.0-2.0-5.0-0.2","636181cafa036fd02cb083db","D2","batch4","","null","<p class=block-text>Trial 3 out of 78</p>","null","pattern_show_trial_num","","","","","","","","","","","","","","","","","","","","","","","","",""
"","","","","","image-keyboard-response","26","65244","0.0-2.0-5.0-1.2","636181cafa036fd02cb083db","D2","batch4","","1869","stim/no_22_1_b.png","j","pattern_response","true","j","pattern_07","1869","true","3","","","","","","","","","","","","","","","","","","",""
"","","","","","html-keyboard-response","27","66559","0.0-2.0-5.0-0.3","636181cafa036fd02cb083db","D2","batch4","","null","<p class=block-text>Trial 4 out of 78</p>","null","pattern_show_trial_num","","","","","","","","","","","","","","","","","","","","","","","","",""
"","","","","","image-keyboard-response","28","67724","0.0-2.0-5.0-1.3","636181cafa036fd02cb083db","D2","batch4","","1160","stim/yes_49_hor_w1_b.png","f","pattern_response","true","f","pattern_70","1160","true","4","","","","","","","","","","","","","","","","","","",""
"","","","","","html-keyboard-response","29","69029","0.0-2.0-5.0-0.4","636181cafa036fd02cb083db","D2","batch4","","null","<p class=block-text>Trial 5 out of 78</p>","null","pattern_show_trial_num","","","","","","","","","","","","","","","","","","","","","","","","",""
"","","","","","image-keyboard-response","30","72365","0.0-2.0-5.0-1.4","636181cafa036fd02cb083db","D2","batch4","","3329","stim/no_47_1_b.png","j","pattern_response","true","j","pattern_27","3329","true","5","","","","","","","","","","","","","","","","","","",""
"","","","","","html-keyboard-response","31","73686","0.0-2.0-5.0-0.5","636181cafa036fd02cb083db","D2","batch4","","null","<p class=block-text>Trial 6 out of 78</p>","null","pattern_show_trial_num","","","","","","","","","","","","","","","","","","","","","","","","",""
"","","","","","image-keyboard-response","32","74525","0.0-2.0-5.0-1.5","636181cafa036fd02cb083db","D2","batch4","","830","stim/yes_17_ver_b1_b.png","f","pattern_response","true","f","pattern_46","830","true","6","","","","","","","","","","","","","","","","","","",""
"","","","","","html-keyboard-response","33","75835","0.0-2.0-5.0-0.6","636181cafa036fd02cb083db","D2","batch4","","null","<p class=block-text>Trial 7 out of 78</p>","null","pattern_show_trial_num","","","","","","","","","","","","","","","","","","","","","","","","",""
"","","","","","image-keyboard-response","34","78348","0.0-2.0-5.0-1.6","636181cafa036fd02cb083db","D2","batch4","","2507","stim/no_36_1_b.png","j","pattern_response","true","j","pattern_17","2507","true","7","","","","","","","","","","","","","","","","","","",""
"","","","","","html-keyboard-response","35","79668","0.0-2.0-5.0-0.7","636181cafa036fd02cb083db","D2","batch4","","null","<p class=block-text>Trial 8 out of 78</p>","null","pattern_show_trial_num","","","","","","","","","","","","","","","","","","","","","","","","",""
"","","","","","image-keyboard-response","36","81348","0.0-2.0-5.0-1.7","636181cafa036fd02cb083db","D2","batch4","","1673","stim/yes_42_dia_w1_w.png","f","pattern_response","true","f","pattern_64","1673","true","8","","","","","","","","","","","","","","","","","","",""
"","","","","","html-keyboard-response","37","82659","0.0-2.0-5.0-0.8","636181cafa036fd02cb083db","D2","batch4","","null","<p class=block-text>Trial 9 out of 78</p>","null","pattern_show_trial_num","","","","","","","","","","","","","","","","","","","","","","","","",""
"","","","","","image-keyboard-response","38","83427","0.0-2.0-5.0-1.8","636181cafa036fd02cb083db","D2","batch4","","762","stim/yes_39_hor_w1_w.png","f","pattern_response","true","f","pattern_62","762","true","9","","","","","","","","","","","","","","","","","","",""
"","","","","","html-keyboard-response","39","84746","0.0-2.0-5.0-0.9","636181cafa036fd02cb083db","D2","batch4","","null","<p class=block-text>Trial 10 out of 78</p>","null","pattern_show_trial_num","","","","","","","","","","","","","","","","","","","","","","","","",""
"","","","","","image-keyboard-response","40","85907","0.0-2.0-5.0-1.9","636181cafa036fd02cb083db","D2","batch4","","1154","stim/no_18_1_b.png","j","pattern_response","true","j","pattern_05","1154","true","10","","","","","","","","","","","","","","","","","","",""
"","","","","","html-keyboard-response","41","87224","0.0-2.0-5.0-0.10","636181cafa036fd02cb083db","D2","batch4","","null","<p class=block-text>Trial 11 out of 78</p>","null","pattern_show_trial_num","","","","","","","","","","","","","","","","","","","","","","","","",""
"","","","","","image-keyboard-response","42","90163","0.0-2.0-5.0-1.10","636181cafa036fd02cb083db","D2","batch4","","2933","stim/no_33_1_b.png","j","pattern_response","true","j","pattern_15","2933","true","11","","","","","","","","","","","","","","","","","","",""
"","","","","","html-keyboard-response","43","91478","0.0-2.0-5.0-0.11","636181cafa036fd02cb083db","D2","batch4","","null","<p class=block-text>Trial 12 out of 78</p>","null","pattern_show_trial_num","","","","","","","","","","","","","","","","","","","","","","","","",""
"","","","","","image-keyboard-response","44","96500","0.0-2.0-5.0-1.11","636181cafa036fd02cb083db","D2","batch4","","5015","stim/no_58_1_w.png","j","pattern_response","true","j","pattern_35","5015","true","12","","","","","","","","","","","","","","","","","","",""
"","","","","","html-keyboard-response","45","97822","0.0-2.0-5.0-0.12","636181cafa036fd02cb083db","D2","batch4","","null","<p class=block-text>Trial 13 out of 78</p>","null","pattern_show_trial_num","","","","","","","","","","","","","","","","","","","","","","","","",""
"","","","","","image-keyboard-response","46","98515","0.0-2.0-5.0-1.12","636181cafa036fd02cb083db","D2","batch4","","687","stim/yes_12_hor_w1_w.png","f","pattern_response","true","f","pattern_42","687","true","13","","","","","","","","","","","","","","","","","","",""
"","","","","","html-keyboard-response","47","99834","0.0-2.0-5.0-0.13","636181cafa036fd02cb083db","D2","batch4","","null","<p class=block-text>Trial 14 out of 78</p>","null","pattern_show_trial_num","","","","","","","","","","","","","","","","","","","","","","","","",""
"","","","","","image-keyboard-response","48","100548","0.0-2.0-5.0-1.13","636181cafa036fd02cb083db","D2","batch4","","707","stim/yes_29_hor_b1_b.png","f","pattern_response","true","f","pattern_52","707","true","14","","","","","","","","","","","","","","","","","","",""
"","","","","","html-keyboard-response","49","101857","0.0-2.0-5.0-0.14","636181cafa036fd02cb083db","D2","batch4","","null","<p class=block-text>Trial 15 out of 78</p>","null","pattern_show_trial_num","","","","","","","","","","","","","","","","","","","","","","","","",""
"","","","","","image-keyboard-response","50","102708","0.0-2.0-5.0-1.14","636181cafa036fd02cb083db","D2","batch4","","844","stim/yes_30_ver_b1_b.png","f","pattern_response","true","f","pattern_54","844","true","15","","","","","","","","","","","","","","","","","","",""
"","","","","","html-keyboard-response","51","104027","0.0-2.0-5.0-0.15","636181cafa036fd02cb083db","D2","batch4","","null","<p class=block-text>Trial 16 out of 78</p>","null","pattern_show_trial_num","","","","","","","","","","","","","","","","","","","","","","","","",""
"","","","","","image-keyboard-response","52","104860","0.0-2.0-5.0-1.15","636181cafa036fd02cb083db","D2","batch4","","824","stim/yes_51_dia_b1.png","f","pattern_response","true","f","pattern_72","824","true","16","","","","","","","","","","","","","","","","","","",""
"","","","","","html-keyboard-response","53","106170","0.0-2.0-5.0-0.16","636181cafa036fd02cb083db","D2","batch4","","null","<p class=block-text>Trial 17 out of 78</p>","null","pattern_show_trial_num","","","","","","","","","","","","","","","","","","","","","","","","",""
"","","","","","image-keyboard-response","54","109891","0.0-2.0-5.0-1.16","636181cafa036fd02cb083db","D2","batch4","","3714","stim/no_37_2_w.png","j","pattern_response","true","j","pattern_19","3714","true","17","","","","","","","","","","","","","","","","","","",""
"","","","","","html-keyboard-response","55","111210","0.0-2.0-5.0-0.17","636181cafa036fd02cb083db","D2","batch4","","null","<p class=block-text>Trial 18 out of 78</p>","null","pattern_show_trial_num","","","","","","","","","","","","","","","","","","","","","","","","",""
"","","","","","image-keyboard-response","56","113675","0.0-2.0-5.0-1.17","636181cafa036fd02cb083db","D2","batch4","","2458","stim/no_30_1_b.png","j","pattern_response","true","j","pattern_13","2458","true","18","","","","","","","","","","","","","","","","","","",""
"","","","","","html-keyboard-response","57","114996","0.0-2.0-5.0-0.18","636181cafa036fd02cb083db","D2","batch4","","null","<p class=block-text>Trial 19 out of 78</p>","null","pattern_show_trial_num","","","","","","","","","","","","","","","","","","","","","","","","",""
"","","","","","image-keyboard-response","58","116396","0.0-2.0-5.0-1.18","636181cafa036fd02cb083db","D2","batch4","","1395","stim/yes_53_ver_b1_b.png","f","pattern_response","true","f","pattern_74","1395","true","19","","","","","","","","","","","","","","","","","","",""
"","","","","","html-keyboard-response","59","117703","0.0-2.0-5.0-0.19","636181cafa036fd02cb083db","D2","batch4","","null","<p class=block-text>Trial 20 out of 78</p>","null","pattern_show_trial_num","","","","","","","","","","","","","","","","","","","","","","","","",""
"","","","","","image-keyboard-response","60","118588","0.0-2.0-5.0-1.19","636181cafa036fd02cb083db","D2","batch4","","878","stim/yes_33_dia_w1_w.png","f","pattern_response","true","f","pattern_56","878","true","20","","","","","","","","","","","","","","","","","","",""
"","","","","","html-keyboard-response","61","119913","0.0-2.0-5.0-0.20","636181cafa036fd02cb083db","D2","batch4","","null","<p class=block-text>Trial 21 out of 78</p>","null","pattern_show_trial_num","","","","","","","","","","","","","","","","","","","","","","","","",""
"","","","","","image-keyboard-response","62","123628","0.0-2.0-5.0-1.20","636181cafa036fd02cb083db","D2","batch4","","3708","stim/yes_58_dia_w1_w.png","f","pattern_response","true","f","pattern_76","3708","true","21","","","","","","","","","","","","","","","","","","",""
"","","","","","html-keyboard-response","63","124952","0.0-2.0-5.0-0.21","636181cafa036fd02cb083db","D2","batch4","","null","<p class=block-text>Trial 22 out of 78</p>","null","pattern_show_trial_num","","","","","","","","","","","","","","","","","","","","","","","","",""
"","","","","","image-keyboard-response","64","126771","0.0-2.0-5.0-1.21","636181cafa036fd02cb083db","D2","batch4","","1813","stim/no_25_1_b.png","j","pattern_response","true","j","pattern_09","1813","true","22","","","","","","","","","","","","","","","","","","",""
"","","","","","html-keyboard-response","65","128091","0.0-2.0-5.0-0.22","636181cafa036fd02cb083db","D2","batch4","","null","<p class=block-text>Trial 23 out of 78</p>","null","pattern_show_trial_num","","","","","","","","","","","","","","","","","","","","","","","","",""
"","","","","","image-keyboard-response","66","128883","0.0-2.0-5.0-1.22","636181cafa036fd02cb083db","D2","batch4","","786","stim/yes_36_ver_w1_w.png","f","pattern_response","true","f","pattern_58","786","true","23","","","","","","","","","","","","","","","","","","",""
"","","","","","html-keyboard-response","67","130195","0.0-2.0-5.0-0.23","636181cafa036fd02cb083db","D2","batch4","","null","<p class=block-text>Trial 24 out of 78</p>","null","pattern_show_trial_num","","","","","","","","","","","","","","","","","","","","","","","","",""
"","","","","","image-keyboard-response","68","131204","0.0-2.0-5.0-1.23","636181cafa036fd02cb083db","D2","batch4","","1002","stim/no_15_1_w.png","j","pattern_response","true","j","pattern_03","1002","true","24","","","","","","","","","","","","","","","","","","",""
"","","","","","html-keyboard-response","69","132526","0.0-2.0-5.0-0.24","636181cafa036fd02cb083db","D2","batch4","","null","<p class=block-text>Trial 25 out of 78</p>","null","pattern_show_trial_num","","","","","","","","","","","","","","","","","","","","","","","","",""
"","","","","","image-keyboard-response","70","133787","0.0-2.0-5.0-1.24","636181cafa036fd02cb083db","D2","batch4","","1255","stim/yes_37_hor_w1_w.png","f","pattern_response","true","f","pattern_60","1255","true","25","","","","","","","","","","","","","","","","","","",""
"","","","","","html-keyboard-response","71","135111","0.0-2.0-5.0-0.25","636181cafa036fd02cb083db","D2","batch4","","null","<p class=block-text>Trial 26 out of 78</p>","null","pattern_show_trial_num","","","","","","","","","","","","","","","","","","","","","","","","",""
"","","","","","image-keyboard-response","72","141212","0.0-2.0-5.0-1.25","636181cafa036fd02cb083db","D2","batch4","","6094","stim/no_67_1.png","j","pattern_response","true","j","pattern_39","6094","true","26","","","","","","","","","","","","","","","","","","",""
"","","","","","html-keyboard-response","73","142532","0.0-2.0-5.0-0.26","636181cafa036fd02cb083db","D2","batch4","","null","<p class=block-text>Trial 27 out of 78</p>","null","pattern_show_trial_num","","","","","","","","","","","","","","","","","","","","","","","","",""
"","","","","","image-keyboard-response","74","143388","0.0-2.0-5.0-1.26","636181cafa036fd02cb083db","D2","batch4","","847","stim/yes_23_ver_b1.png","f","pattern_response","true","f","pattern_48","847","true","27","","","","","","","","","","","","","","","","","","",""
"","","","","","html-keyboard-response","75","144713","0.0-2.0-5.0-0.27","636181cafa036fd02cb083db","D2","batch4","","null","<p class=block-text>Trial 28 out of 78</p>","null","pattern_show_trial_num","","","","","","","","","","","","","","","","","","","","","","","","",""
"","","","","","image-keyboard-response","76","148139","0.0-2.0-5.0-1.27","636181cafa036fd02cb083db","D2","batch4","","3419","stim/no_43_2_b.png","j","pattern_response","true","j","pattern_23","3419","true","28","","","","","","","","","","","","","","","","","","",""
"","","","","","html-keyboard-response","77","149455","0.0-2.0-5.0-0.28","636181cafa036fd02cb083db","D2","batch4","","null","<p class=block-text>Trial 29 out of 78</p>","null","pattern_show_trial_num","","","","","","","","","","","","","","","","","","","","","","","","",""
"","","","","","image-keyboard-response","78","150756","0.0-2.0-5.0-1.28","636181cafa036fd02cb083db","D2","batch4","","1296","stim/yes_44_ver_w1_w.png","f","pattern_response","true","f","pattern_66","1296","true","29","","","","","","","","","","","","","","","","","","",""
"","","","","","html-keyboard-response","79","152067","0.0-2.0-5.0-0.29","636181cafa036fd02cb083db","D2","batch4","","null","<p class=block-text>Trial 30 out of 78</p>","null","pattern_show_trial_num","","","","","","","","","","","","","","","","","","","","","","","","",""
"","","","","","image-keyboard-response","80","157059","0.0-2.0-5.0-1.29","636181cafa036fd02cb083db","D2","batch4","","4987","stim/no_53_1_b.png","j","pattern_response","true","j","pattern_33","4987","true","30","","","","","","","","","","","","","","","","","","",""
"","","","","","html-keyboard-response","81","158377","0.0-2.0-5.0-0.30","636181cafa036fd02cb083db","D2","batch4","","null","<p class=block-text>Trial 31 out of 78</p>","null","pattern_show_trial_num","","","","","","","","","","","","","","","","","","","","","","","","",""
"","","","","","image-keyboard-response","82","159269","0.0-2.0-5.0-1.30","636181cafa036fd02cb083db","D2","batch4","","885","stim/no_12_1.png","j","pattern_response","true","j","pattern_01","885","true","31","","","","","","","","","","","","","","","","","","",""
"","","","","","html-keyboard-response","83","160592","0.0-2.0-5.0-0.31","636181cafa036fd02cb083db","D2","batch4","","null","<p class=block-text>Trial 32 out of 78</p>","null","pattern_show_trial_num","","","","","","","","","","","","","","","","","","","","","","","","",""
"","","","","","image-keyboard-response","84","161499","0.0-2.0-5.0-1.31","636181cafa036fd02cb083db","D2","batch4","","901","stim/yes_15_dia_b1u_b.png","f","pattern_response","true","f","pattern_44","901","true","32","","","","","","","","","","","","","","","","","","",""
"","","","","","html-keyboard-response","85","162813","0.0-2.0-5.0-0.32","636181cafa036fd02cb083db","D2","batch4","","null","<p class=block-text>Trial 33 out of 78</p>","null","pattern_show_trial_num","","","","","","","","","","","","","","","","","","","","","","","","",""
"","","","","","image-keyboard-response","86","166596","0.0-2.0-5.0-1.32","636181cafa036fd02cb083db","D2","batch4","","3775","stim/no_45_1_w.png","j","pattern_response","true","j","pattern_25","3775","true","33","","","","","","","","","","","","","","","","","","",""
"","","","","","html-keyboard-response","87","167907","0.0-2.0-5.0-0.33","636181cafa036fd02cb083db","D2","batch4","","null","<p class=block-text>Trial 34 out of 78</p>","null","pattern_show_trial_num","","","","","","","","","","","","","","","","","","","","","","","","",""
"","","","","","image-keyboard-response","88","171636","0.0-2.0-5.0-1.33","636181cafa036fd02cb083db","D2","batch4","","3721","stim/no_51_1.png","j","pattern_response","true","j","pattern_31","3721","true","34","","","","","","","","","","","","","","","","","","",""
"","","","","","html-keyboard-response","89","172952","0.0-2.0-5.0-0.34","636181cafa036fd02cb083db","D2","batch4","","null","<p class=block-text>Trial 35 out of 78</p>","null","pattern_show_trial_num","","","","","","","","","","","","","","","","","","","","","","","","",""
"","","","","","image-keyboard-response","90","175987","0.0-2.0-5.0-1.34","636181cafa036fd02cb083db","D2","batch4","","3029","stim/yes_63_dia_b1.png","f","pattern_response","true","f","pattern_78","3029","true","35","","","","","","","","","","","","","","","","","","",""
"","","","","","html-keyboard-response","91","177298","0.0-2.0-5.0-0.35","636181cafa036fd02cb083db","D2","batch4","","null","<p class=block-text>Trial 36 out of 78</p>","null","pattern_show_trial_num","","","","","","","","","","","","","","","","","","","","","","","","",""
"","","","","","image-keyboard-response","92","179212","0.0-2.0-5.0-1.35","636181cafa036fd02cb083db","D2","batch4","","1907","stim/no_28_2.png","j","pattern_response","true","j","pattern_11","1907","true","36","","","","","","","","","","","","","","","","","","",""
"","","","","","html-keyboard-response","93","180521","0.0-2.0-5.0-0.36","636181cafa036fd02cb083db","D2","batch4","","null","<p class=block-text>Trial 37 out of 78</p>","null","pattern_show_trial_num","","","","","","","","","","","","","","","","","","","","","","","","",""
"","","","","","image-keyboard-response","94","181699","0.0-2.0-5.0-1.36","636181cafa036fd02cb083db","D2","batch4","","1172","stim/yes_26_dia_w2_w.png","f","pattern_response","true","f","pattern_50","1172","true","37","","","","","","","","","","","","","","","","","","",""
"","","","","","html-keyboard-response","95","183013","0.0-2.0-5.0-0.37","636181cafa036fd02cb083db","D2","batch4","","null","<p class=block-text>Trial 38 out of 78</p>","null","pattern_show_trial_num","","","","","","","","","","","","","","","","","","","","","","","","",""
"","","","","","image-keyboard-response","96","184852","0.0-2.0-5.0-1.37","636181cafa036fd02cb083db","D2","batch4","","1832","stim/yes_46_ver_b1_b.png","f","pattern_response","true","f","pattern_68","1832","true","38","","","","","","","","","","","","","","","","","","",""
"","","","","","html-keyboard-response","97","186175","0.0-2.0-5.0-0.38","636181cafa036fd02cb083db","D2","batch4","","null","<p class=block-text>Trial 39 out of 78</p>","null","pattern_show_trial_num","","","","","","","","","","","","","","","","","","","","","","","","",""
"","","","","","image-keyboard-response","98","187075","0.0-2.0-5.0-1.38","636181cafa036fd02cb083db","D2","batch4","","894","stim/yes_70_ver_b1.png","f","pattern_response","true","f","pattern_80","894","true","39","","","","","","","","","","","","","","","","","","",""
"","","","","","image-keyboard-response","99","189291","0.0-2.0-6.0","636181cafa036fd02cb083db","D2","batch4","","1695","stim/empty_board.png","j","attention_check","true","j","","","","","500","[""f"",""j""]","","","","","","","","","","","","","","","","",""
"","","","","","html-keyboard-response","100","190100","0.0-2.0-7.0-0.0","636181cafa036fd02cb083db","D2","batch4","","null","<p class=block-text>Trial 40 out of 78</p>","null","pattern_show_trial_num","","","","","","","","","","","","","","","","","","","","","","","","",""
"","","","","","image-keyboard-response","101","191139","0.0-2.0-7.0-1.0","636181cafa036fd02cb083db","D2","batch4","","1034","stim/yes_22_ver_w1.png","f","pattern_response","true","f","pattern_47","1034","true","40","","","","","","","","","","","","","","","","","","",""
"","","","","","html-keyboard-response","102","192449","0.0-2.0-7.0-0.1","636181cafa036fd02cb083db","D2","batch4","","null","<p class=block-text>Trial 41 out of 78</p>","null","pattern_show_trial_num","","","","","","","","","","","","","","","","","","","","","","","","",""
"","","","","","image-keyboard-response","103","193532","0.0-2.0-7.0-1.1","636181cafa036fd02cb083db","D2","batch4","","1075","stim/no_20_1_w.png","j","pattern_response","true","j","pattern_06","1075","true","41","","","","","","","","","","","","","","","","","","",""
"","","","","","html-keyboard-response","104","194853","0.0-2.0-7.0-0.2","636181cafa036fd02cb083db","D2","batch4","","null","<p class=block-text>Trial 42 out of 78</p>","null","pattern_show_trial_num","","","","","","","","","","","","","","","","","","","","","","","","",""
"","","","","","image-keyboard-response","105","195731","0.0-2.0-7.0-1.2","636181cafa036fd02cb083db","D2","batch4","","873","stim/yes_38_hor_b1_b.png","f","pattern_response","true","f","pattern_61","873","true","42","","","","","","","","","","","","","","","","","","",""
"","","","","","html-keyboard-response","106","197050","0.0-2.0-7.0-0.3","636181cafa036fd02cb083db","D2","batch4","","null","<p class=block-text>Trial 43 out of 78</p>","null","pattern_show_trial_num","","","","","","","","","","","","","","","","","","","","","","","","",""
"","","","","","image-keyboard-response","107","200092","0.0-2.0-7.0-1.3","636181cafa036fd02cb083db","D2","batch4","","3035","stim/no_52_1.png","j","pattern_response","true","j","pattern_32","3035","true","43","","","","","","","","","","","","","","","","","","",""
"","","","","","html-keyboard-response","108","201414","0.0-2.0-7.0-0.4","636181cafa036fd02cb083db","D2","batch4","","null","<p class=block-text>Trial 44 out of 78</p>","null","pattern_show_trial_num","","","","","","","","","","","","","","","","","","","","","","","","",""
"","","","","","image-keyboard-response","109","203805","0.0-2.0-7.0-1.4","636181cafa036fd02cb083db","D2","batch4","","2384","stim/no_29_1_b.png","j","pattern_response","true","j","pattern_12","2384","true","44","","","","","","","","","","","","","","","","","","",""
"","","","","","html-keyboard-response","110","205130","0.0-2.0-7.0-0.5","636181cafa036fd02cb083db","D2","batch4","","null","<p class=block-text>Trial 45 out of 78</p>","null","pattern_show_trial_num","","","","","","","","","","","","","","","","","","","","","","","","",""
"","","","","","image-keyboard-response","111","206363","0.0-2.0-7.0-1.5","636181cafa036fd02cb083db","D2","batch4","","1228","stim/yes_55_hor_w1_w.png","f","pattern_response","true","f","pattern_75","1228","true","45","","","","","","","","","","","","","","","","","","",""
"","","","","","html-keyboard-response","112","207684","0.0-2.0-7.0-0.6","636181cafa036fd02cb083db","D2","batch4","","null","<p class=block-text>Trial 46 out of 78</p>","null","pattern_show_trial_num","","","","","","","","","","","","","","","","","","","","","","","","",""
"","","","","","image-keyboard-response","113","208708","0.0-2.0-7.0-1.6","636181cafa036fd02cb083db","D2","batch4","","1017","stim/yes_60_ver_b1_b.png","f","pattern_response","true","f","pattern_77","1017","true","46","","","","","","","","","","","","","","","","","","",""
"","","","","","html-keyboard-response","114","210024","0.0-2.0-7.0-0.7","636181cafa036fd02cb083db","D2","batch4","","null","<p class=block-text>Trial 47 out of 78</p>","null","pattern_show_trial_num","","","","","","","","","","","","","","","","","","","","","","","","",""
"","","","","","image-keyboard-response","115","212908","0.0-2.0-7.0-1.7","636181cafa036fd02cb083db","D2","batch4","","2878","stim/no_42_1_w.png","j","pattern_response","true","j","pattern_22","2878","true","47","","","","","","","","","","","","","","","","","","",""
"","","","","","html-keyboard-response","116","214228","0.0-2.0-7.0-0.8","636181cafa036fd02cb083db","D2","batch4","","null","<p class=block-text>Trial 48 out of 78</p>","null","pattern_show_trial_num","","","","","","","","","","","","","","","","","","","","","","","","",""
"","","","","","image-keyboard-response","117","215180","0.0-2.0-7.0-1.8","636181cafa036fd02cb083db","D2","batch4","","945","stim/no_13_2_b.png","j","pattern_response","true","j","pattern_02","945","true","48","","","","","","","","","","","","","","","","","","",""
"","","","","","html-keyboard-response","118","216502","0.0-2.0-7.0-0.9","636181cafa036fd02cb083db","D2","batch4","","null","<p class=block-text>Trial 49 out of 78</p>","null","pattern_show_trial_num","","","","","","","","","","","","","","","","","","","","","","","","",""
"","","","","","image-keyboard-response","119","220323","0.0-2.0-7.0-1.9","636181cafa036fd02cb083db","D2","batch4","","3815","stim/no_46_1_b.png","j","pattern_response","true","j","pattern_26","3815","true","49","","","","","","","","","","","","","","","","","","",""
"","","","","","html-keyboard-response","120","221640","0.0-2.0-7.0-0.10","636181cafa036fd02cb083db","D2","batch4","","null","<p class=block-text>Trial 50 out of 78</p>","null","pattern_show_trial_num","","","","","","","","","","","","","","","","","","","","","","","","",""
"","","","","","image-keyboard-response","121","223036","0.0-2.0-7.0-1.10","636181cafa036fd02cb083db","D2","batch4","","1390","stim/yes_31_hor_b1.png","f","pattern_response","true","f","pattern_55","1390","true","50","","","","","","","","","","","","","","","","","","",""
"","","","","","html-keyboard-response","122","224352","0.0-2.0-7.0-0.11","636181cafa036fd02cb083db","D2","batch4","","null","<p class=block-text>Trial 51 out of 78</p>","null","pattern_show_trial_num","","","","","","","","","","","","","","","","","","","","","","","","",""
"","","","","","image-keyboard-response","123","230443","0.0-2.0-7.0-1.11","636181cafa036fd02cb083db","D2","batch4","","6085","stim/no_70_2.png","j","pattern_response","true","j","pattern_40","6085","true","51","","","","","","","","","","","","","","","","","","",""
"","","","","","html-keyboard-response","124","231756","0.0-2.0-7.0-0.12","636181cafa036fd02cb083db","D2","batch4","","null","<p class=block-text>Trial 52 out of 78</p>","null","pattern_show_trial_num","","","","","","","","","","","","","","","","","","","","","","","","",""
"","","","","","image-keyboard-response","125","236867","0.0-2.0-7.0-1.12","636181cafa036fd02cb083db","D2","batch4","","5104","stim/no_62_1_w.png","j","pattern_response","true","j","pattern_36","5104","true","52","","","","","","","","","","","","","","","","","","",""
"","","","","","html-keyboard-response","126","238190","0.0-2.0-7.0-0.13","636181cafa036fd02cb083db","D2","batch4","","null","<p class=block-text>Trial 53 out of 78</p>","null","pattern_show_trial_num","","","","","","","","","","","","","","","","","","","","","","","","",""
"","","","","","image-keyboard-response","127","239132","0.0-2.0-7.0-1.13","636181cafa036fd02cb083db","D2","batch4","","934","stim/yes_25_hor_b1_b.png","f","pattern_response","true","f","pattern_49","934","true","53","","","","","","","","","","","","","","","","","","",""
"","","","","","html-keyboard-response","128","240453","0.0-2.0-7.0-0.14","636181cafa036fd02cb083db","D2","batch4","","null","<p class=block-text>Trial 54 out of 78</p>","null","pattern_show_trial_num","","","","","","","","","","","","","","","","","","","","","","","","",""
"","","","","","image-keyboard-response","129","244732","0.0-2.0-7.0-1.14","636181cafa036fd02cb083db","D2","batch4","","4271","stim/yes_50_dia_w1.png","j","pattern_response","false","f","pattern_71","4271","false","53","","","","","","","","","","","","","","","","","","",""
"","","","","","html-keyboard-response","130","246057","0.0-2.0-7.0-0.15","636181cafa036fd02cb083db","D2","batch4","","null","<p class=block-text>Trial 55 out of 78</p>","null","pattern_show_trial_num","","","","","","","","","","","","","","","","","","","","","","","","",""
"","","","","","image-keyboard-response","131","248011","0.0-2.0-7.0-1.15","636181cafa036fd02cb083db","D2","batch4","","1947","stim/no_26_1_w.png","j","pattern_response","true","j","pattern_10","1947","true","54","","","","","","","","","","","","","","","","","","",""
"","","","","","html-keyboard-response","132","249330","0.0-2.0-7.0-0.16","636181cafa036fd02cb083db","D2","batch4","","null","<p class=block-text>Trial 56 out of 78</p>","null","pattern_show_trial_num","","","","","","","","","","","","","","","","","","","","","","","","",""
"","","","","","image-keyboard-response","133","253811","0.0-2.0-7.0-1.16","636181cafa036fd02cb083db","D2","batch4","","4476","stim/no_36_2_w.png","j","pattern_response","true","j","pattern_18","4476","true","55","","","","","","","","","","","","","","","","","","",""
"","","","","","html-keyboard-response","134","255132","0.0-2.0-7.0-0.17","636181cafa036fd02cb083db","D2","batch4","","null","<p class=block-text>Trial 57 out of 78</p>","null","pattern_show_trial_num","","","","","","","","","","","","","","","","","","","","","","","","",""
"","","","","","image-keyboard-response","135","259508","0.0-2.0-7.0-1.17","636181cafa036fd02cb083db","D2","batch4","","4369","stim/no_44_1.png","j","pattern_response","true","j","pattern_24","4369","true","56","","","","","","","","","","","","","","","","","","",""
"","","","","","html-keyboard-response","136","260817","0.0-2.0-7.0-0.18","636181cafa036fd02cb083db","D2","batch4","","null","<p class=block-text>Trial 58 out of 78</p>","null","pattern_show_trial_num","","","","","","","","","","","","","","","","","","","","","","","","",""
"","","","","","image-keyboard-response","137","261756","0.0-2.0-7.0-1.18","636181cafa036fd02cb083db","D2","batch4","","932","stim/yes_40_dia_b1_b.png","f","pattern_response","true","f","pattern_63","932","true","57","","","","","","","","","","","","","","","","","","",""
"","","","","","html-keyboard-response","138","263075","0.0-2.0-7.0-0.19","636181cafa036fd02cb083db","D2","batch4","","null","<p class=block-text>Trial 59 out of 78</p>","null","pattern_show_trial_num","","","","","","","","","","","","","","","","","","","","","","","","",""
"","","","","","image-keyboard-response","139","267772","0.0-2.0-7.0-1.19","636181cafa036fd02cb083db","D2","batch4","","4691","stim/no_50_1.png","j","pattern_response","true","j","pattern_30","4691","true","58","","","","","","","","","","","","","","","","","","",""
"","","","","","html-keyboard-response","140","269090","0.0-2.0-7.0-0.20","636181cafa036fd02cb083db","D2","batch4","","null","<p class=block-text>Trial 60 out of 78</p>","null","pattern_show_trial_num","","","","","","","","","","","","","","","","","","","","","","","","",""
"","","","","","image-keyboard-response","141","271540","0.0-2.0-7.0-1.20","636181cafa036fd02cb083db","D2","batch4","","2442","stim/no_32_1_w.png","j","pattern_response","true","j","pattern_14","2442","true","59","","","","","","","","","","","","","","","","","","",""
"","","","","","html-keyboard-response","142","272867","0.0-2.0-7.0-0.21","636181cafa036fd02cb083db","D2","batch4","","null","<p class=block-text>Trial 61 out of 78</p>","null","pattern_show_trial_num","","","","","","","","","","","","","","","","","","","","","","","","",""
"","","","","","image-keyboard-response","143","274083","0.0-2.0-7.0-1.21","636181cafa036fd02cb083db","D2","batch4","","1210","stim/yes_43_ver_w1_w.png","f","pattern_response","true","f","pattern_65","1210","true","60","","","","","","","","","","","","","","","","","","",""
"","","","","","html-keyboard-response","144","275407","0.0-2.0-7.0-0.22","636181cafa036fd02cb083db","D2","batch4","","null","<p class=block-text>Trial 62 out of 78</p>","null","pattern_show_trial_num","","","","","","","","","","","","","","","","","","","","","","","","",""
"","","","","","image-keyboard-response","145","277083","0.0-2.0-7.0-1.22","636181cafa036fd02cb083db","D2","batch4","","1668","stim/yes_37_dia_w1.png","f","pattern_response","true","f","pattern_59","1668","true","61","","","","","","","","","","","","","","","","","","",""
"","","","","","html-keyboard-response","146","278397","0.0-2.0-7.0-0.23","636181cafa036fd02cb083db","D2","batch4","","null","<p class=block-text>Trial 63 out of 78</p>","null","pattern_show_trial_num","","","","","","","","","","","","","","","","","","","","","","","","",""
"","","","","","image-keyboard-response","147","281892","0.0-2.0-7.0-1.23","636181cafa036fd02cb083db","D2","batch4","","3489","stim/no_38_1_b.png","j","pattern_response","true","j","pattern_20","3489","true","62","","","","","","","","","","","","","","","","","","",""
"","","","","","html-keyboard-response","148","283210","0.0-2.0-7.0-0.24","636181cafa036fd02cb083db","D2","batch4","","null","<p class=block-text>Trial 64 out of 78</p>","null","pattern_show_trial_num","","","","","","","","","","","","","","","","","","","","","","","","",""
"","","","","","image-keyboard-response","149","285076","0.0-2.0-7.0-1.24","636181cafa036fd02cb083db","D2","batch4","","1859","stim/no_23_1.png","j","pattern_response","true","j","pattern_08","1859","true","63","","","","","","","","","","","","","","","","","","",""
"","","","","","html-keyboard-response","150","286394","0.0-2.0-7.0-0.25","636181cafa036fd02cb083db","D2","batch4","","null","<p class=block-text>Trial 65 out of 78</p>","null","pattern_show_trial_num","","","","","","","","","","","","","","","","","","","","","","","","",""
"","","","","","image-keyboard-response","151","287356","0.0-2.0-7.0-1.25","636181cafa036fd02cb083db","D2","batch4","","956","stim/yes_17_dia_w1.png","f","pattern_response","true","f","pattern_45","956","true","64","","","","","","","","","","","","","","","","","","",""
"","","","","","html-keyboard-response","152","288673","0.0-2.0-7.0-0.26","636181cafa036fd02cb083db","D2","batch4","","null","<p class=block-text>Trial 66 out of 78</p>","null","pattern_show_trial_num","","","","","","","","","","","","","","","","","","","","","","","","",""
"","","","","","image-keyboard-response","153","291515","0.0-2.0-7.0-1.26","636181cafa036fd02cb083db","D2","batch4","","2835","stim/no_34_1_b.png","j","pattern_response","true","j","pattern_16","2835","true","65","","","","","","","","","","","","","","","","","","",""
"","","","","","html-keyboard-response","154","292835","0.0-2.0-7.0-0.27","636181cafa036fd02cb083db","D2","batch4","","null","<p class=block-text>Trial 67 out of 78</p>","null","pattern_show_trial_num","","","","","","","","","","","","","","","","","","","","","","","","",""
"","","","","","image-keyboard-response","155","294604","0.0-2.0-7.0-1.27","636181cafa036fd02cb083db","D2","batch4","","1761","stim/yes_67_hor_b1.png","f","pattern_response","true","f","pattern_79","1761","true","66","","","","","","","","","","","","","","","","","","",""
"","","","","","html-keyboard-response","156","295924","0.0-2.0-7.0-0.28","636181cafa036fd02cb083db","D2","batch4","","null","<p class=block-text>Trial 68 out of 78</p>","null","pattern_show_trial_num","","","","","","","","","","","","","","","","","","","","","","","","",""
"","","","","","image-keyboard-response","157","300195","0.0-2.0-7.0-1.28","636181cafa036fd02cb083db","D2","batch4","","4265","stim/no_55_1_w.png","j","pattern_response","true","j","pattern_34","4265","true","67","","","","","","","","","","","","","","","","","","",""
"","","","","","html-keyboard-response","158","301508","0.0-2.0-7.0-0.29","636181cafa036fd02cb083db","D2","batch4","","null","<p class=block-text>Trial 69 out of 78</p>","null","pattern_show_trial_num","","","","","","","","","","","","","","","","","","","","","","","","",""
"","","","","","image-keyboard-response","159","306780","0.0-2.0-7.0-1.29","636181cafa036fd02cb083db","D2","batch4","","5266","stim/no_48_1_w.png","j","pattern_response","true","j","pattern_28","5266","true","68","","","","","","","","","","","","","","","","","","",""
"","","","","","html-keyboard-response","160","308096","0.0-2.0-7.0-0.30","636181cafa036fd02cb083db","D2","batch4","","null","<p class=block-text>Trial 70 out of 78</p>","null","pattern_show_trial_num","","","","","","","","","","","","","","","","","","","","","","","","",""
"","","","","","image-keyboard-response","161","309276","0.0-2.0-7.0-1.30","636181cafa036fd02cb083db","D2","batch4","","1173","stim/no_17_1_w.png","j","pattern_response","true","j","pattern_04","1173","true","69","","","","","","","","","","","","","","","","","","",""
"","","","","","html-keyboard-response","162","310588","0.0-2.0-7.0-0.31","636181cafa036fd02cb083db","D2","batch4","","null","<p class=block-text>Trial 71 out of 78</p>","null","pattern_show_trial_num","","","","","","","","","","","","","","","","","","","","","","","","",""
"","","","","","image-keyboard-response","163","311788","0.0-2.0-7.0-1.31","636181cafa036fd02cb083db","D2","batch4","","1193","stim/yes_45_hor_b2_b.png","f","pattern_response","true","f","pattern_67","1193","true","70","","","","","","","","","","","","","","","","","","",""
"","","","","","html-keyboard-response","164","313108","0.0-2.0-7.0-0.32","636181cafa036fd02cb083db","D2","batch4","","null","<p class=block-text>Trial 72 out of 78</p>","null","pattern_show_trial_num","","","","","","","","","","","","","","","","","","","","","","","","",""
"","","","","","image-keyboard-response","165","314420","0.0-2.0-7.0-1.32","636181cafa036fd02cb083db","D2","batch4","","1305","stim/yes_35_dia_b1.png","f","pattern_response","true","f","pattern_57","1305","true","71","","","","","","","","","","","","","","","","","","",""
"","","","","","html-keyboard-response","166","315743","0.0-2.0-7.0-0.33","636181cafa036fd02cb083db","D2","batch4","","null","<p class=block-text>Trial 73 out of 78</p>","null","pattern_show_trial_num","","","","","","","","","","","","","","","","","","","","","","","","",""
"","","","","","image-keyboard-response","167","316379","0.0-2.0-7.0-1.33","636181cafa036fd02cb083db","D2","batch4","","630","stim/yes_14_hor_b1_w.png","f","pattern_response","true","f","pattern_43","630","true","72","","","","","","","","","","","","","","","","","","",""
"","","","","","html-keyboard-response","168","317706","0.0-2.0-7.0-0.34","636181cafa036fd02cb083db","D2","batch4","","null","<p class=block-text>Trial 74 out of 78</p>","null","pattern_show_trial_num","","","","","","","","","","","","","","","","","","","","","","","","",""
"","","","","","image-keyboard-response","169","319244","0.0-2.0-7.0-1.34","636181cafa036fd02cb083db","D2","batch4","","1530","stim/yes_48_dia_w1_w.png","f","pattern_response","true","f","pattern_69","1530","true","73","","","","","","","","","","","","","","","","","","",""
"","","","","","html-keyboard-response","170","320551","0.0-2.0-7.0-0.35","636181cafa036fd02cb083db","D2","batch4","","null","<p class=block-text>Trial 75 out of 78</p>","null","pattern_show_trial_num","","","","","","","","","","","","","","","","","","","","","","","","",""
"","","","","","image-keyboard-response","171","322900","0.0-2.0-7.0-1.35","636181cafa036fd02cb083db","D2","batch4","","2342","stim/yes_29_ver_w1.png","f","pattern_response","true","f","pattern_53","2342","true","74","","","","","","","","","","","","","","","","","","",""
"","","","","","html-keyboard-response","172","324214","0.0-2.0-7.0-0.36","636181cafa036fd02cb083db","D2","batch4","","null","<p class=block-text>Trial 76 out of 78</p>","null","pattern_show_trial_num","","","","","","","","","","","","","","","","","","","","","","","","",""
"","","","","","image-keyboard-response","173","325603","0.0-2.0-7.0-1.36","636181cafa036fd02cb083db","D2","batch4","","1384","stim/yes_52_ver_w1.png","f","pattern_response","true","f","pattern_73","1384","true","75","","","","","","","","","","","","","","","","","","",""
"","","","","","html-keyboard-response","174","326927","0.0-2.0-7.0-0.37","636181cafa036fd02cb083db","D2","batch4","","null","<p class=block-text>Trial 77 out of 78</p>","null","pattern_show_trial_num","","","","","","","","","","","","","","","","","","","","","","","","",""
"","","","","","image-keyboard-response","175","327820","0.0-2.0-7.0-1.37","636181cafa036fd02cb083db","D2","batch4","","885","stim/yes_28_ver_b1.png","f","pattern_response","true","f","pattern_51","885","true","76","","","","","","","","","","","","","","","","","","",""
"","","","","","html-keyboard-response","176","329138","0.0-2.0-7.0-0.38","636181cafa036fd02cb083db","D2","batch4","","null","<p class=block-text>Trial 78 out of 78</p>","null","pattern_show_trial_num","","","","","","","","","","","","","","","","","","","","","","","","",""
"","","","","","image-keyboard-response","177","335220","0.0-2.0-7.0-1.38","636181cafa036fd02cb083db","D2","batch4","","6076","stim/no_65_1_b.png","j","pattern_response","true","j","pattern_38","6076","true","77","","","","","","","","","","","","","","","","","","",""
"","","","","","html-button-response","178","338940","0.0-2.0-8.0","636181cafa036fd02cb083db","D2","batch4","","3214","<p class = block-text>This concludes the 4-in-a-row detection game.Thank you for your responses!<br>
            You responded correctly on 99% of the trials.<br>
            When you are ready, press ""Continue"" button to continue </p>","0","","","","","","","","","","","","","","","","","","","","","","","","","",""
"true","","","","","fullscreen","179","341922","0.0-3.0-0.0","636181cafa036fd02cb083db","D2","batch4","","","","","spm_fullscreen","","","","","","","","","","","","","","","","","","","","","","","","",""
"","","","","","html-button-response","180","350420","0.0-3.0-1.0","636181cafa036fd02cb083db","D2","batch4","","8496","<p class = block-text><b>Instructions</b> <br>This is a widely used intelligence test in research. <br>In this test, a figure with a missing piece will be presented.<br>Below the figure are alternative pieces to complete the figure, only one of which is correct.<br> Different figures might involve different principles for obtaining the missing piece<br>Your job is to select the most logical piece to complete the figure.</p>","0","","","","","","","","","","","","","","","","","","","","","","","","","",""
"","","","","","html-keyboard-response","181","351235","0.0-3.0-2.0-0.0","636181cafa036fd02cb083db","D2","batch4","","null","<p class=block-text>Trial 1 out of 60</p>","null","spm_show_trial_num","","","","","","","","","","","","","","","","","","","","","","","","",""
"","","","","","image-button-response","182","366645","0.0-3.0-2.0-1.0","636181cafa036fd02cb083db","D2","batch4","","15405","img/question_1_1.jpeg","3","spm_respsonse","1","4","mat_01","","","","","","1","15405","","","","","","","","","","","","","","",""
"","","","","","html-keyboard-response","183","367719","0.0-3.0-2.0-0.1","636181cafa036fd02cb083db","D2","batch4","","null","<p class=block-text>Trial 2 out of 60</p>","null","spm_show_trial_num","","","","","","","","","","","","","","","","","","","","","","","","",""
"","","","","","image-button-response","184","370989","0.0-3.0-2.0-1.1","636181cafa036fd02cb083db","D2","batch4","","3266","img/question_1_2.jpeg","4","spm_respsonse","1","5","mat_02","","","","","","1","3266","","","","","","","","","","","","","","",""
"","","","","","html-keyboard-response","185","372064","0.0-3.0-2.0-0.2","636181cafa036fd02cb083db","D2","batch4","","null","<p class=block-text>Trial 3 out of 60</p>","null","spm_show_trial_num","","","","","","","","","","","","","","","","","","","","","","","","",""
"","","","","","image-button-response","186","375332","0.0-3.0-2.0-1.2","636181cafa036fd02cb083db","D2","batch4","","3265","img/question_1_3.jpeg","0","spm_respsonse","1","1","mat_03","","","","","","1","3265","","","","","","","","","","","","","","",""
"","","","","","html-keyboard-response","187","376400","0.0-3.0-2.0-0.3","636181cafa036fd02cb083db","D2","batch4","","null","<p class=block-text>Trial 4 out of 60</p>","null","spm_show_trial_num","","","","","","","","","","","","","","","","","","","","","","","","",""
"","","","","","image-button-response","188","381836","0.0-3.0-2.0-1.3","636181cafa036fd02cb083db","D2","batch4","","5433","img/question_1_4.jpeg","1","spm_respsonse","1","2","mat_04","","","","","","1","5433","","","","","","","","","","","","","","",""
"","","","","","html-keyboard-response","189","382903","0.0-3.0-2.0-0.4","636181cafa036fd02cb083db","D2","batch4","","null","<p class=block-text>Trial 5 out of 60</p>","null","spm_show_trial_num","","","","","","","","","","","","","","","","","","","","","","","","",""
"","","","","","image-button-response","190","387564","0.0-3.0-2.0-1.4","636181cafa036fd02cb083db","D2","batch4","","4659","img/question_1_5.jpeg","5","spm_respsonse","1","6","mat_05","","","","","","1","4659","","","","","","","","","","","","","","",""
"","","","","","html-keyboard-response","191","388632","0.0-3.0-2.0-0.5","636181cafa036fd02cb083db","D2","batch4","","null","<p class=block-text>Trial 6 out of 60</p>","null","spm_show_trial_num","","","","","","","","","","","","","","","","","","","","","","","","",""
"","","","","","image-button-response","192","394028","0.0-3.0-2.0-1.5","636181cafa036fd02cb083db","D2","batch4","","5393","img/question_1_6.jpeg","2","spm_respsonse","1","3","mat_06","","","","","","1","5393","","","","","","","","","","","","","","",""
"","","","","","html-keyboard-response","193","395099","0.0-3.0-2.0-0.6","636181cafa036fd02cb083db","D2","batch4","","null","<p class=block-text>Trial 7 out of 60</p>","null","spm_show_trial_num","","","","","","","","","","","","","","","","","","","","","","","","",""
"","","","","","image-button-response","194","401996","0.0-3.0-2.0-1.6","636181cafa036fd02cb083db","D2","batch4","","6892","img/question_1_7.jpeg","5","spm_respsonse","1","6","mat_07","","","","","","1","6892","","","","","","","","","","","","","","",""
"","","","","","html-keyboard-response","195","403069","0.0-3.0-2.0-0.7","636181cafa036fd02cb083db","D2","batch4","","null","<p class=block-text>Trial 8 out of 60</p>","null","spm_show_trial_num","","","","","","","","","","","","","","","","","","","","","","","","",""
"","","","","","image-button-response","196","408044","0.0-3.0-2.0-1.7","636181cafa036fd02cb083db","D2","batch4","","4971","img/question_1_8.jpeg","1","spm_respsonse","1","2","mat_08","","","","","","1","4971","","","","","","","","","","","","","","",""
"","","","","","html-keyboard-response","197","409109","0.0-3.0-2.0-0.8","636181cafa036fd02cb083db","D2","batch4","","null","<p class=block-text>Trial 9 out of 60</p>","null","spm_show_trial_num","","","","","","","","","","","","","","","","","","","","","","","","",""
"","","","","","image-button-response","198","417532","0.0-3.0-2.0-1.8","636181cafa036fd02cb083db","D2","batch4","","8419","img/question_1_9.jpeg","0","spm_respsonse","1","1","mat_09","","","","","","1","8419","","","","","","","","","","","","","","",""
"","","","","","html-keyboard-response","199","418595","0.0-3.0-2.0-0.9","636181cafa036fd02cb083db","D2","batch4","","null","<p class=block-text>Trial 10 out of 60</p>","null","spm_show_trial_num","","","","","","","","","","","","","","","","","","","","","","","","",""
"","","","","","image-button-response","200","427564","0.0-3.0-2.0-1.9","636181cafa036fd02cb083db","D2","batch4","","8967","img/question_1_10.jpeg","2","spm_respsonse","1","3","mat_10","","","","","","1","8967","","","","","","","","","","","","","","",""
"","","","","","html-keyboard-response","201","428630","0.0-3.0-2.0-0.10","636181cafa036fd02cb083db","D2","batch4","","null","<p class=block-text>Trial 11 out of 60</p>","null","spm_show_trial_num","","","","","","","","","","","","","","","","","","","","","","","","",""
"","","","","","image-button-response","202","443444","0.0-3.0-2.0-1.10","636181cafa036fd02cb083db","D2","batch4","","14812","img/question_1_11.jpeg","3","spm_respsonse","1","4","mat_11","","","","","","1","14812","","","","","","","","","","","","","","",""
"","","","","","html-keyboard-response","203","444501","0.0-3.0-2.0-0.11","636181cafa036fd02cb083db","D2","batch4","","null","<p class=block-text>Trial 12 out of 60</p>","null","spm_show_trial_num","","","","","","","","","","","","","","","","","","","","","","","","",""
"","","","","","image-button-response","204","461748","0.0-3.0-2.0-1.11","636181cafa036fd02cb083db","D2","batch4","","17245","img/question_1_12.jpeg","4","spm_respsonse","1","5","mat_12","","","","","","1","17245","","","","","","","","","","","","","","",""
"","","","","","html-keyboard-response","205","462816","0.0-3.0-2.0-0.12","636181cafa036fd02cb083db","D2","batch4","","null","<p class=block-text>Trial 13 out of 60</p>","null","spm_show_trial_num","","","","","","","","","","","","","","","","","","","","","","","","",""
"","","","","","image-button-response","206","466236","0.0-3.0-2.0-1.12","636181cafa036fd02cb083db","D2","batch4","","3419","img/question_2_1.jpeg","1","spm_respsonse","1","2","mat_13","","","","","","1","3419","","","","","","","","","","","","","","",""
"","","","","","html-keyboard-response","207","467298","0.0-3.0-2.0-0.13","636181cafa036fd02cb083db","D2","batch4","","null","<p class=block-text>Trial 14 out of 60</p>","null","spm_show_trial_num","","","","","","","","","","","","","","","","","","","","","","","","",""
"","","","","","image-button-response","208","472180","0.0-3.0-2.0-1.13","636181cafa036fd02cb083db","D2","batch4","","4880","img/question_2_2.jpeg","5","spm_respsonse","1","6","mat_14","","","","","","1","4880","","","","","","","","","","","","","","",""
"","","","","","html-keyboard-response","209","473251","0.0-3.0-2.0-0.14","636181cafa036fd02cb083db","D2","batch4","","null","<p class=block-text>Trial 15 out of 60</p>","null","spm_show_trial_num","","","","","","","","","","","","","","","","","","","","","","","","",""
"","","","","","image-button-response","210","476540","0.0-3.0-2.0-1.14","636181cafa036fd02cb083db","D2","batch4","","3287","img/question_2_3.jpeg","0","spm_respsonse","1","1","mat_15","","","","","","1","3287","","","","","","","","","","","","","","",""
"","","","","","html-keyboard-response","211","477608","0.0-3.0-2.0-0.15","636181cafa036fd02cb083db","D2","batch4","","null","<p class=block-text>Trial 16 out of 60</p>","null","spm_show_trial_num","","","","","","","","","","","","","","","","","","","","","","","","",""
"","","","","","image-button-response","212","482316","0.0-3.0-2.0-1.15","636181cafa036fd02cb083db","D2","batch4","","4705","img/question_2_4.jpeg","1","spm_respsonse","1","2","mat_16","","","","","","1","4705","","","","","","","","","","","","","","",""
"","","","","","html-keyboard-response","213","483377","0.0-3.0-2.0-0.16","636181cafa036fd02cb083db","D2","batch4","","null","<p class=block-text>Trial 17 out of 60</p>","null","spm_show_trial_num","","","","","","","","","","","","","","","","","","","","","","","","",""
"","","","","","image-button-response","214","488043","0.0-3.0-2.0-1.16","636181cafa036fd02cb083db","D2","batch4","","4664","img/question_2_5.jpeg","0","spm_respsonse","1","1","mat_17","","","","","","1","4664","","","","","","","","","","","","","","",""
"","","","","","html-keyboard-response","215","489106","0.0-3.0-2.0-0.17","636181cafa036fd02cb083db","D2","batch4","","null","<p class=block-text>Trial 18 out of 60</p>","null","spm_show_trial_num","","","","","","","","","","","","","","","","","","","","","","","","",""
"","","","","","image-button-response","216","495324","0.0-3.0-2.0-1.17","636181cafa036fd02cb083db","D2","batch4","","6215","img/question_2_6.jpeg","2","spm_respsonse","1","3","mat_18","","","","","","1","6215","","","","","","","","","","","","","","",""
"","","","","","html-keyboard-response","217","496398","0.0-3.0-2.0-0.18","636181cafa036fd02cb083db","D2","batch4","","null","<p class=block-text>Trial 19 out of 60</p>","null","spm_show_trial_num","","","","","","","","","","","","","","","","","","","","","","","","",""
"","","","","","image-button-response","218","520492","0.0-3.0-2.0-1.18","636181cafa036fd02cb083db","D2","batch4","","24092","img/question_2_7.jpeg","5","spm_respsonse","0","5","mat_19","","","","","","0","24092","","","","","","","","","","","","","","",""
"","","","","","html-keyboard-response","219","521554","0.0-3.0-2.0-0.19","636181cafa036fd02cb083db","D2","batch4","","null","<p class=block-text>Trial 20 out of 60</p>","null","spm_show_trial_num","","","","","","","","","","","","","","","","","","","","","","","","",""
"","","","","","image-button-response","220","528133","0.0-3.0-2.0-1.19","636181cafa036fd02cb083db","D2","batch4","","6576","img/question_2_8.jpeg","5","spm_respsonse","1","6","mat_20","","","","","","1","6576","","","","","","","","","","","","","","",""
"","","","","","html-keyboard-response","221","529207","0.0-3.0-2.0-0.20","636181cafa036fd02cb083db","D2","batch4","","null","<p class=block-text>Trial 21 out of 60</p>","null","spm_show_trial_num","","","","","","","","","","","","","","","","","","","","","","","","",""
"","","","","","image-button-response","222","535452","0.0-3.0-2.0-1.20","636181cafa036fd02cb083db","D2","batch4","","6241","img/question_2_9.jpeg","3","spm_respsonse","1","4","mat_21","","","","","","1","6241","","","","","","","","","","","","","","",""
"","","","","","html-keyboard-response","223","536527","0.0-3.0-2.0-0.21","636181cafa036fd02cb083db","D2","batch4","","null","<p class=block-text>Trial 22 out of 60</p>","null","spm_show_trial_num","","","","","","","","","","","","","","","","","","","","","","","","",""
"","","","","","image-button-response","224","542372","0.0-3.0-2.0-1.21","636181cafa036fd02cb083db","D2","batch4","","5842","img/question_2_10.jpeg","2","spm_respsonse","1","3","mat_22","","","","","","1","5842","","","","","","","","","","","","","","",""
"","","","","","html-keyboard-response","225","543446","0.0-3.0-2.0-0.22","636181cafa036fd02cb083db","D2","batch4","","null","<p class=block-text>Trial 23 out of 60</p>","null","spm_show_trial_num","","","","","","","","","","","","","","","","","","","","","","","","",""
"","","","","","image-button-response","226","549332","0.0-3.0-2.0-1.22","636181cafa036fd02cb083db","D2","batch4","","5883","img/question_2_11.jpeg","3","spm_respsonse","1","4","mat_23","","","","","","1","5883","","","","","","","","","","","","","","",""
"","","","","","html-keyboard-response","227","550406","0.0-3.0-2.0-0.23","636181cafa036fd02cb083db","D2","batch4","","null","<p class=block-text>Trial 24 out of 60</p>","null","spm_show_trial_num","","","","","","","","","","","","","","","","","","","","","","","","",""
"","","","","","image-button-response","228","566052","0.0-3.0-2.0-1.23","636181cafa036fd02cb083db","D2","batch4","","15644","img/question_2_12.jpeg","4","spm_respsonse","1","5","mat_24","","","","","","1","15644","","","","","","","","","","","","","","",""
"","","","","","html-button-response","229","567892","0.0-3.0-3.0","636181cafa036fd02cb083db","D2","batch4","","1588","<p class = block-text>Attention check: Please choose 1<br></p>","0","attention_check","true","","","","","","","","","","","","","","","","","","","","","","","",""
"","","","","","html-keyboard-response","230","568708","0.0-3.0-4.0-0.0","636181cafa036fd02cb083db","D2","batch4","","null","<p class=block-text>Trial 25 out of 60</p>","null","spm_show_trial_num","","","","","","","","","","","","","","","","","","","","","","","","",""
"","","","","","image-button-response","231","575132","0.0-3.0-4.0-1.0","636181cafa036fd02cb083db","D2","batch4","","6422","img/question_3_1.jpeg","7","spm_respsonse","1","8","mat_25","","","","","","1","6422","","","","","","","","","","","","","","",""
"","","","","","html-keyboard-response","232","576202","0.0-3.0-4.0-0.1","636181cafa036fd02cb083db","D2","batch4","","null","<p class=block-text>Trial 26 out of 60</p>","null","spm_show_trial_num","","","","","","","","","","","","","","","","","","","","","","","","",""
"","","","","","image-button-response","233","584389","0.0-3.0-4.0-1.1","636181cafa036fd02cb083db","D2","batch4","","8184","img/question_3_2.jpeg","1","spm_respsonse","1","2","mat_26","","","","","","1","8184","","","","","","","","","","","","","","",""
"","","","","","html-keyboard-response","234","585460","0.0-3.0-4.0-0.2","636181cafa036fd02cb083db","D2","batch4","","null","<p class=block-text>Trial 27 out of 60</p>","null","spm_show_trial_num","","","","","","","","","","","","","","","","","","","","","","","","",""
"","","","","","image-button-response","235","591299","0.0-3.0-4.0-1.2","636181cafa036fd02cb083db","D2","batch4","","5838","img/question_3_3.jpeg","2","spm_respsonse","1","3","mat_27","","","","","","1","5838","","","","","","","","","","","","","","",""
"","","","","","html-keyboard-response","236","592374","0.0-3.0-4.0-0.3","636181cafa036fd02cb083db","D2","batch4","","null","<p class=block-text>Trial 28 out of 60</p>","null","spm_show_trial_num","","","","","","","","","","","","","","","","","","","","","","","","",""
"","","","","","image-button-response","237","597324","0.0-3.0-4.0-1.3","636181cafa036fd02cb083db","D2","batch4","","4947","img/question_3_4.jpeg","7","spm_respsonse","1","8","mat_28","","","","","","1","4947","","","","","","","","","","","","","","",""
"","","","","","html-keyboard-response","238","598389","0.0-3.0-4.0-0.4","636181cafa036fd02cb083db","D2","batch4","","null","<p class=block-text>Trial 29 out of 60</p>","null","spm_show_trial_num","","","","","","","","","","","","","","","","","","","","","","","","",""
"","","","","","image-button-response","239","603795","0.0-3.0-4.0-1.4","636181cafa036fd02cb083db","D2","batch4","","5404","img/question_3_5.jpeg","6","spm_respsonse","1","7","mat_29","","","","","","1","5404","","","","","","","","","","","","","","",""
"","","","","","html-keyboard-response","240","604862","0.0-3.0-4.0-0.5","636181cafa036fd02cb083db","D2","batch4","","null","<p class=block-text>Trial 30 out of 60</p>","null","spm_show_trial_num","","","","","","","","","","","","","","","","","","","","","","","","",""
"","","","","","image-button-response","241","611461","0.0-3.0-4.0-1.5","636181cafa036fd02cb083db","D2","batch4","","6595","img/question_3_6.jpeg","3","spm_respsonse","1","4","mat_30","","","","","","1","6595","","","","","","","","","","","","","","",""
"","","","","","html-keyboard-response","242","612530","0.0-3.0-4.0-0.6","636181cafa036fd02cb083db","D2","batch4","","null","<p class=block-text>Trial 31 out of 60</p>","null","spm_show_trial_num","","","","","","","","","","","","","","","","","","","","","","","","",""
"","","","","","image-button-response","243","618444","0.0-3.0-4.0-1.6","636181cafa036fd02cb083db","D2","batch4","","5912","img/question_3_7.jpeg","4","spm_respsonse","1","5","mat_31","","","","","","1","5912","","","","","","","","","","","","","","",""
"","","","","","html-keyboard-response","244","619507","0.0-3.0-4.0-0.7","636181cafa036fd02cb083db","D2","batch4","","null","<p class=block-text>Trial 32 out of 60</p>","null","spm_show_trial_num","","","","","","","","","","","","","","","","","","","","","","","","",""
"","","","","","image-button-response","245","645356","0.0-3.0-4.0-1.7","636181cafa036fd02cb083db","D2","batch4","","25846","img/question_3_8.jpeg","0","spm_respsonse","1","1","mat_32","","","","","","1","25846","","","","","","","","","","","","","","",""
"","","","","","html-keyboard-response","246","646417","0.0-3.0-4.0-0.8","636181cafa036fd02cb083db","D2","batch4","","null","<p class=block-text>Trial 33 out of 60</p>","null","spm_show_trial_num","","","","","","","","","","","","","","","","","","","","","","","","",""
"","","","","","image-button-response","247","652028","0.0-3.0-4.0-1.8","636181cafa036fd02cb083db","D2","batch4","","5608","img/question_3_9.jpeg","0","spm_respsonse","0","7","mat_33","","","","","","0","5608","","","","","","","","","","","","","","",""
"","","","","","html-keyboard-response","248","653103","0.0-3.0-4.0-0.9","636181cafa036fd02cb083db","D2","batch4","","null","<p class=block-text>Trial 34 out of 60</p>","null","spm_show_trial_num","","","","","","","","","","","","","","","","","","","","","","","","",""
"","","","","","image-button-response","249","672741","0.0-3.0-4.0-1.9","636181cafa036fd02cb083db","D2","batch4","","19636","img/question_3_10.jpeg","5","spm_respsonse","1","6","mat_34","","","","","","1","19636","","","","","","","","","","","","","","",""
"","","","","","html-keyboard-response","250","673811","0.0-3.0-4.0-0.10","636181cafa036fd02cb083db","D2","batch4","","null","<p class=block-text>Trial 35 out of 60</p>","null","spm_show_trial_num","","","","","","","","","","","","","","","","","","","","","","","","",""
"","","","","","image-button-response","251","691667","0.0-3.0-4.0-1.10","636181cafa036fd02cb083db","D2","batch4","","17855","img/question_3_11.jpeg","5","spm_respsonse","0","1","mat_35","","","","","","0","17855","","","","","","","","","","","","","","",""
"","","","","","html-keyboard-response","252","692726","0.0-3.0-4.0-0.11","636181cafa036fd02cb083db","D2","batch4","","null","<p class=block-text>Trial 36 out of 60</p>","null","spm_show_trial_num","","","","","","","","","","","","","","","","","","","","","","","","",""
"","","","","","image-button-response","253","705972","0.0-3.0-4.0-1.11","636181cafa036fd02cb083db","D2","batch4","","13243","img/question_3_12.jpeg","3","spm_respsonse","0","2","mat_36","","","","","","0","13243","","","","","","","","","","","","","","",""
"","","","","","html-keyboard-response","254","707040","0.0-3.0-4.0-0.12","636181cafa036fd02cb083db","D2","batch4","","null","<p class=block-text>Trial 37 out of 60</p>","null","spm_show_trial_num","","","","","","","","","","","","","","","","","","","","","","","","",""
"","","","","","image-button-response","255","709620","0.0-3.0-4.0-1.12","636181cafa036fd02cb083db","D2","batch4","","2578","img/question_4_1.jpeg","2","spm_respsonse","1","3","mat_37","","","","","","1","2578","","","","","","","","","","","","","","",""
"","","","","","html-keyboard-response","256","710689","0.0-3.0-4.0-0.13","636181cafa036fd02cb083db","D2","batch4","","null","<p class=block-text>Trial 38 out of 60</p>","null","spm_show_trial_num","","","","","","","","","","","","","","","","","","","","","","","","",""
"","","","","","image-button-response","257","719004","0.0-3.0-4.0-1.13","636181cafa036fd02cb083db","D2","batch4","","8312","img/question_4_2.jpeg","3","spm_respsonse","1","4","mat_38","","","","","","1","8312","","","","","","","","","","","","","","",""
"","","","","","html-keyboard-response","258","720076","0.0-3.0-4.0-0.14","636181cafa036fd02cb083db","D2","batch4","","null","<p class=block-text>Trial 39 out of 60</p>","null","spm_show_trial_num","","","","","","","","","","","","","","","","","","","","","","","","",""
"","","","","","image-button-response","259","736444","0.0-3.0-4.0-1.14","636181cafa036fd02cb083db","D2","batch4","","16366","img/question_4_3.jpeg","2","spm_respsonse","1","3","mat_39","","","","","","1","16366","","","","","","","","","","","","","","",""
"","","","","","html-keyboard-response","260","737515","0.0-3.0-4.0-0.15","636181cafa036fd02cb083db","D2","batch4","","null","<p class=block-text>Trial 40 out of 60</p>","null","spm_show_trial_num","","","","","","","","","","","","","","","","","","","","","","","","",""
"","","","","","image-button-response","261","745908","0.0-3.0-4.0-1.15","636181cafa036fd02cb083db","D2","batch4","","8390","img/question_4_4.jpeg","6","spm_respsonse","1","7","mat_40","","","","","","1","8390","","","","","","","","","","","","","","",""
"","","","","","html-keyboard-response","262","746974","0.0-3.0-4.0-0.16","636181cafa036fd02cb083db","D2","batch4","","null","<p class=block-text>Trial 41 out of 60</p>","null","spm_show_trial_num","","","","","","","","","","","","","","","","","","","","","","","","",""
"","","","","","image-button-response","263","753811","0.0-3.0-4.0-1.16","636181cafa036fd02cb083db","D2","batch4","","6834","img/question_4_5.jpeg","7","spm_respsonse","1","8","mat_41","","","","","","1","6834","","","","","","","","","","","","","","",""
"","","","","","html-keyboard-response","264","754875","0.0-3.0-4.0-0.17","636181cafa036fd02cb083db","D2","batch4","","null","<p class=block-text>Trial 42 out of 60</p>","null","spm_show_trial_num","","","","","","","","","","","","","","","","","","","","","","","","",""
"","","","","","image-button-response","265","763924","0.0-3.0-4.0-1.17","636181cafa036fd02cb083db","D2","batch4","","9045","img/question_4_6.jpeg","5","spm_respsonse","1","6","mat_42","","","","","","1","9045","","","","","","","","","","","","","","",""
"","","","","","html-keyboard-response","266","764983","0.0-3.0-4.0-0.18","636181cafa036fd02cb083db","D2","batch4","","null","<p class=block-text>Trial 43 out of 60</p>","null","spm_show_trial_num","","","","","","","","","","","","","","","","","","","","","","","","",""
"","","","","","image-button-response","267","779996","0.0-3.0-4.0-1.18","636181cafa036fd02cb083db","D2","batch4","","15010","img/question_4_7.jpeg","4","spm_respsonse","1","5","mat_43","","","","","","1","15010","","","","","","","","","","","","","","",""
"","","","","","html-keyboard-response","268","781058","0.0-3.0-4.0-0.19","636181cafa036fd02cb083db","D2","batch4","","null","<p class=block-text>Trial 44 out of 60</p>","null","spm_show_trial_num","","","","","","","","","","","","","","","","","","","","","","","","",""
"","","","","","image-button-response","269","796035","0.0-3.0-4.0-1.19","636181cafa036fd02cb083db","D2","batch4","","14976","img/question_4_8.jpeg","0","spm_respsonse","0","4","mat_44","","","","","","0","14976","","","","","","","","","","","","","","",""
"","","","","","html-keyboard-response","270","797101","0.0-3.0-4.0-0.20","636181cafa036fd02cb083db","D2","batch4","","null","<p class=block-text>Trial 45 out of 60</p>","null","spm_show_trial_num","","","","","","","","","","","","","","","","","","","","","","","","",""
"","","","","","image-button-response","271","820141","0.0-3.0-4.0-1.20","636181cafa036fd02cb083db","D2","batch4","","23038","img/question_4_9.jpeg","0","spm_respsonse","1","1","mat_45","","","","","","1","23038","","","","","","","","","","","","","","",""
"","","","","","html-keyboard-response","272","821199","0.0-3.0-4.0-0.21","636181cafa036fd02cb083db","D2","batch4","","null","<p class=block-text>Trial 46 out of 60</p>","null","spm_show_trial_num","","","","","","","","","","","","","","","","","","","","","","","","",""
"","","","","","image-button-response","273","840940","0.0-3.0-4.0-1.21","636181cafa036fd02cb083db","D2","batch4","","19739","img/question_4_10.jpeg","0","spm_respsonse","0","2","mat_46","","","","","","0","19739","","","","","","","","","","","","","","",""
"","","","","","html-keyboard-response","274","842010","0.0-3.0-4.0-0.22","636181cafa036fd02cb083db","D2","batch4","","null","<p class=block-text>Trial 47 out of 60</p>","null","spm_show_trial_num","","","","","","","","","","","","","","","","","","","","","","","","",""
"","","","","","image-button-response","275","858292","0.0-3.0-4.0-1.22","636181cafa036fd02cb083db","D2","batch4","","16279","img/question_4_11.jpeg","4","spm_respsonse","1","5","mat_47","","","","","","1","16279","","","","","","","","","","","","","","",""
"","","","","","html-keyboard-response","276","859361","0.0-3.0-4.0-0.23","636181cafa036fd02cb083db","D2","batch4","","null","<p class=block-text>Trial 48 out of 60</p>","null","spm_show_trial_num","","","","","","","","","","","","","","","","","","","","","","","","",""
"","","","","","image-button-response","277","872675","0.0-3.0-4.0-1.23","636181cafa036fd02cb083db","D2","batch4","","13313","img/question_4_12.jpeg","1","spm_respsonse","0","6","mat_48","","","","","","0","13313","","","","","","","","","","","","","","",""
"","","","","","html-keyboard-response","278","873743","0.0-3.0-4.0-0.24","636181cafa036fd02cb083db","D2","batch4","","null","<p class=block-text>Trial 49 out of 60</p>","null","spm_show_trial_num","","","","","","","","","","","","","","","","","","","","","","","","",""
"","","","","","image-button-response","279","891515","0.0-3.0-4.0-1.24","636181cafa036fd02cb083db","D2","batch4","","17769","img/question_5_1.jpeg","6","spm_respsonse","1","7","mat_49","","","","","","1","17769","","","","","","","","","","","","","","",""
"","","","","","html-keyboard-response","280","892574","0.0-3.0-4.0-0.25","636181cafa036fd02cb083db","D2","batch4","","null","<p class=block-text>Trial 50 out of 60</p>","null","spm_show_trial_num","","","","","","","","","","","","","","","","","","","","","","","","",""
"","","","","","image-button-response","281","905036","0.0-3.0-4.0-1.25","636181cafa036fd02cb083db","D2","batch4","","12460","img/question_5_2.jpeg","5","spm_respsonse","1","6","mat_50","","","","","","1","12460","","","","","","","","","","","","","","",""
"","","","","","html-keyboard-response","282","906109","0.0-3.0-4.0-0.26","636181cafa036fd02cb083db","D2","batch4","","null","<p class=block-text>Trial 51 out of 60</p>","null","spm_show_trial_num","","","","","","","","","","","","","","","","","","","","","","","","",""
"","","","","","image-button-response","283","921892","0.0-3.0-4.0-1.26","636181cafa036fd02cb083db","D2","batch4","","15779","img/question_5_3.jpeg","7","spm_respsonse","1","8","mat_51","","","","","","1","15779","","","","","","","","","","","","","","",""
"","","","","","html-keyboard-response","284","922953","0.0-3.0-4.0-0.27","636181cafa036fd02cb083db","D2","batch4","","null","<p class=block-text>Trial 52 out of 60</p>","null","spm_show_trial_num","","","","","","","","","","","","","","","","","","","","","","","","",""
"","","","","","image-button-response","285","932796","0.0-3.0-4.0-1.27","636181cafa036fd02cb083db","D2","batch4","","9841","img/question_5_4.jpeg","5","spm_respsonse","0","2","mat_52","","","","","","0","9841","","","","","","","","","","","","","","",""
"","","","","","html-keyboard-response","286","933860","0.0-3.0-4.0-0.28","636181cafa036fd02cb083db","D2","batch4","","null","<p class=block-text>Trial 53 out of 60</p>","null","spm_show_trial_num","","","","","","","","","","","","","","","","","","","","","","","","",""
"","","","","","image-button-response","287","945662","0.0-3.0-4.0-1.28","636181cafa036fd02cb083db","D2","batch4","","11799","img/question_5_5.jpeg","5","spm_respsonse","0","1","mat_53","","","","","","0","11799","","","","","","","","","","","","","","",""
"","","","","","html-keyboard-response","288","946722","0.0-3.0-4.0-0.29","636181cafa036fd02cb083db","D2","batch4","","null","<p class=block-text>Trial 54 out of 60</p>","null","spm_show_trial_num","","","","","","","","","","","","","","","","","","","","","","","","",""
"","","","","","image-button-response","289","956732","0.0-3.0-4.0-1.29","636181cafa036fd02cb083db","D2","batch4","","10006","img/question_5_6.jpeg","6","spm_respsonse","0","5","mat_54","","","","","","0","10006","","","","","","","","","","","","","","",""
"","","","","","html-keyboard-response","290","957800","0.0-3.0-4.0-0.30","636181cafa036fd02cb083db","D2","batch4","","null","<p class=block-text>Trial 55 out of 60</p>","null","spm_show_trial_num","","","","","","","","","","","","","","","","","","","","","","","","",""
"","","","","","image-button-response","291","980668","0.0-3.0-4.0-1.30","636181cafa036fd02cb083db","D2","batch4","","22865","img/question_5_7.jpeg","3","spm_respsonse","0","1","mat_55","","","","","","0","22865","","","","","","","","","","","","","","",""
"","","","","","html-keyboard-response","292","981734","0.0-3.0-4.0-0.31","636181cafa036fd02cb083db","D2","batch4","","null","<p class=block-text>Trial 56 out of 60</p>","null","spm_show_trial_num","","","","","","","","","","","","","","","","","","","","","","","","",""
"","","","","","image-button-response","293","998380","0.0-3.0-4.0-1.31","636181cafa036fd02cb083db","D2","batch4","","16644","img/question_5_8.jpeg","0","spm_respsonse","0","6","mat_56","","","","","","0","16644","","","","","","","","","","","","","","",""
"","","","","","html-keyboard-response","294","999452","0.0-3.0-4.0-0.32","636181cafa036fd02cb083db","D2","batch4","","null","<p class=block-text>Trial 57 out of 60</p>","null","spm_show_trial_num","","","","","","","","","","","","","","","","","","","","","","","","",""
"","","","","","image-button-response","295","1007589","0.0-3.0-4.0-1.32","636181cafa036fd02cb083db","D2","batch4","","8136","img/question_5_9.jpeg","1","spm_respsonse","0","3","mat_57","","","","","","0","8136","","","","","","","","","","","","","","",""
"","","","","","html-keyboard-response","296","1008649","0.0-3.0-4.0-0.33","636181cafa036fd02cb083db","D2","batch4","","null","<p class=block-text>Trial 58 out of 60</p>","null","spm_show_trial_num","","","","","","","","","","","","","","","","","","","","","","","","",""
"","","","","","image-button-response","297","1034228","0.0-3.0-4.0-1.33","636181cafa036fd02cb083db","D2","batch4","","25575","img/question_5_10.jpeg","3","spm_respsonse","0","2","mat_58","","","","","","0","25575","","","","","","","","","","","","","","",""
"","","","","","html-keyboard-response","298","1035299","0.0-3.0-4.0-0.34","636181cafa036fd02cb083db","D2","batch4","","null","<p class=block-text>Trial 59 out of 60</p>","null","spm_show_trial_num","","","","","","","","","","","","","","","","","","","","","","","","",""
"","","","","","image-button-response","299","1047027","0.0-3.0-4.0-1.34","636181cafa036fd02cb083db","D2","batch4","","11726","img/question_5_11.jpeg","4","spm_respsonse","0","4","mat_59","","","","","","0","11726","","","","","","","","","","","","","","",""
"","","","","","html-keyboard-response","300","1048094","0.0-3.0-4.0-0.35","636181cafa036fd02cb083db","D2","batch4","","null","<p class=block-text>Trial 60 out of 60</p>","null","spm_show_trial_num","","","","","","","","","","","","","","","","","","","","","","","","",""
"","","","","","image-button-response","301","1056995","0.0-3.0-4.0-1.35","636181cafa036fd02cb083db","D2","batch4","","8901","img/question_5_12.jpeg","2","spm_respsonse","0","5","mat_60","","","","","","0","8901","","","","","","","","","","","","","","",""
"","","","","","html-button-response","302","1059196","0.0-3.0-5.0","636181cafa036fd02cb083db","D2","batch4","","1934","<p class= block-text>This concludes the Standard Progressive Matrix game. Thank you for your responses!<br> When you are ready, click the button continue</p>","0","spm_goodbye","","","","","","","","","","","","","","","","","","","","","","","","",""
"true","","","","","fullscreen","303","1061341","0.0-4.0-0.0","636181cafa036fd02cb083db","D2","batch4","","","","","","","","","","","","","","","","","","","","","","","","","","","","","",""
"","","","","","instructions","304","1102100","0.0-4.0-1.0-0.0-0.0","636181cafa036fd02cb083db","D2","batch4","[{""page_index"":0,""viewing_time"":10014},{""page_index"":1,""viewing_time"":5375},{""page_index"":2,""viewing_time"":4833},{""page_index"":3,""viewing_time"":6441},{""page_index"":4,""viewing_time"":3671},{""page_index"":5,""viewing_time"":8624},{""page_index"":6,""viewing_time"":1800}]","40758","","","tol-instructions","","","","","","","","","","","","","","","","","","","","","","","","",""
"","","","","","html-button-response","305","1102955","0.0-4.0-1.0-1.0-0.0","636181cafa036fd02cb083db","D2","batch4","","854","<p class=block-text> Let's answer a few questions <br>","0","tol_enter_quiz","","","","","","","","","","","","","","","","","","","","","","","","",""
"","","","","","html-button-response","306","1107091","0.0-4.0-1.0-1.0-1.0","636181cafa036fd02cb083db","D2","batch4","","4135","<p class = block-text>True or False: You can only move the ball on top of a peg. <br></p>","0","tol_quiz","true","","","","","","","","","","","","","","","","","","","","","","","",""
"","","","","","html-button-response","307","1107915","0.0-4.0-1.0-1.0-2.0","636181cafa036fd02cb083db","D2","batch4","","822","<p class = block-text>Correct! You can only move the ball on top of a peg.</p>","0","tol_quiz_feedback","","","","","","","","","","","","","","","","","","","","","","","","",""
"","","","","","html-button-response","308","1111051","0.0-4.0-1.0-1.0-3.0","636181cafa036fd02cb083db","D2","batch4","","3136","<p class = block-text>True or False: You should try to match your board with the target board with fewest moves possible. <br></p>","0","tol_quiz","true","","","","","","","","","","","","","","","","","","","","","","","",""
"","","","","","html-button-response","309","1111587","0.0-4.0-1.0-1.0-4.0","636181cafa036fd02cb083db","D2","batch4","","535","<p class = block-text>Correct! </p>","0","tol_quiz_feedback","","","","","","","","","","","","","","","","","","","","","","","","",""
"","","","","","html-button-response","310","1112683","0.0-4.0-2.0","636181cafa036fd02cb083db","D2","batch4","","1096","<p class=block-text> Now that you've understood the game, let's practice a few easier examples before we start!<br> <br>","0","","","","","","","","","","","","","","","","","","","","","","","","","",""
"","","","","","single-stim-button","311","1114148","0.0-4.0-3.0-0.0","636181cafa036fd02cb083db","D2","batch4","","1464","","","tol_practice","","","","","","","","","","","tol_peg_2","1464","1464","0","[[1,2,0],[0,0],[0]]","1","[[1,2,0],[0,0],[3]]","practice","1464","","","","","",""
"","","","","","single-stim-button","312","1114891","0.0-4.0-3.0-1.0","636181cafa036fd02cb083db","D2","batch4","","743","","","tol_practice","","","","","","","","","","","tol_peg_3","743","743","0","[[1,2,0],[0,0],[3]]","1","[[1,2,0],[0,0],[3]]","practice","743","","","","","",""
"","","","","","poldrack-single-stim","313","1115901","0.0-4.0-4.0","636181cafa036fd02cb083db","D2","batch4","","-1","","","tol_feedback","true","","","","","","","","","","","1000","1000","500","","","","","","-1","none","true","","0",""
"","","","","","single-stim-button","314","1119067","0.0-4.0-5.0-0.0","636181cafa036fd02cb083db","D2","batch4","","3166","","","tol_practice","","","","","","","","","","","tol_peg_1","3166","3166","0","[[1,0,0],[3,0],[0]]","2","[[0,0,0],[3,1],[2]]","practice","3166","","","","","",""
"","","","","","single-stim-button","315","1119789","0.0-4.0-5.0-1.0","636181cafa036fd02cb083db","D2","batch4","","720","","","tol_practice","","","","","","","","","","","tol_peg_3","720","720","0","[[1,0,0],[3,0],[2]]","2","[[0,0,0],[3,1],[2]]","practice","720","","","","","",""
"","","","","","single-stim-button","316","1120341","0.0-4.0-5.1-0.1","636181cafa036fd02cb083db","D2","batch4","","551","","","tol_practice","","","","","","","","","","","tol_peg_1","551","551","0","[[0,0,0],[3,0],[2]]","3","[[0,0,0],[3,1],[2]]","practice","551","","","","","",""
"","","","","","single-stim-button","317","1120811","0.0-4.0-5.1-1.1","636181cafa036fd02cb083db","D2","batch4","","470","","","tol_practice","","","","","","","","","","","tol_peg_2","470","470","0","[[0,0,0],[3,1],[2]]","3","[[0,0,0],[3,1],[2]]","practice","470","","","","","",""
"","","","","","poldrack-single-stim","318","1121819","0.0-4.0-6.0","636181cafa036fd02cb083db","D2","batch4","","-1","","","tol_feedback","true","","","","","","","","","","","1000","1000","500","","","","","","-1","none","true","","0",""
"","","","","","single-stim-button","319","1124085","0.0-4.0-7.0-0.0","636181cafa036fd02cb083db","D2","batch4","","2265","","","tol_practice","","","","","","","","","","","tol_peg_2","2265","2265","0","[[1,2,0],[0,0],[0]]","4","[[1,0,0],[2,0],[3]]","practice","2265","","","","","",""
"","","","","","single-stim-button","320","1124708","0.0-4.0-7.0-1.0","636181cafa036fd02cb083db","D2","batch4","","622","","","tol_practice","","","","","","","","","","","tol_peg_3","622","622","0","[[1,2,0],[0,0],[3]]","4","[[1,0,0],[2,0],[3]]","practice","622","","","","","",""
"","","","","","single-stim-button","321","1125293","0.0-4.0-7.1-0.1","636181cafa036fd02cb083db","D2","batch4","","585","","","tol_practice","","","","","","","","","","","tol_peg_1","585","585","0","[[1,0,0],[0,0],[3]]","5","[[1,0,0],[2,0],[3]]","practice","585","","","","","",""
"","","","","","single-stim-button","322","1126004","0.0-4.0-7.1-1.1","636181cafa036fd02cb083db","D2","batch4","","711","","","tol_practice","","","","","","","","","","","tol_peg_2","711","711","0","[[1,0,0],[2,0],[3]]","5","[[1,0,0],[2,0],[3]]","practice","711","","","","","",""
"","","","","","poldrack-single-stim","323","1127021","0.0-4.0-8.0","636181cafa036fd02cb083db","D2","batch4","","-1","","","tol_feedback","true","","","","","","","","","","","1000","1000","500","","","","","","-1","none","true","","0",""
"","","","","","html-button-response","324","1128292","0.0-4.0-9.0","636181cafa036fd02cb083db","D2","batch4","","1270","<div class = centerbox><p class = center-block-text>Great job! You are done with practice trials<br>You are about to start official trials.<br> <br> Problem <strong>1</strong> out of 25 problems</p></div>","0","tol_instruction","","","","","","","","","","","","","","","","","","","","","","","","",""
"","","","","","single-stim-button","325","1132132","0.0-4.0-10.0-0.0","636181cafa036fd02cb083db","D2","batch4","","2834","","","tol_tohand","","","","","","","","","","","tol_peg_1","2834","2834","0","[[1,0,0],[3,0],[0]]","1","[[1,3,0],[2,0],[0]]","0","0","","","","","","3"
"","","","","","single-stim-button","326","1133636","0.0-4.0-10.0-1.0","636181cafa036fd02cb083db","D2","batch4","","1503","","","tol_toboard","","","","","","","","","","","tol_peg_3","1503","1503","0","[[1,0,0],[3,0],[2]]","1","[[1,3,0],[2,0],[0]]","0","0","","","","","","3"
"","","","","","single-stim-button","327","1134132","0.0-4.0-10.1-0.1","636181cafa036fd02cb083db","D2","batch4","","496","","","tol_tohand","","","","","","","","","","","tol_peg_2","496","496","0","[[1,0,0],[0,0],[2]]","2","[[1,3,0],[2,0],[0]]","0","0","","","","","","3"
"","","","","","single-stim-button","328","1134860","0.0-4.0-10.1-1.1","636181cafa036fd02cb083db","D2","batch4","","728","","","tol_toboard","","","","","","","","","","","tol_peg_1","728","728","0","[[1,3,0],[0,0],[2]]","2","[[1,3,0],[2,0],[0]]","0","0","","","","","","3"
"","","","","","single-stim-button","329","1135492","0.0-4.0-10.2-0.2","636181cafa036fd02cb083db","D2","batch4","","632","","","tol_tohand","","","","","","","","","","","tol_peg_3","632","632","0","[[1,3,0],[0,0],[0]]","3","[[1,3,0],[2,0],[0]]","0","0","","","","","","3"
"","","","","","single-stim-button","330","1136044","0.0-4.0-10.2-1.2","636181cafa036fd02cb083db","D2","batch4","","551","","","tol_toboard","","","","","","","","","","","tol_peg_2","551","551","0","[[1,3,0],[2,0],[0]]","3","[[1,3,0],[2,0],[0]]","0","0","","","","","","3"
"","","","","","poldrack-single-stim","331","1137047","0.0-4.0-11.0","636181cafa036fd02cb083db","D2","batch4","","-1","","","tol_feedback","true","","","","","","","","","","","1000","1000","500","","","","","","-1","none","true","2834","3962",""
"","","","","","html-button-response","332","1137884","0.0-4.0-12.0","636181cafa036fd02cb083db","D2","batch4","","836","<div class = centerbox><p class = center-block-text>problem <strong>2</strong> out of 25 problems</p></div>","0","tol_trial_num","","","","","","","","","","","","","","","","","","","","","","","","",""
"","","","","","single-stim-button","333","1141860","0.0-4.0-13.0-0.0","636181cafa036fd02cb083db","D2","batch4","","3975","","","tol_tohand","","","","","","","","","","","tol_peg_1","3975","3975","0","[[1,0,0],[3,0],[0]]","1","[[2,1,3],[0,0],[0]]","1","0","","","","","","5"
"","","","","","single-stim-button","334","1142764","0.0-4.0-13.0-1.0","636181cafa036fd02cb083db","D2","batch4","","904","","","tol_toboard","","","","","","","","","","","tol_peg_3","904","904","0","[[1,0,0],[3,0],[2]]","1","[[2,1,3],[0,0],[0]]","1","0","","","","","","5"
"","","","","","single-stim-button","335","1144044","0.0-4.0-13.1-0.1","636181cafa036fd02cb083db","D2","batch4","","1280","","","tol_tohand","","","","","","","","","","","tol_peg_1","1280","1280","0","[[0,0,0],[3,0],[2]]","2","[[2,1,3],[0,0],[0]]","1","0","","","","","","5"
"","","","","","single-stim-button","336","1145908","0.0-4.0-13.1-1.1","636181cafa036fd02cb083db","D2","batch4","","1864","","","tol_toboard","","","","","","","","","","","tol_peg_2","1864","1864","0","[[0,0,0],[3,1],[2]]","2","[[2,1,3],[0,0],[0]]","1","0","","","","","","5"
"","","","","","single-stim-button","337","1146372","0.0-4.0-13.2-0.2","636181cafa036fd02cb083db","D2","batch4","","463","","","tol_tohand","","","","","","","","","","","tol_peg_3","463","463","0","[[0,0,0],[3,1],[0]]","3","[[2,1,3],[0,0],[0]]","1","0","","","","","","5"
"","","","","","single-stim-button","338","1146965","0.0-4.0-13.2-1.2","636181cafa036fd02cb083db","D2","batch4","","592","","","tol_toboard","","","","","","","","","","","tol_peg_1","592","592","0","[[2,0,0],[3,1],[0]]","3","[[2,1,3],[0,0],[0]]","1","0","","","","","","5"
"","","","","","single-stim-button","339","1147421","0.0-4.0-13.3-0.3","636181cafa036fd02cb083db","D2","batch4","","455","","","tol_tohand","","","","","","","","","","","tol_peg_2","455","455","0","[[2,0,0],[3,0],[0]]","4","[[2,1,3],[0,0],[0]]","1","0","","","","","","5"
"","","","","","single-stim-button","340","1149116","0.0-4.0-13.3-1.3","636181cafa036fd02cb083db","D2","batch4","","1695","","","tol_toboard","","","","","","","","","","","tol_peg_1","1695","1695","0","[[2,1,0],[3,0],[0]]","4","[[2,1,3],[0,0],[0]]","1","0","","","","","","5"
"","","","","","single-stim-button","341","1149621","0.0-4.0-13.4-0.4","636181cafa036fd02cb083db","D2","batch4","","505","","","tol_tohand","","","","","","","","","","","tol_peg_2","505","505","0","[[2,1,0],[0,0],[0]]","5","[[2,1,3],[0,0],[0]]","1","0","","","","","","5"
"","","","","","single-stim-button","342","1150100","0.0-4.0-13.4-1.4","636181cafa036fd02cb083db","D2","batch4","","478","","","tol_toboard","","","","","","","","","","","tol_peg_1","478","478","0","[[2,1,3],[0,0],[0]]","5","[[2,1,3],[0,0],[0]]","1","0","","","","","","5"
"","","","","","poldrack-single-stim","343","1151104","0.0-4.0-14.0","636181cafa036fd02cb083db","D2","batch4","","-1","","","tol_feedback","true","","","","","","","","","","","1000","1000","500","","","","","","-1","none","true","3975","6678",""
"","","","","","html-button-response","344","1151875","0.0-4.0-15.0","636181cafa036fd02cb083db","D2","batch4","","773","<div class = centerbox><p class = center-block-text>problem <strong>3</strong> out of 25 problems</p></div>","0","tol_trial_num","","","","","","","","","","","","","","","","","","","","","","","","",""
"","","","","","single-stim-button","345","1155221","0.0-4.0-16.0-0.0","636181cafa036fd02cb083db","D2","batch4","","3345","","","tol_tohand","","","","","","","","","","","tol_peg_1","3345","3345","0","[[2,0,0],[0,0],[1]]","1","[[1,2,0],[3,0],[0]]","2","0","","","","","","4"
"","","","","","single-stim-button","346","1155996","0.0-4.0-16.0-1.0","636181cafa036fd02cb083db","D2","batch4","","774","","","tol_toboard","","","","","","","","","","","tol_peg_2","774","774","0","[[2,0,0],[3,0],[1]]","1","[[1,2,0],[3,0],[0]]","2","0","","","","","","4"
"","","","","","single-stim-button","347","1158957","0.0-4.0-16.1-0.1","636181cafa036fd02cb083db","D2","batch4","","2961","","","tol_tohand","","","","","","","","","","","tol_peg_1","2961","2961","0","[[0,0,0],[3,0],[1]]","2","[[1,2,0],[3,0],[0]]","2","0","","","","","","4"
"","","","","","single-stim-button","348","1159477","0.0-4.0-16.1-1.1","636181cafa036fd02cb083db","D2","batch4","","520","","","tol_toboard","","","","","","","","","","","tol_peg_2","520","520","0","[[0,0,0],[3,2],[1]]","2","[[1,2,0],[3,0],[0]]","2","0","","","","","","4"
"","","","","","single-stim-button","349","1159917","0.0-4.0-16.2-0.2","636181cafa036fd02cb083db","D2","batch4","","440","","","tol_tohand","","","","","","","","","","","tol_peg_3","440","440","0","[[0,0,0],[3,2],[0]]","3","[[1,2,0],[3,0],[0]]","2","0","","","","","","4"
"","","","","","single-stim-button","350","1160435","0.0-4.0-16.2-1.2","636181cafa036fd02cb083db","D2","batch4","","518","","","tol_toboard","","","","","","","","","","","tol_peg_1","518","518","0","[[1,0,0],[3,2],[0]]","3","[[1,2,0],[3,0],[0]]","2","0","","","","","","4"
"","","","","","single-stim-button","351","1160870","0.0-4.0-16.3-0.3","636181cafa036fd02cb083db","D2","batch4","","434","","","tol_tohand","","","","","","","","","","","tol_peg_2","434","434","0","[[1,0,0],[3,0],[0]]","4","[[1,2,0],[3,0],[0]]","2","0","","","","","","4"
"","","","","","single-stim-button","352","1161332","0.0-4.0-16.3-1.3","636181cafa036fd02cb083db","D2","batch4","","461","","","tol_toboard","","","","","","","","","","","tol_peg_1","461","461","0","[[1,2,0],[3,0],[0]]","4","[[1,2,0],[3,0],[0]]","2","0","","","","","","4"
"","","","","","poldrack-single-stim","353","1162334","0.0-4.0-17.0","636181cafa036fd02cb083db","D2","batch4","","-1","","","tol_feedback","true","","","","","","","","","","","1000","1000","500","","","","","","-1","none","true","3345","7180",""
"","","","","","html-button-response","354","1162980","0.0-4.0-18.0","636181cafa036fd02cb083db","D2","batch4","","645","<div class = centerbox><p class = center-block-text>problem <strong>4</strong> out of 25 problems</p></div>","0","tol_trial_num","","","","","","","","","","","","","","","","","","","","","","","","",""
"","","","","","single-stim-button","355","1165827","0.0-4.0-19.0-0.0","636181cafa036fd02cb083db","D2","batch4","","2846","","","tol_tohand","","","","","","","","","","","tol_peg_2","2846","2846","0","[[3,0,0],[2,0],[0]]","1","[[3,0,0],[1,0],[2]]","3","0","","","","","","3"
"","","","","","single-stim-button","356","1166347","0.0-4.0-19.0-1.0","636181cafa036fd02cb083db","D2","batch4","","519","","","tol_toboard","","","","","","","","","","","tol_peg_1","519","519","0","[[3,1,0],[2,0],[0]]","1","[[3,0,0],[1,0],[2]]","3","0","","","","","","3"
"","","","","","single-stim-button","357","1166891","0.0-4.0-19.1-0.1","636181cafa036fd02cb083db","D2","batch4","","543","","","tol_tohand","","","","","","","","","","","tol_peg_2","543","543","0","[[3,1,0],[0,0],[0]]","2","[[3,0,0],[1,0],[2]]","3","0","","","","","","3"
"","","","","","single-stim-button","358","1167427","0.0-4.0-19.1-1.1","636181cafa036fd02cb083db","D2","batch4","","535","","","tol_toboard","","","","","","","","","","","tol_peg_3","535","535","0","[[3,1,0],[0,0],[2]]","2","[[3,0,0],[1,0],[2]]","3","0","","","","","","3"
"","","","","","single-stim-button","359","1167955","0.0-4.0-19.2-0.2","636181cafa036fd02cb083db","D2","batch4","","528","","","tol_tohand","","","","","","","","","","","tol_peg_1","528","528","0","[[3,0,0],[0,0],[2]]","3","[[3,0,0],[1,0],[2]]","3","0","","","","","","3"
"","","","","","single-stim-button","360","1168372","0.0-4.0-19.2-1.2","636181cafa036fd02cb083db","D2","batch4","","416","","","tol_toboard","","","","","","","","","","","tol_peg_2","416","416","0","[[3,0,0],[1,0],[2]]","3","[[3,0,0],[1,0],[2]]","3","0","","","","","","3"
