"success","timeout","failed_images","failed_audio","failed_video","trial_type","trial_index","time_elapsed","internal_node_id","subject_id","study_id","session_id","task","rt","stimulus","response","item","answer","correct","spm_correct","spm_rt","view_history","mouse_click","stim_duration","block_duration","timing_post_trial","current_position","tol_num_moves_made","tol_target","tol_problem_id","tol_rt","key_press","possible_responses","tol_correct","preplanning","tol_rt_per_trial","tol_min_moves","fiar_detect_rt","fiar_detect_correct","total_correct_fiar_detect","post_trial_gap","choices"
"true","false","[]","[]","[]","preload","0","4312","0.0-0.0","636598a7a571403968d03bf2","F1","batch6","","","","","","","","","","","","","","","","","","","","","","","","","","","","","",""
"true","","","","","fullscreen","1","34589","0.0-1.0-0.0","636598a7a571403968d03bf2","F1","batch6","","","","","","","","","","","","","","","","","","","","","","","","","","","","","",""
"true","","","","","fullscreen","2","268771","0.0-2.0-0.0","636598a7a571403968d03bf2","F1","batch6","spm_fullscreen","","","","","","","","","","","","","","","","","","","","","","","","","","","","",""
"","","","","","html-button-response","3","586086","0.0-2.0-1.0","636598a7a571403968d03bf2","F1","batch6","","317311","<p class = block-text><b>Instructions</b> <br>This is a widely used intelligence test in research. <br>In this test, a figure with a missing piece will be presented.<br>Below the figure are alternative pieces to complete the figure, only one of which is correct.<br> Different figures might involve different principles for obtaining the missing piece<br>Your job is to select the most logical piece to complete the figure.</p>","0","","","","","","","","","","","","","","","","","","","","","","","","","",""
"","","","","","html-keyboard-response","4","586889","0.0-2.0-2.0-0.0","636598a7a571403968d03bf2","F1","batch6","spm_show_trial_num","null","<p class=block-text>Trial 1 out of 60</p>","null","","","","","","","","","","","","","","","","","","","","","","","","","",""
"","","","","","image-button-response","5","594706","0.0-2.0-2.0-1.0","636598a7a571403968d03bf2","F1","batch6","spm_respsonse","7808","img/question_1_1.jpeg","3","mat_01","4","1","1","7808","","","","","","","","","","","","","","","","","","","","",""
"","","","","","html-keyboard-response","6","595779","0.0-2.0-2.0-0.1","636598a7a571403968d03bf2","F1","batch6","spm_show_trial_num","null","<p class=block-text>Trial 2 out of 60</p>","null","","","","","","","","","","","","","","","","","","","","","","","","","",""
"","","","","","image-button-response","7","599750","0.0-2.0-2.0-1.1","636598a7a571403968d03bf2","F1","batch6","spm_respsonse","3969","img/question_1_2.jpeg","4","mat_02","5","1","1","3969","","","","","","","","","","","","","","","","","","","","",""
"","","","","","html-keyboard-response","8","600824","0.0-2.0-2.0-0.2","636598a7a571403968d03bf2","F1","batch6","spm_show_trial_num","null","<p class=block-text>Trial 3 out of 60</p>","null","","","","","","","","","","","","","","","","","","","","","","","","","",""
"","","","","","image-button-response","9","606520","0.0-2.0-2.0-1.2","636598a7a571403968d03bf2","F1","batch6","spm_respsonse","5693","img/question_1_3.jpeg","0","mat_03","1","1","1","5693","","","","","","","","","","","","","","","","","","","","",""
"","","","","","html-keyboard-response","10","607591","0.0-2.0-2.0-0.3","636598a7a571403968d03bf2","F1","batch6","spm_show_trial_num","null","<p class=block-text>Trial 4 out of 60</p>","null","","","","","","","","","","","","","","","","","","","","","","","","","",""
"","","","","","image-button-response","11","610927","0.0-2.0-2.0-1.3","636598a7a571403968d03bf2","F1","batch6","spm_respsonse","3332","img/question_1_4.jpeg","1","mat_04","2","1","1","3332","","","","","","","","","","","","","","","","","","","","",""
"","","","","","html-keyboard-response","12","612001","0.0-2.0-2.0-0.4","636598a7a571403968d03bf2","F1","batch6","spm_show_trial_num","null","<p class=block-text>Trial 5 out of 60</p>","null","","","","","","","","","","","","","","","","","","","","","","","","","",""
"","","","","","image-button-response","13","617650","0.0-2.0-2.0-1.4","636598a7a571403968d03bf2","F1","batch6","spm_respsonse","5646","img/question_1_5.jpeg","5","mat_05","6","1","1","5646","","","","","","","","","","","","","","","","","","","","",""
"","","","","","html-keyboard-response","14","618711","0.0-2.0-2.0-0.5","636598a7a571403968d03bf2","F1","batch6","spm_show_trial_num","null","<p class=block-text>Trial 6 out of 60</p>","null","","","","","","","","","","","","","","","","","","","","","","","","","",""
"","","","","","image-button-response","15","622864","0.0-2.0-2.0-1.5","636598a7a571403968d03bf2","F1","batch6","spm_respsonse","4152","img/question_1_6.jpeg","2","mat_06","3","1","1","4152","","","","","","","","","","","","","","","","","","","","",""
"","","","","","html-keyboard-response","16","623929","0.0-2.0-2.0-0.6","636598a7a571403968d03bf2","F1","batch6","spm_show_trial_num","null","<p class=block-text>Trial 7 out of 60</p>","null","","","","","","","","","","","","","","","","","","","","","","","","","",""
"","","","","","image-button-response","17","634069","0.0-2.0-2.0-1.6","636598a7a571403968d03bf2","F1","batch6","spm_respsonse","10136","img/question_1_7.jpeg","5","mat_07","6","1","1","10136","","","","","","","","","","","","","","","","","","","","",""
"","","","","","html-keyboard-response","18","635126","0.0-2.0-2.0-0.7","636598a7a571403968d03bf2","F1","batch6","spm_show_trial_num","null","<p class=block-text>Trial 8 out of 60</p>","null","","","","","","","","","","","","","","","","","","","","","","","","","",""
"","","","","","image-button-response","19","640903","0.0-2.0-2.0-1.7","636598a7a571403968d03bf2","F1","batch6","spm_respsonse","5774","img/question_1_8.jpeg","1","mat_08","2","1","1","5774","","","","","","","","","","","","","","","","","","","","",""
"","","","","","html-keyboard-response","20","641965","0.0-2.0-2.0-0.8","636598a7a571403968d03bf2","F1","batch6","spm_show_trial_num","null","<p class=block-text>Trial 9 out of 60</p>","null","","","","","","","","","","","","","","","","","","","","","","","","","",""
"","","","","","image-button-response","21","649527","0.0-2.0-2.0-1.8","636598a7a571403968d03bf2","F1","batch6","spm_respsonse","7559","img/question_1_9.jpeg","0","mat_09","1","1","1","7559","","","","","","","","","","","","","","","","","","","","",""
"","","","","","html-keyboard-response","22","650594","0.0-2.0-2.0-0.9","636598a7a571403968d03bf2","F1","batch6","spm_show_trial_num","null","<p class=block-text>Trial 10 out of 60</p>","null","","","","","","","","","","","","","","","","","","","","","","","","","",""
"","","","","","image-button-response","23","657838","0.0-2.0-2.0-1.9","636598a7a571403968d03bf2","F1","batch6","spm_respsonse","7241","img/question_1_10.jpeg","2","mat_10","3","1","1","7241","","","","","","","","","","","","","","","","","","","","",""
"","","","","","html-keyboard-response","24","658900","0.0-2.0-2.0-0.10","636598a7a571403968d03bf2","F1","batch6","spm_show_trial_num","null","<p class=block-text>Trial 11 out of 60</p>","null","","","","","","","","","","","","","","","","","","","","","","","","","",""
"","","","","","image-button-response","25","673058","0.0-2.0-2.0-1.10","636598a7a571403968d03bf2","F1","batch6","spm_respsonse","14154","img/question_1_11.jpeg","3","mat_11","4","1","1","14154","","","","","","","","","","","","","","","","","","","","",""
"","","","","","html-keyboard-response","26","674117","0.0-2.0-2.0-0.11","636598a7a571403968d03bf2","F1","batch6","spm_show_trial_num","null","<p class=block-text>Trial 12 out of 60</p>","null","","","","","","","","","","","","","","","","","","","","","","","","","",""
"","","","","","image-button-response","27","680519","0.0-2.0-2.0-1.11","636598a7a571403968d03bf2","F1","batch6","spm_respsonse","6399","img/question_1_12.jpeg","0","mat_12","5","0","0","6399","","","","","","","","","","","","","","","","","","","","",""
"","","","","","html-keyboard-response","28","681585","0.0-2.0-2.0-0.12","636598a7a571403968d03bf2","F1","batch6","spm_show_trial_num","null","<p class=block-text>Trial 13 out of 60</p>","null","","","","","","","","","","","","","","","","","","","","","","","","","",""
"","","","","","image-button-response","29","685137","0.0-2.0-2.0-1.12","636598a7a571403968d03bf2","F1","batch6","spm_respsonse","3549","img/question_2_1.jpeg","1","mat_13","2","1","1","3549","","","","","","","","","","","","","","","","","","","","",""
"","","","","","html-keyboard-response","30","686203","0.0-2.0-2.0-0.13","636598a7a571403968d03bf2","F1","batch6","spm_show_trial_num","null","<p class=block-text>Trial 14 out of 60</p>","null","","","","","","","","","","","","","","","","","","","","","","","","","",""
"","","","","","image-button-response","31","703361","0.0-2.0-2.0-1.13","636598a7a571403968d03bf2","F1","batch6","spm_respsonse","17157","img/question_2_2.jpeg","5","mat_14","6","1","1","17157","","","","","","","","","","","","","","","","","","","","",""
"","","","","","html-keyboard-response","32","704433","0.0-2.0-2.0-0.14","636598a7a571403968d03bf2","F1","batch6","spm_show_trial_num","null","<p class=block-text>Trial 15 out of 60</p>","null","","","","","","","","","","","","","","","","","","","","","","","","","",""
"","","","","","image-button-response","33","709224","0.0-2.0-2.0-1.14","636598a7a571403968d03bf2","F1","batch6","spm_respsonse","4789","img/question_2_3.jpeg","0","mat_15","1","1","1","4789","","","","","","","","","","","","","","","","","","","","",""
"","","","","","html-keyboard-response","34","710293","0.0-2.0-2.0-0.15","636598a7a571403968d03bf2","F1","batch6","spm_show_trial_num","null","<p class=block-text>Trial 16 out of 60</p>","null","","","","","","","","","","","","","","","","","","","","","","","","","",""
"","","","","","image-button-response","35","721426","0.0-2.0-2.0-1.15","636598a7a571403968d03bf2","F1","batch6","spm_respsonse","11130","img/question_2_4.jpeg","1","mat_16","2","1","1","11130","","","","","","","","","","","","","","","","","","","","",""
"","","","","","html-keyboard-response","36","722489","0.0-2.0-2.0-0.16","636598a7a571403968d03bf2","F1","batch6","spm_show_trial_num","null","<p class=block-text>Trial 17 out of 60</p>","null","","","","","","","","","","","","","","","","","","","","","","","","","",""
"","","","","","image-button-response","37","733023","0.0-2.0-2.0-1.16","636598a7a571403968d03bf2","F1","batch6","spm_respsonse","10531","img/question_2_5.jpeg","0","mat_17","1","1","1","10531","","","","","","","","","","","","","","","","","","","","",""
"","","","","","html-keyboard-response","38","734088","0.0-2.0-2.0-0.17","636598a7a571403968d03bf2","F1","batch6","spm_show_trial_num","null","<p class=block-text>Trial 18 out of 60</p>","null","","","","","","","","","","","","","","","","","","","","","","","","","",""
"","","","","","image-button-response","39","771420","0.0-2.0-2.0-1.17","636598a7a571403968d03bf2","F1","batch6","spm_respsonse","37328","img/question_2_6.jpeg","2","mat_18","3","1","1","37328","","","","","","","","","","","","","","","","","","","","",""
"","","","","","html-keyboard-response","40","772483","0.0-2.0-2.0-0.18","636598a7a571403968d03bf2","F1","batch6","spm_show_trial_num","null","<p class=block-text>Trial 19 out of 60</p>","null","","","","","","","","","","","","","","","","","","","","","","","","","",""
"","","","","","image-button-response","41","788401","0.0-2.0-2.0-1.18","636598a7a571403968d03bf2","F1","batch6","spm_respsonse","15914","img/question_2_7.jpeg","4","mat_19","5","1","1","15914","","","","","","","","","","","","","","","","","","","","",""
"","","","","","html-keyboard-response","42","789461","0.0-2.0-2.0-0.19","636598a7a571403968d03bf2","F1","batch6","spm_show_trial_num","null","<p class=block-text>Trial 20 out of 60</p>","null","","","","","","","","","","","","","","","","","","","","","","","","","",""
"","","","","","image-button-response","43","799874","0.0-2.0-2.0-1.19","636598a7a571403968d03bf2","F1","batch6","spm_respsonse","10410","img/question_2_8.jpeg","5","mat_20","6","1","1","10410","","","","","","","","","","","","","","","","","","","","",""
"","","","","","html-keyboard-response","44","800942","0.0-2.0-2.0-0.20","636598a7a571403968d03bf2","F1","batch6","spm_show_trial_num","null","<p class=block-text>Trial 21 out of 60</p>","null","","","","","","","","","","","","","","","","","","","","","","","","","",""
"","","","","","image-button-response","45","807464","0.0-2.0-2.0-1.20","636598a7a571403968d03bf2","F1","batch6","spm_respsonse","6518","img/question_2_9.jpeg","3","mat_21","4","1","1","6518","","","","","","","","","","","","","","","","","","","","",""
"","","","","","html-keyboard-response","46","808526","0.0-2.0-2.0-0.21","636598a7a571403968d03bf2","F1","batch6","spm_show_trial_num","null","<p class=block-text>Trial 22 out of 60</p>","null","","","","","","","","","","","","","","","","","","","","","","","","","",""
"","","","","","image-button-response","47","821818","0.0-2.0-2.0-1.21","636598a7a571403968d03bf2","F1","batch6","spm_respsonse","13288","img/question_2_10.jpeg","2","mat_22","3","1","1","13288","","","","","","","","","","","","","","","","","","","","",""
"","","","","","html-keyboard-response","48","822896","0.0-2.0-2.0-0.22","636598a7a571403968d03bf2","F1","batch6","spm_show_trial_num","null","<p class=block-text>Trial 23 out of 60</p>","null","","","","","","","","","","","","","","","","","","","","","","","","","",""
"","","","","","image-button-response","49","846384","0.0-2.0-2.0-1.22","636598a7a571403968d03bf2","F1","batch6","spm_respsonse","23486","img/question_2_11.jpeg","3","mat_23","4","1","1","23486","","","","","","","","","","","","","","","","","","","","",""
"","","","","","html-keyboard-response","50","847445","0.0-2.0-2.0-0.23","636598a7a571403968d03bf2","F1","batch6","spm_show_trial_num","null","<p class=block-text>Trial 24 out of 60</p>","null","","","","","","","","","","","","","","","","","","","","","","","","","",""
"","","","","","image-button-response","51","932753","0.0-2.0-2.0-1.23","636598a7a571403968d03bf2","F1","batch6","spm_respsonse","85305","img/question_2_12.jpeg","2","mat_24","5","0","0","85305","","","","","","","","","","","","","","","","","","","","",""
"","","","","","html-button-response","52","934960","0.0-2.0-3.0","636598a7a571403968d03bf2","F1","batch6","attention_check","1952","<p class = block-text>Attention check: Please choose 1<br></p>","0","","","true","","","","","","","","","","","","","","","","","","","","","","",""
"","","","","","html-keyboard-response","53","935770","0.0-2.0-4.0-0.0","636598a7a571403968d03bf2","F1","batch6","spm_show_trial_num","null","<p class=block-text>Trial 25 out of 60</p>","null","","","","","","","","","","","","","","","","","","","","","","","","","",""
"","","","","","image-button-response","54","947968","0.0-2.0-4.0-1.0","636598a7a571403968d03bf2","F1","batch6","spm_respsonse","12195","img/question_3_1.jpeg","7","mat_25","8","1","1","12195","","","","","","","","","","","","","","","","","","","","",""
"","","","","","html-keyboard-response","55","949040","0.0-2.0-4.0-0.1","636598a7a571403968d03bf2","F1","batch6","spm_show_trial_num","null","<p class=block-text>Trial 26 out of 60</p>","null","","","","","","","","","","","","","","","","","","","","","","","","","",""
"","","","","","image-button-response","56","961723","0.0-2.0-4.0-1.1","636598a7a571403968d03bf2","F1","batch6","spm_respsonse","12680","img/question_3_2.jpeg","1","mat_26","2","1","1","12680","","","","","","","","","","","","","","","","","","","","",""
"","","","","","html-keyboard-response","57","962795","0.0-2.0-4.0-0.2","636598a7a571403968d03bf2","F1","batch6","spm_show_trial_num","null","<p class=block-text>Trial 27 out of 60</p>","null","","","","","","","","","","","","","","","","","","","","","","","","","",""
"","","","","","image-button-response","58","1006863","0.0-2.0-4.0-1.2","636598a7a571403968d03bf2","F1","batch6","spm_respsonse","44066","img/question_3_3.jpeg","2","mat_27","3","1","1","44066","","","","","","","","","","","","","","","","","","","","",""
"","","","","","html-keyboard-response","59","1007939","0.0-2.0-4.0-0.3","636598a7a571403968d03bf2","F1","batch6","spm_show_trial_num","null","<p class=block-text>Trial 28 out of 60</p>","null","","","","","","","","","","","","","","","","","","","","","","","","","",""
"","","","","","image-button-response","60","1030695","0.0-2.0-4.0-1.3","636598a7a571403968d03bf2","F1","batch6","spm_respsonse","22750","img/question_3_4.jpeg","7","mat_28","8","1","1","22750","","","","","","","","","","","","","","","","","","","","",""
"","","","","","html-keyboard-response","61","1031770","0.0-2.0-4.0-0.4","636598a7a571403968d03bf2","F1","batch6","spm_show_trial_num","null","<p class=block-text>Trial 29 out of 60</p>","null","","","","","","","","","","","","","","","","","","","","","","","","","",""
"","","","","","image-button-response","62","1062562","0.0-2.0-4.0-1.4","636598a7a571403968d03bf2","F1","batch6","spm_respsonse","30790","img/question_3_5.jpeg","6","mat_29","7","1","1","30790","","","","","","","","","","","","","","","","","","","","",""
"","","","","","html-keyboard-response","63","1063632","0.0-2.0-4.0-0.5","636598a7a571403968d03bf2","F1","batch6","spm_show_trial_num","null","<p class=block-text>Trial 30 out of 60</p>","null","","","","","","","","","","","","","","","","","","","","","","","","","",""
"","","","","","image-button-response","64","1082844","0.0-2.0-4.0-1.5","636598a7a571403968d03bf2","F1","batch6","spm_respsonse","19209","img/question_3_6.jpeg","3","mat_30","4","1","1","19209","","","","","","","","","","","","","","","","","","","","",""
"","","","","","html-keyboard-response","65","1083916","0.0-2.0-4.0-0.6","636598a7a571403968d03bf2","F1","batch6","spm_show_trial_num","null","<p class=block-text>Trial 31 out of 60</p>","null","","","","","","","","","","","","","","","","","","","","","","","","","",""
"","","","","","image-button-response","66","1114573","0.0-2.0-4.0-1.6","636598a7a571403968d03bf2","F1","batch6","spm_respsonse","30655","img/question_3_7.jpeg","4","mat_31","5","1","1","30655","","","","","","","","","","","","","","","","","","","","",""
"","","","","","html-keyboard-response","67","1115650","0.0-2.0-4.0-0.7","636598a7a571403968d03bf2","F1","batch6","spm_show_trial_num","null","<p class=block-text>Trial 32 out of 60</p>","null","","","","","","","","","","","","","","","","","","","","","","","","","",""
"","","","","","image-button-response","68","1205189","0.0-2.0-4.0-1.7","636598a7a571403968d03bf2","F1","batch6","spm_respsonse","89535","img/question_3_8.jpeg","0","mat_32","1","1","1","89535","","","","","","","","","","","","","","","","","","","","",""
"","","","","","html-keyboard-response","69","1206252","0.0-2.0-4.0-0.8","636598a7a571403968d03bf2","F1","batch6","spm_show_trial_num","null","<p class=block-text>Trial 33 out of 60</p>","null","","","","","","","","","","","","","","","","","","","","","","","","","",""
"","","","","","image-button-response","70","1226663","0.0-2.0-4.0-1.8","636598a7a571403968d03bf2","F1","batch6","spm_respsonse","20408","img/question_3_9.jpeg","6","mat_33","7","1","1","20408","","","","","","","","","","","","","","","","","","","","",""
"","","","","","html-keyboard-response","71","1227725","0.0-2.0-4.0-0.9","636598a7a571403968d03bf2","F1","batch6","spm_show_trial_num","null","<p class=block-text>Trial 34 out of 60</p>","null","","","","","","","","","","","","","","","","","","","","","","","","","",""
"","","","","","image-button-response","72","1448857","0.0-2.0-4.0-1.9","636598a7a571403968d03bf2","F1","batch6","spm_respsonse","221128","img/question_3_10.jpeg","7","mat_34","6","0","0","221128","","","","","","","","","","","","","","","","","","","","",""
"","","","","","html-keyboard-response","73","1449922","0.0-2.0-4.0-0.10","636598a7a571403968d03bf2","F1","batch6","spm_show_trial_num","null","<p class=block-text>Trial 35 out of 60</p>","null","","","","","","","","","","","","","","","","","","","","","","","","","",""
"","","","","","image-button-response","74","1566909","0.0-2.0-4.0-1.10","636598a7a571403968d03bf2","F1","batch6","spm_respsonse","116984","img/question_3_11.jpeg","4","mat_35","1","0","0","116984","","","","","","","","","","","","","","","","","","","","",""
"","","","","","html-keyboard-response","75","1567982","0.0-2.0-4.0-0.11","636598a7a571403968d03bf2","F1","batch6","spm_show_trial_num","null","<p class=block-text>Trial 36 out of 60</p>","null","","","","","","","","","","","","","","","","","","","","","","","","","",""
"","","","","","image-button-response","76","1607608","0.0-2.0-4.0-1.11","636598a7a571403968d03bf2","F1","batch6","spm_respsonse","39623","img/question_3_12.jpeg","3","mat_36","2","0","0","39623","","","","","","","","","","","","","","","","","","","","",""
"","","","","","html-keyboard-response","77","1608673","0.0-2.0-4.0-0.12","636598a7a571403968d03bf2","F1","batch6","spm_show_trial_num","null","<p class=block-text>Trial 37 out of 60</p>","null","","","","","","","","","","","","","","","","","","","","","","","","","",""
"","","","","","image-button-response","78","1612598","0.0-2.0-4.0-1.12","636598a7a571403968d03bf2","F1","batch6","spm_respsonse","3923","img/question_4_1.jpeg","2","mat_37","3","1","1","3923","","","","","","","","","","","","","","","","","","","","",""
"","","","","","html-keyboard-response","79","1613676","0.0-2.0-4.0-0.13","636598a7a571403968d03bf2","F1","batch6","spm_show_trial_num","null","<p class=block-text>Trial 38 out of 60</p>","null","","","","","","","","","","","","","","","","","","","","","","","","","",""
"","","","","","image-button-response","80","1635048","0.0-2.0-4.0-1.13","636598a7a571403968d03bf2","F1","batch6","spm_respsonse","21369","img/question_4_2.jpeg","3","mat_38","4","1","1","21369","","","","","","","","","","","","","","","","","","","","",""
"","","","","","html-keyboard-response","81","1636114","0.0-2.0-4.0-0.14","636598a7a571403968d03bf2","F1","batch6","spm_show_trial_num","null","<p class=block-text>Trial 39 out of 60</p>","null","","","","","","","","","","","","","","","","","","","","","","","","","",""
"","","","","","image-button-response","82","1642816","0.0-2.0-4.0-1.14","636598a7a571403968d03bf2","F1","batch6","spm_respsonse","6699","img/question_4_3.jpeg","2","mat_39","3","1","1","6699","","","","","","","","","","","","","","","","","","","","",""
"","","","","","html-keyboard-response","83","1643877","0.0-2.0-4.0-0.15","636598a7a571403968d03bf2","F1","batch6","spm_show_trial_num","null","<p class=block-text>Trial 40 out of 60</p>","null","","","","","","","","","","","","","","","","","","","","","","","","","",""
"","","","","","image-button-response","84","1748920","0.0-2.0-4.0-1.15","636598a7a571403968d03bf2","F1","batch6","spm_respsonse","105041","img/question_4_4.jpeg","6","mat_40","7","1","1","105041","","","","","","","","","","","","","","","","","","","","",""
"","","","","","html-keyboard-response","85","1749996","0.0-2.0-4.0-0.16","636598a7a571403968d03bf2","F1","batch6","spm_show_trial_num","null","<p class=block-text>Trial 41 out of 60</p>","null","","","","","","","","","","","","","","","","","","","","","","","","","",""
"","","","","","image-button-response","86","1849072","0.0-2.0-4.0-1.16","636598a7a571403968d03bf2","F1","batch6","spm_respsonse","99074","img/question_4_5.jpeg","7","mat_41","8","1","1","99074","","","","","","","","","","","","","","","","","","","","",""
"","","","","","html-keyboard-response","87","1850147","0.0-2.0-4.0-0.17","636598a7a571403968d03bf2","F1","batch6","spm_show_trial_num","null","<p class=block-text>Trial 42 out of 60</p>","null","","","","","","","","","","","","","","","","","","","","","","","","","",""
"","","","","","image-button-response","88","1876248","0.0-2.0-4.0-1.17","636598a7a571403968d03bf2","F1","batch6","spm_respsonse","26098","img/question_4_6.jpeg","5","mat_42","6","1","1","26098","","","","","","","","","","","","","","","","","","","","",""
"","","","","","html-keyboard-response","89","1877311","0.0-2.0-4.0-0.18","636598a7a571403968d03bf2","F1","batch6","spm_show_trial_num","null","<p class=block-text>Trial 43 out of 60</p>","null","","","","","","","","","","","","","","","","","","","","","","","","","",""
"","","","","","image-button-response","90","1889382","0.0-2.0-4.0-1.18","636598a7a571403968d03bf2","F1","batch6","spm_respsonse","12068","img/question_4_7.jpeg","3","mat_43","5","0","0","12068","","","","","","","","","","","","","","","","","","","","",""
"","","","","","html-keyboard-response","91","1890444","0.0-2.0-4.0-0.19","636598a7a571403968d03bf2","F1","batch6","spm_show_trial_num","null","<p class=block-text>Trial 44 out of 60</p>","null","","","","","","","","","","","","","","","","","","","","","","","","","",""
"","","","","","image-button-response","92","1906126","0.0-2.0-4.0-1.19","636598a7a571403968d03bf2","F1","batch6","spm_respsonse","15679","img/question_4_8.jpeg","3","mat_44","4","1","1","15679","","","","","","","","","","","","","","","","","","","","",""
"","","","","","html-keyboard-response","93","1907178","0.0-2.0-4.0-0.20","636598a7a571403968d03bf2","F1","batch6","spm_show_trial_num","null","<p class=block-text>Trial 45 out of 60</p>","null","","","","","","","","","","","","","","","","","","","","","","","","","",""
"","","","","","image-button-response","94","1966594","0.0-2.0-4.0-1.20","636598a7a571403968d03bf2","F1","batch6","spm_respsonse","59414","img/question_4_9.jpeg","0","mat_45","1","1","1","59414","","","","","","","","","","","","","","","","","","","","",""
"","","","","","html-keyboard-response","95","1967669","0.0-2.0-4.0-0.21","636598a7a571403968d03bf2","F1","batch6","spm_show_trial_num","null","<p class=block-text>Trial 46 out of 60</p>","null","","","","","","","","","","","","","","","","","","","","","","","","","",""
"","","","","","image-button-response","96","2083794","0.0-2.0-4.0-1.21","636598a7a571403968d03bf2","F1","batch6","spm_respsonse","116123","img/question_4_10.jpeg","1","mat_46","2","1","1","116123","","","","","","","","","","","","","","","","","","","","",""
"","","","","","html-keyboard-response","97","2084870","0.0-2.0-4.0-0.22","636598a7a571403968d03bf2","F1","batch6","spm_show_trial_num","null","<p class=block-text>Trial 47 out of 60</p>","null","","","","","","","","","","","","","","","","","","","","","","","","","",""
"","","","","","image-button-response","98","2106621","0.0-2.0-4.0-1.22","636598a7a571403968d03bf2","F1","batch6","spm_respsonse","21748","img/question_4_11.jpeg","2","mat_47","5","0","0","21748","","","","","","","","","","","","","","","","","","","","",""
"","","","","","html-keyboard-response","99","2107688","0.0-2.0-4.0-0.23","636598a7a571403968d03bf2","F1","batch6","spm_show_trial_num","null","<p class=block-text>Trial 48 out of 60</p>","null","","","","","","","","","","","","","","","","","","","","","","","","","",""
"","","","","","image-button-response","100","2127103","0.0-2.0-4.0-1.23","636598a7a571403968d03bf2","F1","batch6","spm_respsonse","19412","img/question_4_12.jpeg","1","mat_48","6","0","0","19412","","","","","","","","","","","","","","","","","","","","",""
"","","","","","html-keyboard-response","101","2128174","0.0-2.0-4.0-0.24","636598a7a571403968d03bf2","F1","batch6","spm_show_trial_num","null","<p class=block-text>Trial 49 out of 60</p>","null","","","","","","","","","","","","","","","","","","","","","","","","","",""
"","","","","","image-button-response","102","2137947","0.0-2.0-4.0-1.24","636598a7a571403968d03bf2","F1","batch6","spm_respsonse","9772","img/question_5_1.jpeg","0","mat_49","7","0","0","9772","","","","","","","","","","","","","","","","","","","","",""
"","","","","","html-keyboard-response","103","2139020","0.0-2.0-4.0-0.25","636598a7a571403968d03bf2","F1","batch6","spm_show_trial_num","null","<p class=block-text>Trial 50 out of 60</p>","null","","","","","","","","","","","","","","","","","","","","","","","","","",""
"","","","","","image-button-response","104","2391496","0.0-2.0-4.0-1.25","636598a7a571403968d03bf2","F1","batch6","spm_respsonse","252474","img/question_5_2.jpeg","2","mat_50","6","0","0","252474","","","","","","","","","","","","","","","","","","","","",""
"","","","","","html-keyboard-response","105","2392562","0.0-2.0-4.0-0.26","636598a7a571403968d03bf2","F1","batch6","spm_show_trial_num","null","<p class=block-text>Trial 51 out of 60</p>","null","","","","","","","","","","","","","","","","","","","","","","","","","",""
"","","","","","image-button-response","106","2455145","0.0-2.0-4.0-1.26","636598a7a571403968d03bf2","F1","batch6","spm_respsonse","62579","img/question_5_3.jpeg","0","mat_51","8","0","0","62579","","","","","","","","","","","","","","","","","","","","",""
"","","","","","html-keyboard-response","107","2456223","0.0-2.0-4.0-0.27","636598a7a571403968d03bf2","F1","batch6","spm_show_trial_num","null","<p class=block-text>Trial 52 out of 60</p>","null","","","","","","","","","","","","","","","","","","","","","","","","","",""
"","","","","","image-button-response","108","2478568","0.0-2.0-4.0-1.27","636598a7a571403968d03bf2","F1","batch6","spm_respsonse","22344","img/question_5_4.jpeg","1","mat_52","2","1","1","22344","","","","","","","","","","","","","","","","","","","","",""
"","","","","","html-keyboard-response","109","2479637","0.0-2.0-4.0-0.28","636598a7a571403968d03bf2","F1","batch6","spm_show_trial_num","null","<p class=block-text>Trial 53 out of 60</p>","null","","","","","","","","","","","","","","","","","","","","","","","","","",""
"","","","","","image-button-response","110","2486406","0.0-2.0-4.0-1.28","636598a7a571403968d03bf2","F1","batch6","spm_respsonse","6767","img/question_5_5.jpeg","6","mat_53","1","0","0","6767","","","","","","","","","","","","","","","","","","","","",""
"","","","","","html-keyboard-response","111","2487469","0.0-2.0-4.0-0.29","636598a7a571403968d03bf2","F1","batch6","spm_show_trial_num","null","<p class=block-text>Trial 54 out of 60</p>","null","","","","","","","","","","","","","","","","","","","","","","","","","",""
"","","","","","image-button-response","112","2585612","0.0-2.0-4.0-1.29","636598a7a571403968d03bf2","F1","batch6","spm_respsonse","98140","img/question_5_6.jpeg","2","mat_54","5","0","0","98140","","","","","","","","","","","","","","","","","","","","",""
"","","","","","html-keyboard-response","113","2586683","0.0-2.0-4.0-0.30","636598a7a571403968d03bf2","F1","batch6","spm_show_trial_num","null","<p class=block-text>Trial 55 out of 60</p>","null","","","","","","","","","","","","","","","","","","","","","","","","","",""
"","","","","","image-button-response","114","2783246","0.0-2.0-4.0-1.30","636598a7a571403968d03bf2","F1","batch6","spm_respsonse","196561","img/question_5_7.jpeg","2","mat_55","1","0","0","196561","","","","","","","","","","","","","","","","","","","","",""
"","","","","","html-keyboard-response","115","2784317","0.0-2.0-4.0-0.31","636598a7a571403968d03bf2","F1","batch6","spm_show_trial_num","null","<p class=block-text>Trial 56 out of 60</p>","null","","","","","","","","","","","","","","","","","","","","","","","","","",""
"","","","","","image-button-response","116","2850711","0.0-2.0-4.0-1.31","636598a7a571403968d03bf2","F1","batch6","spm_respsonse","66389","img/question_5_8.jpeg","0","mat_56","6","0","0","66389","","","","","","","","","","","","","","","","","","","","",""
"","","","","","html-keyboard-response","117","2851786","0.0-2.0-4.0-0.32","636598a7a571403968d03bf2","F1","batch6","spm_show_trial_num","null","<p class=block-text>Trial 57 out of 60</p>","null","","","","","","","","","","","","","","","","","","","","","","","","","",""
"","","","","","image-button-response","118","3022425","0.0-2.0-4.0-1.32","636598a7a571403968d03bf2","F1","batch6","spm_respsonse","170637","img/question_5_9.jpeg","0","mat_57","3","0","0","170637","","","","","","","","","","","","","","","","","","","","",""
"","","","","","html-keyboard-response","119","3023497","0.0-2.0-4.0-0.33","636598a7a571403968d03bf2","F1","batch6","spm_show_trial_num","null","<p class=block-text>Trial 58 out of 60</p>","null","","","","","","","","","","","","","","","","","","","","","","","","","",""
"","","","","","image-button-response","120","3080263","0.0-2.0-4.0-1.33","636598a7a571403968d03bf2","F1","batch6","spm_respsonse","56763","img/question_5_10.jpeg","5","mat_58","2","0","0","56763","","","","","","","","","","","","","","","","","","","","",""
"","","","","","html-keyboard-response","121","3081337","0.0-2.0-4.0-0.34","636598a7a571403968d03bf2","F1","batch6","spm_show_trial_num","null","<p class=block-text>Trial 59 out of 60</p>","null","","","","","","","","","","","","","","","","","","","","","","","","","",""
"","","","","","image-button-response","122","3144033","0.0-2.0-4.0-1.34","636598a7a571403968d03bf2","F1","batch6","spm_respsonse","62692","img/question_5_11.jpeg","5","mat_59","4","0","0","62692","","","","","","","","","","","","","","","","","","","","",""
"","","","","","html-keyboard-response","123","3145104","0.0-2.0-4.0-0.35","636598a7a571403968d03bf2","F1","batch6","spm_show_trial_num","null","<p class=block-text>Trial 60 out of 60</p>","null","","","","","","","","","","","","","","","","","","","","","","","","","",""
"","","","","","image-button-response","124","3315722","0.0-2.0-4.0-1.35","636598a7a571403968d03bf2","F1","batch6","spm_respsonse","170617","img/question_5_12.jpeg","2","mat_60","5","0","0","170617","","","","","","","","","","","","","","","","","","","","",""
"","","","","","html-button-response","125","3318163","0.0-2.0-5.0","636598a7a571403968d03bf2","F1","batch6","spm_goodbye","2177","<p class= block-text>This concludes the Standard Progressive Matrix game. Thank you for your responses!<br> When you are ready, click the button continue</p>","0","","","","","","","","","","","","","","","","","","","","","","","","","",""
"true","","","","","fullscreen","126","3321233","0.0-3.0-0.0","636598a7a571403968d03bf2","F1","batch6","","","","","","","","","","","","","","","","","","","","","","","","","","","","","",""
"","","","","","instructions","127","3439138","0.0-3.0-1.0-0.0-0.0","636598a7a571403968d03bf2","F1","batch6","tol-instructions","117904","","","","","","","","[{""page_index"":0,""viewing_time"":23764},{""page_index"":1,""viewing_time"":8370},{""page_index"":2,""viewing_time"":6180},{""page_index"":3,""viewing_time"":6340},{""page_index"":4,""viewing_time"":9874},{""page_index"":5,""viewing_time"":58166},{""page_index"":6,""viewing_time"":5210}]","","","","","","","","","","","","","","","","","","","",""
"","","","","","html-button-response","128","3444011","0.0-3.0-1.0-1.0-0.0","636598a7a571403968d03bf2","F1","batch6","tol_enter_quiz","4871","<p class=block-text> Let's answer a few questions <br>","0","","","","","","","","","","","","","","","","","","","","","","","","","",""
"","","","","","html-button-response","129","3450787","0.0-3.0-1.0-1.0-1.0","636598a7a571403968d03bf2","F1","batch6","tol_quiz","6775","<p class = block-text>True or False: You can only move the ball on top of a peg. <br></p>","0","","","true","","","","","","","","","","","","","","","","","","","","","","",""
"","","","","","html-button-response","130","3452606","0.0-3.0-1.0-1.0-2.0","636598a7a571403968d03bf2","F1","batch6","tol_quiz_feedback","1819","<p class = block-text>Correct! You can only move the ball on top of a peg.</p>","0","","","","","","","","","","","","","","","","","","","","","","","","","",""
"","","","","","html-button-response","131","3456455","0.0-3.0-1.0-1.0-3.0","636598a7a571403968d03bf2","F1","batch6","tol_quiz","3847","<p class = block-text>True or False: You should try to match your board with the target board with fewest moves possible. <br></p>","0","","","true","","","","","","","","","","","","","","","","","","","","","","",""
"","","","","","html-button-response","132","3457301","0.0-3.0-1.0-1.0-4.0","636598a7a571403968d03bf2","F1","batch6","tol_quiz_feedback","845","<p class = block-text>Correct! </p>","0","","","","","","","","","","","","","","","","","","","","","","","","","",""
"","","","","","html-button-response","133","3460354","0.0-3.0-2.0","636598a7a571403968d03bf2","F1","batch6","","3051","<p class=block-text> Now that you've understood the game, let's practice a few easier examples before we start!<br> <br>","0","","","","","","","","","","","","","","","","","","","","","","","","","",""
"","","","","","single-stim-button","134","3463220","0.0-3.0-3.0-0.0","636598a7a571403968d03bf2","F1","batch6","tol_practice","2864","","","","","","","","","tol_peg_2","2864","2864","0","[[1,2,0],[0,0],[0]]","1","[[1,2,0],[0,0],[3]]","practice","2864","","","","","","","","","","",""
"","","","","","single-stim-button","135","3464572","0.0-3.0-3.0-1.0","636598a7a571403968d03bf2","F1","batch6","tol_practice","1350","","","","","","","","","tol_peg_3","1350","1350","0","[[1,2,0],[0,0],[3]]","1","[[1,2,0],[0,0],[3]]","practice","1350","","","","","","","","","","",""
"","","","","","poldrack-single-stim","136","3465579","0.0-3.0-4.0","636598a7a571403968d03bf2","F1","batch6","tol_feedback","-1","","","","","true","","","","","1000","1000","500","","","","","","-1","none","true","","0","","","","","",""
"","","","","","single-stim-button","137","3468260","0.0-3.0-5.0-0.0","636598a7a571403968d03bf2","F1","batch6","tol_practice","2678","","","","","","","","","tol_peg_1","2678","2678","0","[[1,0,0],[3,0],[0]]","2","[[0,0,0],[3,1],[2]]","practice","2678","","","","","","","","","","",""
"","","","","","single-stim-button","138","3469502","0.0-3.0-5.0-1.0","636598a7a571403968d03bf2","F1","batch6","tol_practice","1241","","","","","","","","","tol_peg_3","1241","1241","0","[[1,0,0],[3,0],[2]]","2","[[0,0,0],[3,1],[2]]","practice","1241","","","","","","","","","","",""
"","","","","","single-stim-button","139","3475794","0.0-3.0-5.1-0.1","636598a7a571403968d03bf2","F1","batch6","tol_practice","6292","","","","","","","","","tol_peg_2","6292","6292","0","[[1,0,0],[0,0],[2]]","3","[[0,0,0],[3,1],[2]]","practice","6292","","","","","","","","","","",""
"","","","","","single-stim-button","140","3476806","0.0-3.0-5.1-1.1","636598a7a571403968d03bf2","F1","batch6","tol_practice","1010","","","","","","","","","tol_peg_1","1010","1010","0","[[1,3,0],[0,0],[2]]","3","[[0,0,0],[3,1],[2]]","practice","1010","","","","","","","","","","",""
"","","","","","single-stim-button","141","3477901","0.0-3.0-5.2-0.2","636598a7a571403968d03bf2","F1","batch6","tol_practice","1095","","","","","","","","","tol_peg_3","1095","1095","0","[[1,3,0],[0,0],[0]]","4","[[0,0,0],[3,1],[2]]","practice","1095","","","","","","","","","","",""
"","","","","","single-stim-button","142","3478784","0.0-3.0-5.2-1.2","636598a7a571403968d03bf2","F1","batch6","tol_practice","882","","","","","","","","","tol_peg_2","882","882","0","[[1,3,0],[2,0],[0]]","4","[[0,0,0],[3,1],[2]]","practice","882","","","","","","","","","","",""
"","","","","","single-stim-button","143","3479921","0.0-3.0-5.3-0.3","636598a7a571403968d03bf2","F1","batch6","tol_practice","1137","","","","","","","","","tol_peg_1","1137","1137","0","[[1,0,0],[2,0],[0]]","5","[[0,0,0],[3,1],[2]]","practice","1137","","","","","","","","","","",""
"","","","","","single-stim-button","144","3480729","0.0-3.0-5.3-1.3","636598a7a571403968d03bf2","F1","batch6","tol_practice","808","","","","","","","","","tol_peg_2","808","808","0","[[1,0,0],[2,3],[0]]","5","[[0,0,0],[3,1],[2]]","practice","808","","","","","","","","","","",""
"","","","","","single-stim-button","145","3483554","0.0-3.0-5.4-0.4","636598a7a571403968d03bf2","F1","batch6","tol_practice","2824","","","","","","","","","tol_peg_1","2824","2824","0","[[0,0,0],[2,3],[0]]","6","[[0,0,0],[3,1],[2]]","practice","2824","","","","","","","","","","",""
"","","","","","single-stim-button","146","3484745","0.0-3.0-5.4-1.4","636598a7a571403968d03bf2","F1","batch6","tol_practice","1190","","","","","","","","","tol_peg_3","1190","1190","0","[[0,0,0],[2,3],[1]]","6","[[0,0,0],[3,1],[2]]","practice","1190","","","","","","","","","","",""
"","","","","","single-stim-button","147","3485565","0.0-3.0-5.5-0.5","636598a7a571403968d03bf2","F1","batch6","tol_practice","820","","","","","","","","","tol_peg_2","820","820","0","[[0,0,0],[2,0],[1]]","7","[[0,0,0],[3,1],[2]]","practice","820","","","","","","","","","","",""
"","","","","","single-stim-button","148","3486299","0.0-3.0-5.5-1.5","636598a7a571403968d03bf2","F1","batch6","tol_practice","733","","","","","","","","","tol_peg_1","733","733","0","[[3,0,0],[2,0],[1]]","7","[[0,0,0],[3,1],[2]]","practice","733","","","","","","","","","","",""
"","","","","","single-stim-button","149","3486999","0.0-3.0-5.6-0.6","636598a7a571403968d03bf2","F1","batch6","tol_practice","698","","","","","","","","","tol_peg_3","698","698","0","[[3,0,0],[2,0],[0]]","8","[[0,0,0],[3,1],[2]]","practice","698","","","","","","","","","","",""
"","","","","","single-stim-button","150","3487789","0.0-3.0-5.6-1.6","636598a7a571403968d03bf2","F1","batch6","tol_practice","788","","","","","","","","","tol_peg_1","788","788","0","[[3,1,0],[2,0],[0]]","8","[[0,0,0],[3,1],[2]]","practice","788","","","","","","","","","","",""
"","","","","","single-stim-button","151","3488964","0.0-3.0-5.7-0.7","636598a7a571403968d03bf2","F1","batch6","tol_practice","1175","","","","","","","","","tol_peg_2","1175","1175","0","[[3,1,0],[0,0],[0]]","9","[[0,0,0],[3,1],[2]]","practice","1175","","","","","","","","","","",""
"","","","","","single-stim-button","152","3489746","0.0-3.0-5.7-1.7","636598a7a571403968d03bf2","F1","batch6","tol_practice","782","","","","","","","","","tol_peg_3","782","782","0","[[3,1,0],[0,0],[2]]","9","[[0,0,0],[3,1],[2]]","practice","782","","","","","","","","","","",""
"","","","","","single-stim-button","153","3499918","0.0-3.0-5.8-0.8","636598a7a571403968d03bf2","F1","batch6","tol_practice","10172","","","","","","","","","tol_peg_3","10172","10172","0","[[3,1,0],[0,0],[0]]","10","[[0,0,0],[3,1],[2]]","practice","10172","","","","","","","","","","",""
"","","","","","single-stim-button","154","3503755","0.0-3.0-5.8-1.8","636598a7a571403968d03bf2","F1","batch6","tol_practice","3834","","","","","","","","","tol_peg_3","3834","3834","0","[[3,1,0],[0,0],[2]]","10","[[0,0,0],[3,1],[2]]","practice","3834","","","","","","","","","","",""
"","","","","","single-stim-button","155","3519703","0.0-3.0-5.9-0.9","636598a7a571403968d03bf2","F1","batch6","tol_practice","15947","","","","","","","","","tol_peg_1","15947","15947","0","[[3,0,0],[0,0],[2]]","11","[[0,0,0],[3,1],[2]]","practice","15947","","","","","","","","","","",""
"","","","","","single-stim-button","156","3524061","0.0-3.0-5.9-1.9","636598a7a571403968d03bf2","F1","batch6","tol_practice","4358","","","","","","","","","tol_peg_2","4358","4358","0","[[3,0,0],[1,0],[2]]","11","[[0,0,0],[3,1],[2]]","practice","4358","","","","","","","","","","",""
"","","","","","single-stim-button","157","3525080","0.0-3.0-5.10-0.10","636598a7a571403968d03bf2","F1","batch6","tol_practice","1018","","","","","","","","","tol_peg_1","1018","1018","0","[[0,0,0],[1,0],[2]]","12","[[0,0,0],[3,1],[2]]","practice","1018","","","","","","","","","","",""
"","","","","","single-stim-button","158","3525943","0.0-3.0-5.10-1.10","636598a7a571403968d03bf2","F1","batch6","tol_practice","862","","","","","","","","","tol_peg_2","862","862","0","[[0,0,0],[1,3],[2]]","12","[[0,0,0],[3,1],[2]]","practice","862","","","","","","","","","","",""
"","","","","","single-stim-button","159","3527469","0.0-3.0-5.11-0.11","636598a7a571403968d03bf2","F1","batch6","tol_practice","1525","","","","","","","","","tol_peg_3","1525","1525","0","[[0,0,0],[1,3],[0]]","13","[[0,0,0],[3,1],[2]]","practice","1525","","","","","","","","","","",""
"","","","","","single-stim-button","160","3528479","0.0-3.0-5.11-1.11","636598a7a571403968d03bf2","F1","batch6","tol_practice","1010","","","","","","","","","tol_peg_1","1010","1010","0","[[2,0,0],[1,3],[0]]","13","[[0,0,0],[3,1],[2]]","practice","1010","","","","","","","","","","",""
"","","","","","single-stim-button","161","3529074","0.0-3.0-5.12-0.12","636598a7a571403968d03bf2","F1","batch6","tol_practice","595","","","","","","","","","tol_peg_2","595","595","0","[[2,0,0],[1,0],[0]]","14","[[0,0,0],[3,1],[2]]","practice","595","","","","","","","","","","",""
"","","","","","single-stim-button","162","3529859","0.0-3.0-5.12-1.12","636598a7a571403968d03bf2","F1","batch6","tol_practice","784","","","","","","","","","tol_peg_3","784","784","0","[[2,0,0],[1,0],[3]]","14","[[0,0,0],[3,1],[2]]","practice","784","","","","","","","","","","",""
"","","","","","single-stim-button","163","3530532","0.0-3.0-5.13-0.13","636598a7a571403968d03bf2","F1","batch6","tol_practice","672","","","","","","","","","tol_peg_2","672","672","0","[[2,0,0],[0,0],[3]]","15","[[0,0,0],[3,1],[2]]","practice","672","","","","","","","","","","",""
"","","","","","single-stim-button","164","3531321","0.0-3.0-5.13-1.13","636598a7a571403968d03bf2","F1","batch6","tol_practice","787","","","","","","","","","tol_peg_1","787","787","0","[[2,1,0],[0,0],[3]]","15","[[0,0,0],[3,1],[2]]","practice","787","","","","","","","","","","",""
"","","","","","single-stim-button","165","3532139","0.0-3.0-5.14-0.14","636598a7a571403968d03bf2","F1","batch6","tol_practice","818","","","","","","","","","tol_peg_3","818","818","0","[[2,1,0],[0,0],[0]]","16","[[0,0,0],[3,1],[2]]","practice","818","","","","","","","","","","",""
"","","","","","single-stim-button","166","3533003","0.0-3.0-5.14-1.14","636598a7a571403968d03bf2","F1","batch6","tol_practice","864","","","","","","","","","tol_peg_2","864","864","0","[[2,1,0],[3,0],[0]]","16","[[0,0,0],[3,1],[2]]","practice","864","","","","","","","","","","",""
"","","","","","single-stim-button","167","3533666","0.0-3.0-5.15-0.15","636598a7a571403968d03bf2","F1","batch6","tol_practice","662","","","","","","","","","tol_peg_1","662","662","0","[[2,0,0],[3,0],[0]]","17","[[0,0,0],[3,1],[2]]","practice","662","","","","","","","","","","",""
"","","","","","single-stim-button","168","3534361","0.0-3.0-5.15-1.15","636598a7a571403968d03bf2","F1","batch6","tol_practice","694","","","","","","","","","tol_peg_2","694","694","0","[[2,0,0],[3,1],[0]]","17","[[0,0,0],[3,1],[2]]","practice","694","","","","","","","","","","",""
"","","","","","single-stim-button","169","3535011","0.0-3.0-5.16-0.16","636598a7a571403968d03bf2","F1","batch6","tol_practice","650","","","","","","","","","tol_peg_1","650","650","0","[[0,0,0],[3,1],[0]]","18","[[0,0,0],[3,1],[2]]","practice","650","","","","","","","","","","",""
"","","","","","single-stim-button","170","3535732","0.0-3.0-5.16-1.16","636598a7a571403968d03bf2","F1","batch6","tol_practice","721","","","","","","","","","tol_peg_3","721","721","0","[[0,0,0],[3,1],[2]]","18","[[0,0,0],[3,1],[2]]","practice","721","","","","","","","","","","",""
"","","","","","poldrack-single-stim","171","3536734","0.0-3.0-6.0","636598a7a571403968d03bf2","F1","batch6","tol_feedback","-1","","","","","true","","","","","1000","1000","500","","","","","","-1","none","true","","0","","","","","",""
"","","","","","single-stim-button","172","3539213","0.0-3.0-7.0-0.0","636598a7a571403968d03bf2","F1","batch6","tol_practice","2479","","","","","","","","","tol_peg_2","2479","2479","0","[[1,2,0],[0,0],[0]]","19","[[1,0,0],[2,0],[3]]","practice","2479","","","","","","","","","","",""
"","","","","","single-stim-button","173","3540037","0.0-3.0-7.0-1.0","636598a7a571403968d03bf2","F1","batch6","tol_practice","823","","","","","","","","","tol_peg_3","823","823","0","[[1,2,0],[0,0],[3]]","19","[[1,0,0],[2,0],[3]]","practice","823","","","","","","","","","","",""
"","","","","","single-stim-button","174","3540744","0.0-3.0-7.1-0.1","636598a7a571403968d03bf2","F1","batch6","tol_practice","706","","","","","","","","","tol_peg_1","706","706","0","[[1,0,0],[0,0],[3]]","20","[[1,0,0],[2,0],[3]]","practice","706","","","","","","","","","","",""
"","","","","","single-stim-button","175","3541553","0.0-3.0-7.1-1.1","636598a7a571403968d03bf2","F1","batch6","tol_practice","809","","","","","","","","","tol_peg_2","809","809","0","[[1,0,0],[2,0],[3]]","20","[[1,0,0],[2,0],[3]]","practice","809","","","","","","","","","","",""
"","","","","","poldrack-single-stim","176","3542560","0.0-3.0-8.0","636598a7a571403968d03bf2","F1","batch6","tol_feedback","-1","","","","","true","","","","","1000","1000","500","","","","","","-1","none","true","","0","","","","","",""
"","","","","","html-button-response","177","3546299","0.0-3.0-9.0","636598a7a571403968d03bf2","F1","batch6","tol_instruction","3739","<div class = centerbox><p class = center-block-text>Great job! You are done with practice trials<br>You are about to start official trials.<br> <br> Problem <strong>1</strong> out of 25 problems</p></div>","0","","","","","","","","","","","","","","","","","","","","","","","","","",""
"","","","","","single-stim-button","178","3550151","0.0-3.0-10.0-0.0","636598a7a571403968d03bf2","F1","batch6","tol_tohand","2837","","","","","","","","","tol_peg_2","2837","2837","0","[[1,2,0],[0,0],[0]]","1","[[1,3,0],[2,0],[0]]","0","0","","","","","","3","","","","",""
"","","","","","single-stim-button","179","3550851","0.0-3.0-10.0-1.0","636598a7a571403968d03bf2","F1","batch6","tol_toboard","700","","","","","","","","","tol_peg_3","700","700","0","[[1,2,0],[0,0],[3]]","1","[[1,3,0],[2,0],[0]]","0","0","","","","","","3","","","","",""
"","","","","","single-stim-button","180","3551813","0.0-3.0-10.1-0.1","636598a7a571403968d03bf2","F1","batch6","tol_tohand","961","","","","","","","","","tol_peg_1","961","961","0","[[1,0,0],[0,0],[3]]","2","[[1,3,0],[2,0],[0]]","0","0","","","","","","3","","","","",""
"","","","","","single-stim-button","181","3552675","0.0-3.0-10.1-1.1","636598a7a571403968d03bf2","F1","batch6","tol_toboard","861","","","","","","","","","tol_peg_2","861","861","0","[[1,0,0],[2,0],[3]]","2","[[1,3,0],[2,0],[0]]","0","0","","","","","","3","","","","",""
"","","","","","single-stim-button","182","3553620","0.0-3.0-10.2-0.2","636598a7a571403968d03bf2","F1","batch6","tol_tohand","945","","","","","","","","","tol_peg_3","945","945","0","[[1,0,0],[2,0],[0]]","3","[[1,3,0],[2,0],[0]]","0","0","","","","","","3","","","","",""
"","","","","","single-stim-button","183","3554491","0.0-3.0-10.2-1.2","636598a7a571403968d03bf2","F1","batch6","tol_toboard","870","","","","","","","","","tol_peg_1","870","870","0","[[1,3,0],[2,0],[0]]","3","[[1,3,0],[2,0],[0]]","0","0","","","","","","3","","","","",""
"","","","","","poldrack-single-stim","184","3555507","0.0-3.0-11.0","636598a7a571403968d03bf2","F1","batch6","tol_feedback","-1","","","","","true","","","","","1000","1000","500","","","","","","-1","none","true","2837","4743","","","","","",""
"","","","","","html-button-response","185","3556609","0.0-3.0-12.0","636598a7a571403968d03bf2","F1","batch6","tol_trial_num","1101","<div class = centerbox><p class = center-block-text>problem <strong>2</strong> out of 25 problems</p></div>","0","","","","","","","","","","","","","","","","","","","","","","","","","",""
"","","","","","single-stim-button","186","3562380","0.0-3.0-13.0-0.0","636598a7a571403968d03bf2","F1","batch6","tol_tohand","5769","","","","","","","","","tol_peg_1","5769","5769","0","[[1,0,0],[3,0],[0]]","1","[[2,1,3],[0,0],[0]]","1","0","","","","","","5","","","","",""
"","","","","","single-stim-button","187","3565517","0.0-3.0-13.0-1.0","636598a7a571403968d03bf2","F1","batch6","tol_toboard","3137","","","","","","","","","tol_peg_3","3137","3137","0","[[1,0,0],[3,0],[2]]","1","[[2,1,3],[0,0],[0]]","1","0","","","","","","5","","","","",""
"","","","","","single-stim-button","188","3566217","0.0-3.0-13.1-0.1","636598a7a571403968d03bf2","F1","batch6","tol_tohand","698","","","","","","","","","tol_peg_1","698","698","0","[[0,0,0],[3,0],[2]]","2","[[2,1,3],[0,0],[0]]","1","0","","","","","","5","","","","",""
"","","","","","single-stim-button","189","3566940","0.0-3.0-13.1-1.1","636598a7a571403968d03bf2","F1","batch6","tol_toboard","723","","","","","","","","","tol_peg_2","723","723","0","[[0,0,0],[3,1],[2]]","2","[[2,1,3],[0,0],[0]]","1","0","","","","","","5","","","","",""
"","","","","","single-stim-button","190","3567585","0.0-3.0-13.2-0.2","636598a7a571403968d03bf2","F1","batch6","tol_tohand","644","","","","","","","","","tol_peg_3","644","644","0","[[0,0,0],[3,1],[0]]","3","[[2,1,3],[0,0],[0]]","1","0","","","","","","5","","","","",""
"","","","","","single-stim-button","191","3568366","0.0-3.0-13.2-1.2","636598a7a571403968d03bf2","F1","batch6","tol_toboard","781","","","","","","","","","tol_peg_1","781","781","0","[[2,0,0],[3,1],[0]]","3","[[2,1,3],[0,0],[0]]","1","0","","","","","","5","","","","",""
"","","","","","single-stim-button","192","3569418","0.0-3.0-13.3-0.3","636598a7a571403968d03bf2","F1","batch6","tol_tohand","1051","","","","","","","","","tol_peg_2","1051","1051","0","[[2,0,0],[3,0],[0]]","4","[[2,1,3],[0,0],[0]]","1","0","","","","","","5","","","","",""
"","","","","","single-stim-button","193","3570083","0.0-3.0-13.3-1.3","636598a7a571403968d03bf2","F1","batch6","tol_toboard","664","","","","","","","","","tol_peg_1","664","664","0","[[2,1,0],[3,0],[0]]","4","[[2,1,3],[0,0],[0]]","1","0","","","","","","5","","","","",""
"","","","","","single-stim-button","194","3570856","0.0-3.0-13.4-0.4","636598a7a571403968d03bf2","F1","batch6","tol_tohand","772","","","","","","","","","tol_peg_2","772","772","0","[[2,1,0],[0,0],[0]]","5","[[2,1,3],[0,0],[0]]","1","0","","","","","","5","","","","",""
"","","","","","single-stim-button","195","3571742","0.0-3.0-13.4-1.4","636598a7a571403968d03bf2","F1","batch6","tol_toboard","886","","","","","","","","","tol_peg_1","886","886","0","[[2,1,3],[0,0],[0]]","5","[[2,1,3],[0,0],[0]]","1","0","","","","","","5","","","","",""
"","","","","","poldrack-single-stim","196","3572749","0.0-3.0-14.0","636598a7a571403968d03bf2","F1","batch6","tol_feedback","-1","","","","","true","","","","","1000","1000","500","","","","","","-1","none","true","5769","8934","","","","","",""
"","","","","","html-button-response","197","3573709","0.0-3.0-15.0","636598a7a571403968d03bf2","F1","batch6","tol_trial_num","960","<div class = centerbox><p class = center-block-text>problem <strong>3</strong> out of 25 problems</p></div>","0","","","","","","","","","","","","","","","","","","","","","","","","","",""
"","","","","","single-stim-button","198","3577289","0.0-3.0-16.0-0.0","636598a7a571403968d03bf2","F1","batch6","tol_tohand","3578","","","","","","","","","tol_peg_1","3578","3578","0","[[2,0,0],[0,0],[1]]","1","[[1,2,0],[3,0],[0]]","2","0","","","","","","4","","","","",""
"","","","","","single-stim-button","199","3578055","0.0-3.0-16.0-1.0","636598a7a571403968d03bf2","F1","batch6","tol_toboard","766","","","","","","","","","tol_peg_2","766","766","0","[[2,0,0],[3,0],[1]]","1","[[1,2,0],[3,0],[0]]","2","0","","","","","","4","","","","",""
"","","","","","single-stim-button","200","3583839","0.0-3.0-16.1-0.1","636598a7a571403968d03bf2","F1","batch6","tol_tohand","5784","","","","","","","","","tol_peg_3","5784","5784","0","[[2,0,0],[3,0],[0]]","2","[[1,2,0],[3,0],[0]]","2","0","","","","","","4","","","","",""
"","","","","","single-stim-button","201","3584703","0.0-3.0-16.1-1.1","636598a7a571403968d03bf2","F1","batch6","tol_toboard","864","","","","","","","","","tol_peg_2","864","864","0","[[2,0,0],[3,1],[0]]","2","[[1,2,0],[3,0],[0]]","2","0","","","","","","4","","","","",""
"","","","","","single-stim-button","202","3585454","0.0-3.0-16.2-0.2","636598a7a571403968d03bf2","F1","batch6","tol_tohand","751","","","","","","","","","tol_peg_1","751","751","0","[[0,0,0],[3,1],[0]]","3","[[1,2,0],[3,0],[0]]","2","0","","","","","","4","","","","",""
"","","","","","single-stim-button","203","3586457","0.0-3.0-16.2-1.2","636598a7a571403968d03bf2","F1","batch6","tol_toboard","1001","","","","","","","","","tol_peg_3","1001","1001","0","[[0,0,0],[3,1],[2]]","3","[[1,2,0],[3,0],[0]]","2","0","","","","","","4","","","","",""
"","","","","","single-stim-button","204","3587140","0.0-3.0-16.3-0.3","636598a7a571403968d03bf2","F1","batch6","tol_tohand","683","","","","","","","","","tol_peg_2","683","683","0","[[0,0,0],[3,0],[2]]","4","[[1,2,0],[3,0],[0]]","2","0","","","","","","4","","","","",""
"","","","","","single-stim-button","205","3588025","0.0-3.0-16.3-1.3","636598a7a571403968d03bf2","F1","batch6","tol_toboard","884","","","","","","","","","tol_peg_1","884","884","0","[[1,0,0],[3,0],[2]]","4","[[1,2,0],[3,0],[0]]","2","0","","","","","","4","","","","",""
"","","","","","single-stim-button","206","3589141","0.0-3.0-16.4-0.4","636598a7a571403968d03bf2","F1","batch6","tol_tohand","1115","","","","","","","","","tol_peg_3","1115","1115","0","[[1,0,0],[3,0],[0]]","5","[[1,2,0],[3,0],[0]]","2","0","","","","","","4","","","","",""
"","","","","","single-stim-button","207","3590066","0.0-3.0-16.4-1.4","636598a7a571403968d03bf2","F1","batch6","tol_toboard","924","","","","","","","","","tol_peg_1","924","924","0","[[1,2,0],[3,0],[0]]","5","[[1,2,0],[3,0],[0]]","2","0","","","","","","4","","","","",""
"","","","","","poldrack-single-stim","208","3591073","0.0-3.0-17.0","636598a7a571403968d03bf2","F1","batch6","tol_feedback","-1","","","","","true","","","","","1000","1000","500","","","","","","-1","none","true","3578","11911","","","","","",""
"","","","","","html-button-response","209","3592493","0.0-3.0-18.0","636598a7a571403968d03bf2","F1","batch6","tol_trial_num","1417","<div class = centerbox><p class = center-block-text>problem <strong>4</strong> out of 25 problems</p></div>","0","","","","","","","","","","","","","","","","","","","","","","","","","",""
"","","","","","single-stim-button","210","3595352","0.0-3.0-19.0-0.0","636598a7a571403968d03bf2","F1","batch6","tol_tohand","2859","","","","","","","","","tol_peg_2","2859","2859","0","[[3,0,0],[2,0],[0]]","1","[[3,0,0],[1,0],[2]]","3","0","","","","","","3","","","","",""
"","","","","","single-stim-button","211","3596293","0.0-3.0-19.0-1.0","636598a7a571403968d03bf2","F1","batch6","tol_toboard","940","","","","","","","","","tol_peg_1","940","940","0","[[3,1,0],[2,0],[0]]","1","[[3,0,0],[1,0],[2]]","3","0","","","","","","3","","","","",""
"","","","","","single-stim-button","212","3596915","0.0-3.0-19.1-0.1","636598a7a571403968d03bf2","F1","batch6","tol_tohand","620","","","","","","","","","tol_peg_2","620","620","0","[[3,1,0],[0,0],[0]]","2","[[3,0,0],[1,0],[2]]","3","0","","","","","","3","","","","",""
"","","","","","single-stim-button","213","3597842","0.0-3.0-19.1-1.1","636598a7a571403968d03bf2","F1","batch6","tol_toboard","927","","","","","","","","","tol_peg_3","927","927","0","[[3,1,0],[0,0],[2]]","2","[[3,0,0],[1,0],[2]]","3","0","","","","","","3","","","","",""
"","","","","","single-stim-button","214","3598609","0.0-3.0-19.2-0.2","636598a7a571403968d03bf2","F1","batch6","tol_tohand","766","","","","","","","","","tol_peg_1","766","766","0","[[3,0,0],[0,0],[2]]","3","[[3,0,0],[1,0],[2]]","3","0","","","","","","3","","","","",""
"","","","","","single-stim-button","215","3599353","0.0-3.0-19.2-1.2","636598a7a571403968d03bf2","F1","batch6","tol_toboard","744","","","","","","","","","tol_peg_2","744","744","0","[[3,0,0],[1,0],[2]]","3","[[3,0,0],[1,0],[2]]","3","0","","","","","","3","","","","",""
"","","","","","poldrack-single-stim","216","3600366","0.0-3.0-20.0","636598a7a571403968d03bf2","F1","batch6","tol_feedback","-1","","","","","true","","","","","1000","1000","500","","","","","","-1","none","true","2859","4245","","","","","",""
"","","","","","html-button-response","217","3601405","0.0-3.0-21.0","636598a7a571403968d03bf2","F1","batch6","tol_trial_num","1039","<div class = centerbox><p class = center-block-text>problem <strong>5</strong> out of 25 problems</p></div>","0","","","","","","","","","","","","","","","","","","","","","","","","","",""
"","","","","","single-stim-button","218","3630743","0.0-3.0-22.0-0.0","636598a7a571403968d03bf2","F1","batch6","tol_tohand","29336","","","","","","","","","tol_peg_3","29336","29336","0","[[1,0,0],[2,0],[0]]","1","[[0,0,0],[1,2],[3]]","4","0","","","","","","7","","","","",""
"","","","","","single-stim-button","219","3631423","0.0-3.0-22.0-1.0","636598a7a571403968d03bf2","F1","batch6","tol_toboard","679","","","","","","","","","tol_peg_1","679","679","0","[[1,3,0],[2,0],[0]]","1","[[0,0,0],[1,2],[3]]","4","0","","","","","","7","","","","",""
"","","","","","single-stim-button","220","3632057","0.0-3.0-22.1-0.1","636598a7a571403968d03bf2","F1","batch6","tol_tohand","634","","","","","","","","","tol_peg_2","634","634","0","[[1,3,0],[0,0],[0]]","2","[[0,0,0],[1,2],[3]]","4","0","","","","","","7","","","","",""
"","","","","","single-stim-button","221","3632733","0.0-3.0-22.1-1.1","636598a7a571403968d03bf2","F1","batch6","tol_toboard","676","","","","","","","","","tol_peg_3","676","676","0","[[1,3,0],[0,0],[2]]","2","[[0,0,0],[1,2],[3]]","4","0","","","","","","7","","","","",""
"","","","","","single-stim-button","222","3640439","0.0-3.0-22.2-0.2","636598a7a571403968d03bf2","F1","batch6","tol_tohand","7705","","","","","","","","","tol_peg_3","7705","7705","0","[[1,3,0],[0,0],[0]]","3","[[0,0,0],[1,2],[3]]","4","0","","","","","","7","","","","",""
"","","","","","single-stim-button","223","3641625","0.0-3.0-22.2-1.2","636598a7a571403968d03bf2","F1","batch6","tol_toboard","1186","","","","","","","","","tol_peg_2","1186","1186","0","[[1,3,0],[2,0],[0]]","3","[[0,0,0],[1,2],[3]]","4","0","","","","","","7","","","","",""
"","","","","","single-stim-button","224","3643359","0.0-3.0-22.3-0.3","636598a7a571403968d03bf2","F1","batch6","tol_tohand","1734","","","","","","","","","tol_peg_1","1734","1734","0","[[1,0,0],[2,0],[0]]","4","[[0,0,0],[1,2],[3]]","4","0","","","","","","7","","","","",""
"","","","","","single-stim-button","225","3643994","0.0-3.0-22.3-1.3","636598a7a571403968d03bf2","F1","batch6","tol_toboard","634","","","","","","","","","tol_peg_2","634","634","0","[[1,0,0],[2,3],[0]]","4","[[0,0,0],[1,2],[3]]","4","0","","","","","","7","","","","",""
"","","","","","single-stim-button","226","3645009","0.0-3.0-22.4-0.4","636598a7a571403968d03bf2","F1","batch6","tol_tohand","1014","","","","","","","","","tol_peg_1","1014","1014","0","[[0,0,0],[2,3],[0]]","5","[[0,0,0],[1,2],[3]]","4","0","","","","","","7","","","","",""
"","","","","","single-stim-button","227","3645881","0.0-3.0-22.4-1.4","636598a7a571403968d03bf2","F1","batch6","tol_toboard","872","","","","","","","","","tol_peg_3","872","872","0","[[0,0,0],[2,3],[1]]","5","[[0,0,0],[1,2],[3]]","4","0","","","","","","7","","","","",""
"","","","","","single-stim-button","228","3649022","0.0-3.0-22.5-0.5","636598a7a571403968d03bf2","F1","batch6","tol_tohand","3141","","","","","","","","","tol_peg_2","3141","3141","0","[[0,0,0],[2,0],[1]]","6","[[0,0,0],[1,2],[3]]","4","0","","","","","","7","","","","",""
"","","","","","single-stim-button","229","3649751","0.0-3.0-22.5-1.5","636598a7a571403968d03bf2","F1","batch6","tol_toboard","729","","","","","","","","","tol_peg_1","729","729","0","[[3,0,0],[2,0],[1]]","6","[[0,0,0],[1,2],[3]]","4","0","","","","","","7","","","","",""
"","","","","","single-stim-button","230","3650713","0.0-3.0-22.6-0.6","636598a7a571403968d03bf2","F1","batch6","tol_tohand","962","","","","","","","","","tol_peg_2","962","962","0","[[3,0,0],[0,0],[1]]","7","[[0,0,0],[1,2],[3]]","4","0","","","","","","7","","","","",""
"","","","","","single-stim-button","231","3651349","0.0-3.0-22.6-1.6","636598a7a571403968d03bf2","F1","batch6","tol_toboard","635","","","","","","","","","tol_peg_1","635","635","0","[[3,2,0],[0,0],[1]]","7","[[0,0,0],[1,2],[3]]","4","0","","","","","","7","","","","",""
"","","","","","single-stim-button","232","3652171","0.0-3.0-22.7-0.7","636598a7a571403968d03bf2","F1","batch6","tol_tohand","821","","","","","","","","","tol_peg_3","821","821","0","[[3,2,0],[0,0],[0]]","8","[[0,0,0],[1,2],[3]]","4","0","","","","","","7","","","","",""
"","","","","","single-stim-button","233","3652926","0.0-3.0-22.7-1.7","636598a7a571403968d03bf2","F1","batch6","tol_toboard","755","","","","","","","","","tol_peg_2","755","755","0","[[3,2,0],[1,0],[0]]","8","[[0,0,0],[1,2],[3]]","4","0","","","","","","7","","","","",""
"","","","","","single-stim-button","234","3653561","0.0-3.0-22.8-0.8","636598a7a571403968d03bf2","F1","batch6","tol_tohand","634","","","","","","","","","tol_peg_1","634","634","0","[[3,0,0],[1,0],[0]]","9","[[0,0,0],[1,2],[3]]","4","0","","","","","","7","","","","",""
"","","","","","single-stim-button","235","3654261","0.0-3.0-22.8-1.8","636598a7a571403968d03bf2","F1","batch6","tol_toboard","699","","","","","","","","","tol_peg_2","699","699","0","[[3,0,0],[1,2],[0]]","9","[[0,0,0],[1,2],[3]]","4","0","","","","","","7","","","","",""
"","","","","","single-stim-button","236","3654935","0.0-3.0-22.9-0.9","636598a7a571403968d03bf2","F1","batch6","tol_tohand","674","","","","","","","","","tol_peg_1","674","674","0","[[0,0,0],[1,2],[0]]","10","[[0,0,0],[1,2],[3]]","4","0","","","","","","7","","","","",""
"","","","","","single-stim-button","237","3655737","0.0-3.0-22.9-1.9","636598a7a571403968d03bf2","F1","batch6","tol_toboard","802","","","","","","","","","tol_peg_3","802","802","0","[[0,0,0],[1,2],[3]]","10","[[0,0,0],[1,2],[3]]","4","0","","","","","","7","","","","",""
"","","","","","poldrack-single-stim","238","3656746","0.0-3.0-23.0","636598a7a571403968d03bf2","F1","batch6","tol_feedback","-1","","","","","true","","","","","1000","1000","500","","","","","","-1","none","true","29336","46655","","","","","",""
"","","","","","html-button-response","239","3657925","0.0-3.0-24.0","636598a7a571403968d03bf2","F1","batch6","tol_trial_num","1178","<div class = centerbox><p class = center-block-text>problem <strong>6</strong> out of 25 problems</p></div>","0","","","","","","","","","","","","","","","","","","","","","","","","","",""
"","","","","","single-stim-button","240","3660535","0.0-3.0-25.0-0.0","636598a7a571403968d03bf2","F1","batch6","tol_tohand","2609","","","","","","","","","tol_peg_2","2609","2609","0","[[0,0,0],[1,0],[3]]","1","[[1,0,0],[2,3],[0]]","5","0","","","","","","6","","","","",""
"","","","","","single-stim-button","241","3661383","0.0-3.0-25.0-1.0","636598a7a571403968d03bf2","F1","batch6","tol_toboard","847","","","","","","","","","tol_peg_1","847","847","0","[[2,0,0],[1,0],[3]]","1","[[1,0,0],[2,3],[0]]","5","0","","","","","","6","","","","",""
"","","","","","single-stim-button","242","3664910","0.0-3.0-25.1-0.1","636598a7a571403968d03bf2","F1","batch6","tol_tohand","3526","","","","","","","","","tol_peg_3","3526","3526","0","[[2,0,0],[1,0],[0]]","2","[[1,0,0],[2,3],[0]]","5","0","","","","","","6","","","","",""
"","","","","","single-stim-button","243","3665785","0.0-3.0-25.1-1.1","636598a7a571403968d03bf2","F1","batch6","tol_toboard","874","","","","","","","","","tol_peg_1","874","874","0","[[2,3,0],[1,0],[0]]","2","[[1,0,0],[2,3],[0]]","5","0","","","","","","6","","","","",""
"","","","","","single-stim-button","244","3666532","0.0-3.0-25.2-0.2","636598a7a571403968d03bf2","F1","batch6","tol_tohand","745","","","","","","","","","tol_peg_2","745","745","0","[[2,3,0],[0,0],[0]]","3","[[1,0,0],[2,3],[0]]","5","0","","","","","","6","","","","",""
"","","","","","single-stim-button","245","3667234","0.0-3.0-25.2-1.2","636598a7a571403968d03bf2","F1","batch6","tol_toboard","702","","","","","","","","","tol_peg_3","702","702","0","[[2,3,0],[0,0],[1]]","3","[[1,0,0],[2,3],[0]]","5","0","","","","","","6","","","","",""
"","","","","","single-stim-button","246","3668885","0.0-3.0-25.3-0.3","636598a7a571403968d03bf2","F1","batch6","tol_tohand","1650","","","","","","","","","tol_peg_1","1650","1650","0","[[2,0,0],[0,0],[1]]","4","[[1,0,0],[2,3],[0]]","5","0","","","","","","6","","","","",""
"","","","","","single-stim-button","247","3669556","0.0-3.0-25.3-1.3","636598a7a571403968d03bf2","F1","batch6","tol_toboard","670","","","","","","","","","tol_peg_2","670","670","0","[[2,0,0],[3,0],[1]]","4","[[1,0,0],[2,3],[0]]","5","0","","","","","","6","","","","",""
"","","","","","single-stim-button","248","3670771","0.0-3.0-25.4-0.4","636598a7a571403968d03bf2","F1","batch6","tol_tohand","1214","","","","","","","","","tol_peg_1","1214","1214","0","[[0,0,0],[3,0],[1]]","5","[[1,0,0],[2,3],[0]]","5","0","","","","","","6","","","","",""
"","","","","","single-stim-button","249","3671713","0.0-3.0-25.4-1.4","636598a7a571403968d03bf2","F1","batch6","tol_toboard","942","","","","","","","","","tol_peg_2","942","942","0","[[0,0,0],[3,2],[1]]","5","[[1,0,0],[2,3],[0]]","5","0","","","","","","6","","","","",""
"","","","","","single-stim-button","250","3672341","0.0-3.0-25.5-0.5","636598a7a571403968d03bf2","F1","batch6","tol_tohand","628","","","","","","","","","tol_peg_3","628","628","0","[[0,0,0],[3,2],[0]]","6","[[1,0,0],[2,3],[0]]","5","0","","","","","","6","","","","",""
"","","","","","single-stim-button","251","3673123","0.0-3.0-25.5-1.5","636598a7a571403968d03bf2","F1","batch6","tol_toboard","782","","","","","","","","","tol_peg_1","782","782","0","[[1,0,0],[3,2],[0]]","6","[[1,0,0],[2,3],[0]]","5","0","","","","","","6","","","","",""
"","","","","","single-stim-button","252","3674033","0.0-3.0-25.6-0.6","636598a7a571403968d03bf2","F1","batch6","tol_tohand","910","","","","","","","","","tol_peg_2","910","910","0","[[1,0,0],[3,0],[0]]","7","[[1,0,0],[2,3],[0]]","5","0","","","","","","6","","","","",""
"","","","","","single-stim-button","253","3674648","0.0-3.0-25.6-1.6","636598a7a571403968d03bf2","F1","batch6","tol_toboard","614","","","","","","","","","tol_peg_1","614","614","0","[[1,2,0],[3,0],[0]]","7","[[1,0,0],[2,3],[0]]","5","0","","","","","","6","","","","",""
"","","","","","single-stim-button","254","3675537","0.0-3.0-25.7-0.7","636598a7a571403968d03bf2","F1","batch6","tol_tohand","888","","","","","","","","","tol_peg_2","888","888","0","[[1,2,0],[0,0],[0]]","8","[[1,0,0],[2,3],[0]]","5","0","","","","","","6","","","","",""
"","","","","","single-stim-button","255","3676284","0.0-3.0-25.7-1.7","636598a7a571403968d03bf2","F1","batch6","tol_toboard","746","","","","","","","","","tol_peg_3","746","746","0","[[1,2,0],[0,0],[3]]","8","[[1,0,0],[2,3],[0]]","5","0","","","","","","6","","","","",""
"","","","","","single-stim-button","256","3677037","0.0-3.0-25.8-0.8","636598a7a571403968d03bf2","F1","batch6","tol_tohand","753","","","","","","","","","tol_peg_1","753","753","0","[[1,0,0],[0,0],[3]]","9","[[1,0,0],[2,3],[0]]","5","0","","","","","","6","","","","",""
"","","","","","single-stim-button","257","3677542","0.0-3.0-25.8-1.8","636598a7a571403968d03bf2","F1","batch6","tol_toboard","504","","","","","","","","","tol_peg_2","504","504","0","[[1,0,0],[2,0],[3]]","9","[[1,0,0],[2,3],[0]]","5","0","","","","","","6","","","","",""
"","","","","","single-stim-button","258","3678133","0.0-3.0-25.9-0.9","636598a7a571403968d03bf2","F1","batch6","tol_tohand","589","","","","","","","","","tol_peg_3","589","589","0","[[1,0,0],[2,0],[0]]","10","[[1,0,0],[2,3],[0]]","5","0","","","","","","6","","","","",""
"","","","","","single-stim-button","259","3678771","0.0-3.0-25.9-1.9","636598a7a571403968d03bf2","F1","batch6","tol_toboard","638","","","","","","","","","tol_peg_2","638","638","0","[[1,0,0],[2,3],[0]]","10","[[1,0,0],[2,3],[0]]","5","0","","","","","","6","","","","",""
"","","","","","poldrack-single-stim","260","3679784","0.0-3.0-26.0","636598a7a571403968d03bf2","F1","batch6","tol_feedback","-1","","","","","true","","","","","1000","1000","500","","","","","","-1","none","true","2609","13512","","","","","",""
"","","","","","html-button-response","261","3683902","0.0-3.0-27.0","636598a7a571403968d03bf2","F1","batch6","tol_trial_num","4118","<div class = centerbox><p class = center-block-text>problem <strong>7</strong> out of 25 problems</p></div>","0","","","","","","","","","","","","","","","","","","","","","","","","","",""
"","","","","","single-stim-button","262","3692183","0.0-3.0-28.0-0.0","636598a7a571403968d03bf2","F1","batch6","tol_tohand","8280","","","","","","","","","tol_peg_3","8280","8280","0","[[2,1,0],[0,0],[0]]","1","[[1,2,0],[3,0],[0]]","6","0","","","","","","5","","","","",""
"","","","","","single-stim-button","263","3692838","0.0-3.0-28.0-1.0","636598a7a571403968d03bf2","F1","batch6","tol_toboard","655","","","","","","","","","tol_peg_2","655","655","0","[[2,1,0],[3,0],[0]]","1","[[1,2,0],[3,0],[0]]","6","0","","","","","","5","","","","",""
"","","","","","single-stim-button","264","3693425","0.0-3.0-28.1-0.1","636598a7a571403968d03bf2","F1","batch6","tol_tohand","586","","","","","","","","","tol_peg_1","586","586","0","[[2,0,0],[3,0],[0]]","2","[[1,2,0],[3,0],[0]]","6","0","","","","","","5","","","","",""
"","","","","","single-stim-button","265","3694201","0.0-3.0-28.1-1.1","636598a7a571403968d03bf2","F1","batch6","tol_toboard","773","","","","","","","","","tol_peg_3","773","773","0","[[2,0,0],[3,0],[1]]","2","[[1,2,0],[3,0],[0]]","6","0","","","","","","5","","","","",""
"","","","","","single-stim-button","266","3697145","0.0-3.0-28.2-0.2","636598a7a571403968d03bf2","F1","batch6","tol_tohand","2943","","","","","","","","","tol_peg_1","2943","2943","0","[[0,0,0],[3,0],[1]]","3","[[1,2,0],[3,0],[0]]","6","0","","","","","","5","","","","",""
"","","","","","single-stim-button","267","3697935","0.0-3.0-28.2-1.2","636598a7a571403968d03bf2","F1","batch6","tol_toboard","789","","","","","","","","","tol_peg_2","789","789","0","[[0,0,0],[3,2],[1]]","3","[[1,2,0],[3,0],[0]]","6","0","","","","","","5","","","","",""
"","","","","","single-stim-button","268","3698590","0.0-3.0-28.3-0.3","636598a7a571403968d03bf2","F1","batch6","tol_tohand","655","","","","","","","","","tol_peg_3","655","655","0","[[0,0,0],[3,2],[0]]","4","[[1,2,0],[3,0],[0]]","6","0","","","","","","5","","","","",""
"","","","","","single-stim-button","269","3699331","0.0-3.0-28.3-1.3","636598a7a571403968d03bf2","F1","batch6","tol_toboard","741","","","","","","","","","tol_peg_1","741","741","0","[[1,0,0],[3,2],[0]]","4","[[1,2,0],[3,0],[0]]","6","0","","","","","","5","","","","",""
"","","","","","single-stim-button","270","3700092","0.0-3.0-28.4-0.4","636598a7a571403968d03bf2","F1","batch6","tol_tohand","760","","","","","","","","","tol_peg_2","760","760","0","[[1,0,0],[3,0],[0]]","5","[[1,2,0],[3,0],[0]]","6","0","","","","","","5","","","","",""
"","","","","","single-stim-button","271","3700648","0.0-3.0-28.4-1.4","636598a7a571403968d03bf2","F1","batch6","tol_toboard","555","","","","","","","","","tol_peg_1","555","555","0","[[1,2,0],[3,0],[0]]","5","[[1,2,0],[3,0],[0]]","6","0","","","","","","5","","","","",""
"","","","","","poldrack-single-stim","272","3701659","0.0-3.0-29.0","636598a7a571403968d03bf2","F1","batch6","tol_feedback","-1","","","","","true","","","","","1000","1000","500","","","","","","-1","none","true","8280","13224","","","","","",""
"","","","","","html-button-response","273","3702796","0.0-3.0-30.0","636598a7a571403968d03bf2","F1","batch6","tol_trial_num","1137","<div class = centerbox><p class = center-block-text>problem <strong>8</strong> out of 25 problems</p></div>","0","","","","","","","","","","","","","","","","","","","","","","","","","",""
"","","","","","single-stim-button","274","3707201","0.0-3.0-31.0-0.0","636598a7a571403968d03bf2","F1","batch6","tol_tohand","4403","","","","","","","","","tol_peg_3","4403","4403","0","[[0,0,0],[2,3],[0]]","1","[[1,2,0],[3,0],[0]]","7","0","","","","","","4","","","","",""
"","","","","","single-stim-button","275","3707875","0.0-3.0-31.0-1.0","636598a7a571403968d03bf2","F1","batch6","tol_toboard","673","","","","","","","","","tol_peg_1","673","673","0","[[1,0,0],[2,3],[0]]","1","[[1,2,0],[3,0],[0]]","7","0","","","","","","4","","","","",""
"","","","","","single-stim-button","276","3709116","0.0-3.0-31.1-0.1","636598a7a571403968d03bf2","F1","batch6","tol_tohand","1241","","","","","","","","","tol_peg_2","1241","1241","0","[[1,0,0],[2,0],[0]]","2","[[1,2,0],[3,0],[0]]","7","0","","","","","","4","","","","",""
"","","","","","single-stim-button","277","3709693","0.0-3.0-31.1-1.1","636598a7a571403968d03bf2","F1","batch6","tol_toboard","577","","","","","","","","","tol_peg_3","577","577","0","[[1,0,0],[2,0],[3]]","2","[[1,2,0],[3,0],[0]]","7","0","","","","","","4","","","","",""
"","","","","","single-stim-button","278","3710375","0.0-3.0-31.2-0.2","636598a7a571403968d03bf2","F1","batch6","tol_tohand","681","","","","","","","","","tol_peg_2","681","681","0","[[1,0,0],[0,0],[3]]","3","[[1,2,0],[3,0],[0]]","7","0","","","","","","4","","","","",""
"","","","","","single-stim-button","279","3711003","0.0-3.0-31.2-1.2","636598a7a571403968d03bf2","F1","batch6","tol_toboard","628","","","","","","","","","tol_peg_1","628","628","0","[[1,2,0],[0,0],[3]]","3","[[1,2,0],[3,0],[0]]","7","0","","","","","","4","","","","",""
"","","","","","single-stim-button","280","3711998","0.0-3.0-31.3-0.3","636598a7a571403968d03bf2","F1","batch6","tol_tohand","995","","","","","","","","","tol_peg_3","995","995","0","[[1,2,0],[0,0],[0]]","4","[[1,2,0],[3,0],[0]]","7","0","","","","","","4","","","","",""
"","","","","","single-stim-button","281","3712893","0.0-3.0-31.3-1.3","636598a7a571403968d03bf2","F1","batch6","tol_toboard","895","","","","","","","","","tol_peg_2","895","895","0","[[1,2,0],[3,0],[0]]","4","[[1,2,0],[3,0],[0]]","7","0","","","","","","4","","","","",""
"","","","","","poldrack-single-stim","282","3713902","0.0-3.0-32.0","636598a7a571403968d03bf2","F1","batch6","tol_feedback","-1","","","","","true","","","","","1000","1000","500","","","","","","-1","none","true","4403","7320","","","","","",""
"","","","","","html-button-response","283","3714869","0.0-3.0-33.0","636598a7a571403968d03bf2","F1","batch6","tol_trial_num","967","<div class = centerbox><p class = center-block-text>problem <strong>9</strong> out of 25 problems</p></div>","0","","","","","","","","","","","","","","","","","","","","","","","","","",""
"","","","","","single-stim-button","284","3719433","0.0-3.0-34.0-0.0","636598a7a571403968d03bf2","F1","batch6","tol_tohand","4562","","","","","","","","","tol_peg_1","4562","4562","0","[[3,0,0],[0,0],[1]]","1","[[2,1,0],[3,0],[0]]","8","0","","","","","","6","","","","",""
"","","","","","single-stim-button","285","3720184","0.0-3.0-34.0-1.0","636598a7a571403968d03bf2","F1","batch6","tol_toboard","751","","","","","","","","","tol_peg_2","751","751","0","[[3,0,0],[2,0],[1]]","1","[[2,1,0],[3,0],[0]]","8","0","","","","","","6","","","","",""
"","","","","","single-stim-button","286","3720882","0.0-3.0-34.1-0.1","636598a7a571403968d03bf2","F1","batch6","tol_tohand","697","","","","","","","","","tol_peg_1","697","697","0","[[0,0,0],[2,0],[1]]","2","[[2,1,0],[3,0],[0]]","8","0","","","","","","6","","","","",""
"","","","","","single-stim-button","287","3723842","0.0-3.0-34.1-1.1","636598a7a571403968d03bf2","F1","batch6","tol_toboard","2959","","","","","","","","","tol_peg_1","2959","2959","0","[[3,0,0],[2,0],[1]]","2","[[2,1,0],[3,0],[0]]","8","0","","","","","","6","","","","",""
"","","","","","single-stim-button","288","3724899","0.0-3.0-34.2-0.2","636598a7a571403968d03bf2","F1","batch6","tol_tohand","1056","","","","","","","","","tol_peg_3","1056","1056","0","[[3,0,0],[2,0],[0]]","3","[[2,1,0],[3,0],[0]]","8","0","","","","","","6","","","","",""
"","","","","","single-stim-button","289","3725537","0.0-3.0-34.2-1.2","636598a7a571403968d03bf2","F1","batch6","tol_toboard","638","","","","","","","","","tol_peg_2","638","638","0","[[3,0,0],[2,1],[0]]","3","[[2,1,0],[3,0],[0]]","8","0","","","","","","6","","","","",""
"","","","","","single-stim-button","290","3726549","0.0-3.0-34.3-0.3","636598a7a571403968d03bf2","F1","batch6","tol_tohand","1010","","","","","","","","","tol_peg_1","1010","1010","0","[[0,0,0],[2,1],[0]]","4","[[2,1,0],[3,0],[0]]","8","0","","","","","","6","","","","",""
"","","","","","single-stim-button","291","3727590","0.0-3.0-34.3-1.3","636598a7a571403968d03bf2","F1","batch6","tol_toboard","1041","","","","","","","","","tol_peg_3","1041","1041","0","[[0,0,0],[2,1],[3]]","4","[[2,1,0],[3,0],[0]]","8","0","","","","","","6","","","","",""
"","","","","","single-stim-button","292","3732543","0.0-3.0-34.4-0.4","636598a7a571403968d03bf2","F1","batch6","tol_tohand","4952","","","","","","","","","tol_peg_2","4952","4952","0","[[0,0,0],[2,0],[3]]","5","[[2,1,0],[3,0],[0]]","8","0","","","","","","6","","","","",""
"","","","","","single-stim-button","293","3733263","0.0-3.0-34.4-1.4","636598a7a571403968d03bf2","F1","batch6","tol_toboard","720","","","","","","","","","tol_peg_1","720","720","0","[[1,0,0],[2,0],[3]]","5","[[2,1,0],[3,0],[0]]","8","0","","","","","","6","","","","",""
"","","","","","single-stim-button","294","3734035","0.0-3.0-34.5-0.5","636598a7a571403968d03bf2","F1","batch6","tol_tohand","772","","","","","","","","","tol_peg_3","772","772","0","[[1,0,0],[2,0],[0]]","6","[[2,1,0],[3,0],[0]]","8","0","","","","","","6","","","","",""
"","","","","","single-stim-button","295","3735223","0.0-3.0-34.5-1.5","636598a7a571403968d03bf2","F1","batch6","tol_toboard","1187","","","","","","","","","tol_peg_1","1187","1187","0","[[1,3,0],[2,0],[0]]","6","[[2,1,0],[3,0],[0]]","8","0","","","","","","6","","","","",""
"","","","","","single-stim-button","296","3735815","0.0-3.0-34.6-0.6","636598a7a571403968d03bf2","F1","batch6","tol_tohand","592","","","","","","","","","tol_peg_2","592","592","0","[[1,3,0],[0,0],[0]]","7","[[2,1,0],[3,0],[0]]","8","0","","","","","","6","","","","",""
"","","","","","single-stim-button","297","3736493","0.0-3.0-34.6-1.6","636598a7a571403968d03bf2","F1","batch6","tol_toboard","678","","","","","","","","","tol_peg_3","678","678","0","[[1,3,0],[0,0],[2]]","7","[[2,1,0],[3,0],[0]]","8","0","","","","","","6","","","","",""
"","","","","","single-stim-button","298","3737410","0.0-3.0-34.7-0.7","636598a7a571403968d03bf2","F1","batch6","tol_tohand","917","","","","","","","","","tol_peg_1","917","917","0","[[1,0,0],[0,0],[2]]","8","[[2,1,0],[3,0],[0]]","8","0","","","","","","6","","","","",""
"","","","","","single-stim-button","299","3738075","0.0-3.0-34.7-1.7","636598a7a571403968d03bf2","F1","batch6","tol_toboard","664","","","","","","","","","tol_peg_2","664","664","0","[[1,0,0],[3,0],[2]]","8","[[2,1,0],[3,0],[0]]","8","0","","","","","","6","","","","",""
"","","","","","single-stim-button","300","3738797","0.0-3.0-34.8-0.8","636598a7a571403968d03bf2","F1","batch6","tol_tohand","721","","","","","","","","","tol_peg_1","721","721","0","[[0,0,0],[3,0],[2]]","9","[[2,1,0],[3,0],[0]]","8","0","","","","","","6","","","","",""
"","","","","","single-stim-button","301","3739409","0.0-3.0-34.8-1.8","636598a7a571403968d03bf2","F1","batch6","tol_toboard","612","","","","","","","","","tol_peg_2","612","612","0","[[0,0,0],[3,1],[2]]","9","[[2,1,0],[3,0],[0]]","8","0","","","","","","6","","","","",""
"","","","","","single-stim-button","302","3740045","0.0-3.0-34.9-0.9","636598a7a571403968d03bf2","F1","batch6","tol_tohand","635","","","","","","","","","tol_peg_3","635","635","0","[[0,0,0],[3,1],[0]]","10","[[2,1,0],[3,0],[0]]","8","0","","","","","","6","","","","",""
"","","","","","single-stim-button","303","3740729","0.0-3.0-34.9-1.9","636598a7a571403968d03bf2","F1","batch6","tol_toboard","684","","","","","","","","","tol_peg_1","684","684","0","[[2,0,0],[3,1],[0]]","10","[[2,1,0],[3,0],[0]]","8","0","","","","","","6","","","","",""
"","","","","","single-stim-button","304","3741264","0.0-3.0-34.10-0.10","636598a7a571403968d03bf2","F1","batch6","tol_tohand","534","","","","","","","","","tol_peg_2","534","534","0","[[2,0,0],[3,0],[0]]","11","[[2,1,0],[3,0],[0]]","8","0","","","","","","6","","","","",""
"","","","","","single-stim-button","305","3741901","0.0-3.0-34.10-1.10","636598a7a571403968d03bf2","F1","batch6","tol_toboard","636","","","","","","","","","tol_peg_1","636","636","0","[[2,1,0],[3,0],[0]]","11","[[2,1,0],[3,0],[0]]","8","0","","","","","","6","","","","",""
"","","","","","poldrack-single-stim","306","3742916","0.0-3.0-35.0","636598a7a571403968d03bf2","F1","batch6","tol_feedback","-1","","","","","true","","","","","1000","1000","500","","","","","","-1","none","true","4562","16448","","","","","",""
"","","","","","html-button-response","307","3743885","0.0-3.0-36.0","636598a7a571403968d03bf2","F1","batch6","tol_trial_num","967","<div class = centerbox><p class = center-block-text>problem <strong>10</strong> out of 25 problems</p></div>","0","","","","","","","","","","","","","","","","","","","","","","","","","",""
"","","","","","single-stim-button","308","3746961","0.0-3.0-37.0-0.0","636598a7a571403968d03bf2","F1","batch6","tol_tohand","3076","","","","","","","","","tol_peg_2","3076","3076","0","[[3,0,0],[0,0],[2]]","1","[[3,0,0],[2,1],[0]]","9","0","","","","","","3","","","","",""
"","","","","","single-stim-button","309","3747857","0.0-3.0-37.0-1.0","636598a7a571403968d03bf2","F1","batch6","tol_toboard","896","","","","","","","","","tol_peg_1","896","896","0","[[3,1,0],[0,0],[2]]","1","[[3,0,0],[2,1],[0]]","9","0","","","","","","3","","","","",""
"","","","","","single-stim-button","310","3748812","0.0-3.0-37.1-0.1","636598a7a571403968d03bf2","F1","batch6","tol_tohand","955","","","","","","","","","tol_peg_3","955","955","0","[[3,1,0],[0,0],[0]]","2","[[3,0,0],[2,1],[0]]","9","0","","","","","","3","","","","",""
"","","","","","single-stim-button","311","3749448","0.0-3.0-37.1-1.1","636598a7a571403968d03bf2","F1","batch6","tol_toboard","635","","","","","","","","","tol_peg_2","635","635","0","[[3,1,0],[2,0],[0]]","2","[[3,0,0],[2,1],[0]]","9","0","","","","","","3","","","","",""
"","","","","","single-stim-button","312","3750861","0.0-3.0-37.2-0.2","636598a7a571403968d03bf2","F1","batch6","tol_tohand","1411","","","","","","","","","tol_peg_1","1411","1411","0","[[3,0,0],[2,0],[0]]","3","[[3,0,0],[2,1],[0]]","9","0","","","","","","3","","","","",""
"","","","","","single-stim-button","313","3751341","0.0-3.0-37.2-1.2","636598a7a571403968d03bf2","F1","batch6","tol_toboard","479","","","","","","","","","tol_peg_2","479","479","0","[[3,0,0],[2,1],[0]]","3","[[3,0,0],[2,1],[0]]","9","0","","","","","","3","","","","",""
"","","","","","poldrack-single-stim","314","3752353","0.0-3.0-38.0","636598a7a571403968d03bf2","F1","batch6","tol_feedback","-1","","","","","true","","","","","1000","1000","500","","","","","","-1","none","true","3076","5442","","","","","",""
"","","","","","html-button-response","315","3753479","0.0-3.0-39.0","636598a7a571403968d03bf2","F1","batch6","tol_trial_num","1125","<div class = centerbox><p class = center-block-text>problem <strong>11</strong> out of 25 problems</p></div>","0","","","","","","","","","","","","","","","","","","","","","","","","","",""
"","","","","","single-stim-button","316","3755702","0.0-3.0-40.0-0.0","636598a7a571403968d03bf2","F1","batch6","tol_tohand","2222","","","","","","","","","tol_peg_2","2222","2222","0","[[1,2,0],[0,0],[0]]","1","[[2,0,0],[1,3],[0]]","10","0","","","","","","6","","","","",""
"","","","","","single-stim-button","317","3756429","0.0-3.0-40.0-1.0","636598a7a571403968d03bf2","F1","batch6","tol_toboard","727","","","","","","","","","tol_peg_3","727","727","0","[[1,2,0],[0,0],[3]]","1","[[2,0,0],[1,3],[0]]","10","0","","","","","","6","","","","",""
"","","","","","single-stim-button","318","3758191","0.0-3.0-40.1-0.1","636598a7a571403968d03bf2","F1","batch6","tol_tohand","1761","","","","","","","","","tol_peg_1","1761","1761","0","[[1,0,0],[0,0],[3]]","2","[[2,0,0],[1,3],[0]]","10","0","","","","","","6","","","","",""
"","","","","","single-stim-button","319","3762611","0.0-3.0-40.1-1.1","636598a7a571403968d03bf2","F1","batch6","tol_toboard","4419","","","","","","","","","tol_peg_2","4419","4419","0","[[1,0,0],[2,0],[3]]","2","[[2,0,0],[1,3],[0]]","10","0","","","","","","6","","","","",""
"","","","","","single-stim-button","320","3763298","0.0-3.0-40.2-0.2","636598a7a571403968d03bf2","F1","batch6","tol_tohand","687","","","","","","","","","tol_peg_3","687","687","0","[[1,0,0],[2,0],[0]]","3","[[2,0,0],[1,3],[0]]","10","0","","","","","","6","","","","",""
"","","","","","single-stim-button","321","3764067","0.0-3.0-40.2-1.2","636598a7a571403968d03bf2","F1","batch6","tol_toboard","768","","","","","","","","","tol_peg_1","768","768","0","[[1,3,0],[2,0],[0]]","3","[[2,0,0],[1,3],[0]]","10","0","","","","","","6","","","","",""
"","","","","","single-stim-button","322","3764841","0.0-3.0-40.3-0.3","636598a7a571403968d03bf2","F1","batch6","tol_tohand","773","","","","","","","","","tol_peg_2","773","773","0","[[1,3,0],[0,0],[0]]","4","[[2,0,0],[1,3],[0]]","10","0","","","","","","6","","","","",""
"","","","","","single-stim-button","323","3765562","0.0-3.0-40.3-1.3","636598a7a571403968d03bf2","F1","batch6","tol_toboard","720","","","","","","","","","tol_peg_3","720","720","0","[[1,3,0],[0,0],[2]]","4","[[2,0,0],[1,3],[0]]","10","0","","","","","","6","","","","",""
"","","","","","single-stim-button","324","3766563","0.0-3.0-40.4-0.4","636598a7a571403968d03bf2","F1","batch6","tol_tohand","999","","","","","","","","","tol_peg_1","999","999","0","[[1,0,0],[0,0],[2]]","5","[[2,0,0],[1,3],[0]]","10","0","","","","","","6","","","","",""
"","","","","","single-stim-button","325","3767184","0.0-3.0-40.4-1.4","636598a7a571403968d03bf2","F1","batch6","tol_toboard","619","","","","","","","","","tol_peg_2","619","619","0","[[1,0,0],[3,0],[2]]","5","[[2,0,0],[1,3],[0]]","10","0","","","","","","6","","","","",""
"","","","","","single-stim-button","326","3767837","0.0-3.0-40.5-0.5","636598a7a571403968d03bf2","F1","batch6","tol_tohand","653","","","","","","","","","tol_peg_1","653","653","0","[[0,0,0],[3,0],[2]]","6","[[2,0,0],[1,3],[0]]","10","0","","","","","","6","","","","",""
"","","","","","single-stim-button","327","3768505","0.0-3.0-40.5-1.5","636598a7a571403968d03bf2","F1","batch6","tol_toboard","667","","","","","","","","","tol_peg_2","667","667","0","[[0,0,0],[3,1],[2]]","6","[[2,0,0],[1,3],[0]]","10","0","","","","","","6","","","","",""
"","","","","","single-stim-button","328","3769125","0.0-3.0-40.6-0.6","636598a7a571403968d03bf2","F1","batch6","tol_tohand","620","","","","","","","","","tol_peg_3","620","620","0","[[0,0,0],[3,1],[0]]","7","[[2,0,0],[1,3],[0]]","10","0","","","","","","6","","","","",""
"","","","","","single-stim-button","329","3769803","0.0-3.0-40.6-1.6","636598a7a571403968d03bf2","F1","batch6","tol_toboard","678","","","","","","","","","tol_peg_1","678","678","0","[[2,0,0],[3,1],[0]]","7","[[2,0,0],[1,3],[0]]","10","0","","","","","","6","","","","",""
"","","","","","single-stim-button","330","3770537","0.0-3.0-40.7-0.7","636598a7a571403968d03bf2","F1","batch6","tol_tohand","734","","","","","","","","","tol_peg_2","734","734","0","[[2,0,0],[3,0],[0]]","8","[[2,0,0],[1,3],[0]]","10","0","","","","","","6","","","","",""
"","","","","","single-stim-button","331","3771189","0.0-3.0-40.7-1.7","636598a7a571403968d03bf2","F1","batch6","tol_toboard","652","","","","","","","","","tol_peg_1","652","652","0","[[2,1,0],[3,0],[0]]","8","[[2,0,0],[1,3],[0]]","10","0","","","","","","6","","","","",""
"","","","","","single-stim-button","332","3771757","0.0-3.0-40.8-0.8","636598a7a571403968d03bf2","F1","batch6","tol_tohand","566","","","","","","","","","tol_peg_2","566","566","0","[[2,1,0],[0,0],[0]]","9","[[2,0,0],[1,3],[0]]","10","0","","","","","","6","","","","",""
"","","","","","single-stim-button","333","3772429","0.0-3.0-40.8-1.8","636598a7a571403968d03bf2","F1","batch6","tol_toboard","672","","","","","","","","","tol_peg_3","672","672","0","[[2,1,0],[0,0],[3]]","9","[[2,0,0],[1,3],[0]]","10","0","","","","","","6","","","","",""
"","","","","","single-stim-button","334","3773933","0.0-3.0-40.9-0.9","636598a7a571403968d03bf2","F1","batch6","tol_tohand","1504","","","","","","","","","tol_peg_1","1504","1504","0","[[2,0,0],[0,0],[3]]","10","[[2,0,0],[1,3],[0]]","10","0","","","","","","6","","","","",""
"","","","","","single-stim-button","335","3774623","0.0-3.0-40.9-1.9","636598a7a571403968d03bf2","F1","batch6","tol_toboard","689","","","","","","","","","tol_peg_2","689","689","0","[[2,0,0],[1,0],[3]]","10","[[2,0,0],[1,3],[0]]","10","0","","","","","","6","","","","",""
"","","","","","single-stim-button","336","3775961","0.0-3.0-40.10-0.10","636598a7a571403968d03bf2","F1","batch6","tol_tohand","1337","","","","","","","","","tol_peg_3","1337","1337","0","[[2,0,0],[1,0],[0]]","11","[[2,0,0],[1,3],[0]]","10","0","","","","","","6","","","","",""
"","","","","","single-stim-button","337","3776687","0.0-3.0-40.10-1.10","636598a7a571403968d03bf2","F1","batch6","tol_toboard","725","","","","","","","","","tol_peg_2","725","725","0","[[2,0,0],[1,3],[0]]","11","[[2,0,0],[1,3],[0]]","10","0","","","","","","6","","","","",""
"","","","","","poldrack-single-stim","338","3777687","0.0-3.0-41.0","636598a7a571403968d03bf2","F1","batch6","tol_feedback","-1","","","","","true","","","","","1000","1000","500","","","","","","-1","none","true","2222","11856","","","","","",""
"","","","","","html-button-response","339","3778796","0.0-3.0-42.0","636598a7a571403968d03bf2","F1","batch6","tol_trial_num","1109","<div class = centerbox><p class = center-block-text>problem <strong>12</strong> out of 25 problems</p></div>","0","","","","","","","","","","","","","","","","","","","","","","","","","",""
"","","","","","single-stim-button","340","3781081","0.0-3.0-43.0-0.0","636598a7a571403968d03bf2","F1","batch6","tol_tohand","2284","","","","","","","","","tol_peg_2","2284","2284","0","[[1,2,0],[0,0],[0]]","1","[[2,3,0],[0,0],[1]]","11","0","","","","","","4","","","","",""
"","","","","","single-stim-button","341","3788067","0.0-3.0-43.0-1.0","636598a7a571403968d03bf2","F1","batch6","tol_toboard","6986","","","","","","","","","tol_peg_2","6986","6986","0","[[1,2,0],[3,0],[0]]","1","[[2,3,0],[0,0],[1]]","11","0","","","","","","4","","","","",""
"","","","","","single-stim-button","342","3788583","0.0-3.0-43.1-0.1","636598a7a571403968d03bf2","F1","batch6","tol_tohand","515","","","","","","","","","tol_peg_1","515","515","0","[[1,0,0],[3,0],[0]]","2","[[2,3,0],[0,0],[1]]","11","0","","","","","","4","","","","",""
"","","","","","single-stim-button","343","3789216","0.0-3.0-43.1-1.1","636598a7a571403968d03bf2","F1","batch6","tol_toboard","631","","","","","","","","","tol_peg_2","631","631","0","[[1,0,0],[3,2],[0]]","2","[[2,3,0],[0,0],[1]]","11","0","","","","","","4","","","","",""
"","","","","","single-stim-button","344","3789892","0.0-3.0-43.2-0.2","636598a7a571403968d03bf2","F1","batch6","tol_tohand","676","","","","","","","","","tol_peg_1","676","676","0","[[0,0,0],[3,2],[0]]","3","[[2,3,0],[0,0],[1]]","11","0","","","","","","4","","","","",""
"","","","","","single-stim-button","345","3791067","0.0-3.0-43.2-1.2","636598a7a571403968d03bf2","F1","batch6","tol_toboard","1174","","","","","","","","","tol_peg_3","1174","1174","0","[[0,0,0],[3,2],[1]]","3","[[2,3,0],[0,0],[1]]","11","0","","","","","","4","","","","",""
"","","","","","single-stim-button","346","3811397","0.0-3.0-43.3-0.3","636598a7a571403968d03bf2","F1","batch6","tol_tohand","20329","","","","","","","","","tol_peg_2","20329","20329","0","[[0,0,0],[3,0],[1]]","4","[[2,3,0],[0,0],[1]]","11","0","","","","","","4","","","","",""
"","","","","","single-stim-button","347","3812265","0.0-3.0-43.3-1.3","636598a7a571403968d03bf2","F1","batch6","tol_toboard","867","","","","","","","","","tol_peg_1","867","867","0","[[2,0,0],[3,0],[1]]","4","[[2,3,0],[0,0],[1]]","11","0","","","","","","4","","","","",""
"","","","","","single-stim-button","348","3812807","0.0-3.0-43.4-0.4","636598a7a571403968d03bf2","F1","batch6","tol_tohand","541","","","","","","","","","tol_peg_2","541","541","0","[[2,0,0],[0,0],[1]]","5","[[2,3,0],[0,0],[1]]","11","0","","","","","","4","","","","",""
"","","","","","single-stim-button","349","3813539","0.0-3.0-43.4-1.4","636598a7a571403968d03bf2","F1","batch6","tol_toboard","731","","","","","","","","","tol_peg_1","731","731","0","[[2,3,0],[0,0],[1]]","5","[[2,3,0],[0,0],[1]]","11","0","","","","","","4","","","","",""
"","","","","","poldrack-single-stim","350","3814550","0.0-3.0-44.0","636598a7a571403968d03bf2","F1","batch6","tol_feedback","-1","","","","","true","","","","","1000","1000","500","","","","","","-1","none","true","2284","24345","","","","","",""
"","","","","","html-button-response","351","3815745","0.0-3.0-45.0","636598a7a571403968d03bf2","F1","batch6","tol_trial_num","1195","<div class = centerbox><p class = center-block-text>problem <strong>13</strong> out of 25 problems</p></div>","0","","","","","","","","","","","","","","","","","","","","","","","","","",""
"","","","","","single-stim-button","352","3817831","0.0-3.0-46.0-0.0","636598a7a571403968d03bf2","F1","batch6","tol_tohand","2086","","","","","","","","","tol_peg_1","2086","2086","0","[[1,0,0],[3,0],[0]]","1","[[0,0,0],[2,3],[1]]","12","0","","","","","","4","","","","",""
"","","","","","single-stim-button","353","3818629","0.0-3.0-46.0-1.0","636598a7a571403968d03bf2","F1","batch6","tol_toboard","798","","","","","","","","","tol_peg_2","798","798","0","[[1,0,0],[3,2],[0]]","1","[[0,0,0],[2,3],[1]]","12","0","","","","","","4","","","","",""
"","","","","","single-stim-button","354","3819522","0.0-3.0-46.1-0.1","636598a7a571403968d03bf2","F1","batch6","tol_tohand","892","","","","","","","","","tol_peg_1","892","892","0","[[0,0,0],[3,2],[0]]","2","[[0,0,0],[2,3],[1]]","12","0","","","","","","4","","","","",""
"","","","","","single-stim-button","355","3823261","0.0-3.0-46.1-1.1","636598a7a571403968d03bf2","F1","batch6","tol_toboard","3739","","","","","","","","","tol_peg_3","3739","3739","0","[[0,0,0],[3,2],[1]]","2","[[0,0,0],[2,3],[1]]","12","0","","","","","","4","","","","",""
"","","","","","single-stim-button","356","3825409","0.0-3.0-46.2-0.2","636598a7a571403968d03bf2","F1","batch6","tol_tohand","2146","","","","","","","","","tol_peg_2","2146","2146","0","[[0,0,0],[3,0],[1]]","3","[[0,0,0],[2,3],[1]]","12","0","","","","","","4","","","","",""
"","","","","","single-stim-button","357","3826377","0.0-3.0-46.2-1.2","636598a7a571403968d03bf2","F1","batch6","tol_toboard","967","","","","","","","","","tol_peg_1","967","967","0","[[2,0,0],[3,0],[1]]","3","[[0,0,0],[2,3],[1]]","12","0","","","","","","4","","","","",""
"","","","","","single-stim-button","358","3827811","0.0-3.0-46.3-0.3","636598a7a571403968d03bf2","F1","batch6","tol_tohand","1433","","","","","","","","","tol_peg_3","1433","1433","0","[[2,0,0],[3,0],[0]]","4","[[0,0,0],[2,3],[1]]","12","0","","","","","","4","","","","",""
"","","","","","single-stim-button","359","3828743","0.0-3.0-46.3-1.3","636598a7a571403968d03bf2","F1","batch6","tol_toboard","930","","","","","","","","","tol_peg_1","930","930","0","[[2,1,0],[3,0],[0]]","4","[[0,0,0],[2,3],[1]]","12","0","","","","","","4","","","","",""
