"success","timeout","failed_images","failed_audio","failed_video","trial_type","trial_index","time_elapsed","internal_node_id","subject_id","study_id","session_id","view_history","rt","task","stimulus","response","correct","mouse_click","stim_duration","block_duration","timing_post_trial","current_position","tol_num_moves_made","tol_target","tol_problem_id","tol_rt","key_press","possible_responses","tol_correct","preplanning","tol_rt_per_trial","tol_min_moves","answer","item","fiar_detect_rt","fiar_detect_correct","total_correct_fiar_detect","post_trial_gap","choices","spm_correct","spm_rt"
"true","false","[]","[]","[]","preload","0","25791","0.0-0.0","6365593d8f35fcb8f68d982a","C3","batch3","","","","","","","","","","","","","","","","","","","","","","","","","","","","","",""
"true","","","","","fullscreen","1","35783","0.0-1.0-0.0","6365593d8f35fcb8f68d982a","C3","batch3","","","","","","","","","","","","","","","","","","","","","","","","","","","","","",""
"true","","","","","fullscreen","2","40502","0.0-2.0-0.0","6365593d8f35fcb8f68d982a","C3","batch3","","","","","","","","","","","","","","","","","","","","","","","","","","","","","",""
"","","","","","instructions","3","123401","0.0-2.0-1.0-0.0-0.0","6365593d8f35fcb8f68d982a","C3","batch3","[{""page_index"":0,""viewing_time"":10927.699999999255},{""page_index"":1,""viewing_time"":10566.699999999255},{""page_index"":2,""viewing_time"":11171.60000000149},{""page_index"":3,""viewing_time"":15624},{""page_index"":4,""viewing_time"":14659.599999997765},{""page_index"":5,""viewing_time"":15817.800000000745},{""page_index"":6,""viewing_time"":4123.60000000149}]","82892.29999999702","tol-instructions","","","","","","","","","","","","","","","","","","","","","","","","","","",""
"","","","","","html-button-response","4","124822","0.0-2.0-1.0-1.0-0.0","6365593d8f35fcb8f68d982a","C3","batch3","","1413.6000000014901","tol_enter_quiz","<p class=block-text> Let's answer a few questions <br>","0","","","","","","","","","","","","","","","","","","","","","","","","",""
"","","","","","html-button-response","5","132374","0.0-2.0-1.0-1.0-1.0","6365593d8f35fcb8f68d982a","C3","batch3","","7547.70000000298","tol_quiz","<p class = block-text>True or False: You can only move the ball on top of a peg. <br></p>","0","true","","","","","","","","","","","","","","","","","","","","","","","",""
"","","","","","html-button-response","6","134557","0.0-2.0-1.0-1.0-2.0","6365593d8f35fcb8f68d982a","C3","batch3","","2176.599999997765","tol_quiz_feedback","<p class = block-text>Correct! You can only move the ball on top of a peg.</p>","0","","","","","","","","","","","","","","","","","","","","","","","","",""
"","","","","","html-button-response","7","138178","0.0-2.0-1.0-1.0-3.0","6365593d8f35fcb8f68d982a","C3","batch3","","3615.599999997765","tol_quiz","<p class = block-text>True or False: You should try to match your board with the target board with fewest moves possible. <br></p>","0","true","","","","","","","","","","","","","","","","","","","","","","","",""
"","","","","","html-button-response","8","139350","0.0-2.0-1.0-1.0-4.0","6365593d8f35fcb8f68d982a","C3","batch3","","1166.3999999985099","tol_quiz_feedback","<p class = block-text>Correct! </p>","0","","","","","","","","","","","","","","","","","","","","","","","","",""
"","","","","","html-button-response","9","146201","0.0-2.0-2.0","6365593d8f35fcb8f68d982a","C3","batch3","","6845.300000000745","","<p class=block-text> Now that you've understood the game, let's practice a few easier examples before we start!<br> <br>","0","","","","","","","","","","","","","","","","","","","","","","","","",""
"","","","","","single-stim-button","10","150850","0.0-2.0-3.0-0.0","6365593d8f35fcb8f68d982a","C3","batch3","","4641","tol_practice","","","","tol_peg_2","4641","4641","0","[[1,2,0],[0,0],[0]]","1","[[1,2,0],[0,0],[3]]","practice","4641","","","","","","","","","","","","","","",""
"","","","","","single-stim-button","11","151668","0.0-2.0-3.0-1.0","6365593d8f35fcb8f68d982a","C3","batch3","","813","tol_practice","","","","tol_peg_3","813","813","0","[[1,2,0],[0,0],[3]]","1","[[1,2,0],[0,0],[3]]","practice","813","","","","","","","","","","","","","","",""
"","","","","","poldrack-single-stim","12","152678","0.0-2.0-4.0","6365593d8f35fcb8f68d982a","C3","batch3","","-1","tol_feedback","","","true","","1000","1000","500","","","","","","-1","none","true","","0","","","","","","","","","",""
"","","","","","single-stim-button","13","159086","0.0-2.0-5.0-0.0","6365593d8f35fcb8f68d982a","C3","batch3","","6402","tol_practice","","","","tol_peg_1","6402","6402","0","[[1,0,0],[3,0],[0]]","2","[[0,0,0],[3,1],[2]]","practice","6402","","","","","","","","","","","","","","",""
"","","","","","single-stim-button","14","160514","0.0-2.0-5.0-1.0","6365593d8f35fcb8f68d982a","C3","batch3","","1426","tol_practice","","","","tol_peg_3","1426","1426","0","[[1,0,0],[3,0],[2]]","2","[[0,0,0],[3,1],[2]]","practice","1426","","","","","","","","","","","","","","",""
"","","","","","single-stim-button","15","161183","0.0-2.0-5.1-0.1","6365593d8f35fcb8f68d982a","C3","batch3","","664","tol_practice","","","","tol_peg_1","664","664","0","[[0,0,0],[3,0],[2]]","3","[[0,0,0],[3,1],[2]]","practice","664","","","","","","","","","","","","","","",""
"","","","","","single-stim-button","16","161848","0.0-2.0-5.1-1.1","6365593d8f35fcb8f68d982a","C3","batch3","","662","tol_practice","","","","tol_peg_2","662","662","0","[[0,0,0],[3,1],[2]]","3","[[0,0,0],[3,1],[2]]","practice","662","","","","","","","","","","","","","","",""
"","","","","","poldrack-single-stim","17","162854","0.0-2.0-6.0","6365593d8f35fcb8f68d982a","C3","batch3","","-1","tol_feedback","","","true","","1000","1000","500","","","","","","-1","none","true","","0","","","","","","","","","",""
"","","","","","single-stim-button","18","166344","0.0-2.0-7.0-0.0","6365593d8f35fcb8f68d982a","C3","batch3","","3485","tol_practice","","","","tol_peg_2","3485","3485","0","[[1,2,0],[0,0],[0]]","4","[[1,0,0],[2,0],[3]]","practice","3485","","","","","","","","","","","","","","",""
"","","","","","single-stim-button","19","167027","0.0-2.0-7.0-1.0","6365593d8f35fcb8f68d982a","C3","batch3","","678","tol_practice","","","","tol_peg_3","678","678","0","[[1,2,0],[0,0],[3]]","4","[[1,0,0],[2,0],[3]]","practice","678","","","","","","","","","","","","","","",""
"","","","","","single-stim-button","20","168082","0.0-2.0-7.1-0.1","6365593d8f35fcb8f68d982a","C3","batch3","","1051","tol_practice","","","","tol_peg_1","1051","1051","0","[[1,0,0],[0,0],[3]]","5","[[1,0,0],[2,0],[3]]","practice","1051","","","","","","","","","","","","","","",""
"","","","","","single-stim-button","21","168512","0.0-2.0-7.1-1.1","6365593d8f35fcb8f68d982a","C3","batch3","","427","tol_practice","","","","tol_peg_2","427","427","0","[[1,0,0],[2,0],[3]]","5","[[1,0,0],[2,0],[3]]","practice","427","","","","","","","","","","","","","","",""
"","","","","","poldrack-single-stim","22","169517","0.0-2.0-8.0","6365593d8f35fcb8f68d982a","C3","batch3","","-1","tol_feedback","","","true","","1000","1000","500","","","","","","-1","none","true","","0","","","","","","","","","",""
"","","","","","html-button-response","23","172855","0.0-2.0-9.0","6365593d8f35fcb8f68d982a","C3","batch3","","3332.89999999851","tol_instruction","<div class = centerbox><p class = center-block-text>Great job! You are done with practice trials<br>You are about to start official trials.<br> <br> Problem <strong>1</strong> out of 25 problems</p></div>","0","","","","","","","","","","","","","","","","","","","","","","","","",""
"","","","","","single-stim-button","24","181505","0.0-2.0-10.0-0.0","6365593d8f35fcb8f68d982a","C3","batch3","","7645","tol_tohand","","","","tol_peg_1","7645","7645","0","[[1,0,0],[3,0],[0]]","1","[[1,3,0],[2,0],[0]]","0","0","","","","","","3","","","","","","","","",""
"","","","","","single-stim-button","25","183540","0.0-2.0-10.0-1.0","6365593d8f35fcb8f68d982a","C3","batch3","","2033","tol_toboard","","","","tol_peg_3","2033","2033","0","[[1,0,0],[3,0],[2]]","1","[[1,3,0],[2,0],[0]]","0","0","","","","","","3","","","","","","","","",""
"","","","","","single-stim-button","26","184315","0.0-2.0-10.1-0.1","6365593d8f35fcb8f68d982a","C3","batch3","","772","tol_tohand","","","","tol_peg_2","772","772","0","[[1,0,0],[0,0],[2]]","2","[[1,3,0],[2,0],[0]]","0","0","","","","","","3","","","","","","","","",""
"","","","","","single-stim-button","27","184890","0.0-2.0-10.1-1.1","6365593d8f35fcb8f68d982a","C3","batch3","","573","tol_toboard","","","","tol_peg_1","573","573","0","[[1,3,0],[0,0],[2]]","2","[[1,3,0],[2,0],[0]]","0","0","","","","","","3","","","","","","","","",""
"","","","","","single-stim-button","28","185430","0.0-2.0-10.2-0.2","6365593d8f35fcb8f68d982a","C3","batch3","","539","tol_tohand","","","","tol_peg_3","539","539","0","[[1,3,0],[0,0],[0]]","3","[[1,3,0],[2,0],[0]]","0","0","","","","","","3","","","","","","","","",""
"","","","","","single-stim-button","29","185815","0.0-2.0-10.2-1.2","6365593d8f35fcb8f68d982a","C3","batch3","","382","tol_toboard","","","","tol_peg_2","382","382","0","[[1,3,0],[2,0],[0]]","3","[[1,3,0],[2,0],[0]]","0","0","","","","","","3","","","","","","","","",""
"","","","","","poldrack-single-stim","30","186819","0.0-2.0-11.0","6365593d8f35fcb8f68d982a","C3","batch3","","-1","tol_feedback","","","true","","1000","1000","500","","","","","","-1","none","true","7645","8956","","","","","","","","","",""
"","","","","","html-button-response","31","188233","0.0-2.0-12.0","6365593d8f35fcb8f68d982a","C3","batch3","","1408.1000000014901","tol_trial_num","<div class = centerbox><p class = center-block-text>problem <strong>2</strong> out of 25 problems</p></div>","0","","","","","","","","","","","","","","","","","","","","","","","","",""
"","","","","","single-stim-button","32","206257","0.0-2.0-13.0-0.0","6365593d8f35fcb8f68d982a","C3","batch3","","18019","tol_tohand","","","","tol_peg_1","18019","18019","0","[[1,0,0],[3,0],[0]]","1","[[2,1,3],[0,0],[0]]","1","0","","","","","","5","","","","","","","","",""
"","","","","","single-stim-button","33","206766","0.0-2.0-13.0-1.0","6365593d8f35fcb8f68d982a","C3","batch3","","508","tol_toboard","","","","tol_peg_2","508","508","0","[[1,0,0],[3,2],[0]]","1","[[2,1,3],[0,0],[0]]","1","0","","","","","","5","","","","","","","","",""
"","","","","","single-stim-button","34","207448","0.0-2.0-13.1-0.1","6365593d8f35fcb8f68d982a","C3","batch3","","679","tol_tohand","","","","tol_peg_1","679","679","0","[[0,0,0],[3,2],[0]]","2","[[2,1,3],[0,0],[0]]","1","0","","","","","","5","","","","","","","","",""
"","","","","","single-stim-button","35","209366","0.0-2.0-13.1-1.1","6365593d8f35fcb8f68d982a","C3","batch3","","1915","tol_toboard","","","","tol_peg_3","1915","1915","0","[[0,0,0],[3,2],[1]]","2","[[2,1,3],[0,0],[0]]","1","0","","","","","","5","","","","","","","","",""
"","","","","","single-stim-button","36","210568","0.0-2.0-13.2-0.2","6365593d8f35fcb8f68d982a","C3","batch3","","1200","tol_tohand","","","","tol_peg_2","1200","1200","0","[[0,0,0],[3,0],[1]]","3","[[2,1,3],[0,0],[0]]","1","0","","","","","","5","","","","","","","","",""
"","","","","","single-stim-button","37","211626","0.0-2.0-13.2-1.2","6365593d8f35fcb8f68d982a","C3","batch3","","1056","tol_toboard","","","","tol_peg_1","1056","1056","0","[[2,0,0],[3,0],[1]]","3","[[2,1,3],[0,0],[0]]","1","0","","","","","","5","","","","","","","","",""
"","","","","","single-stim-button","38","212450","0.0-2.0-13.3-0.3","6365593d8f35fcb8f68d982a","C3","batch3","","821","tol_tohand","","","","tol_peg_3","821","821","0","[[2,0,0],[3,0],[0]]","4","[[2,1,3],[0,0],[0]]","1","0","","","","","","5","","","","","","","","",""
"","","","","","single-stim-button","39","212847","0.0-2.0-13.3-1.3","6365593d8f35fcb8f68d982a","C3","batch3","","394","tol_toboard","","","","tol_peg_1","394","394","0","[[2,1,0],[3,0],[0]]","4","[[2,1,3],[0,0],[0]]","1","0","","","","","","5","","","","","","","","",""
"","","","","","single-stim-button","40","213301","0.0-2.0-13.4-0.4","6365593d8f35fcb8f68d982a","C3","batch3","","451","tol_tohand","","","","tol_peg_2","451","451","0","[[2,1,0],[0,0],[0]]","5","[[2,1,3],[0,0],[0]]","1","0","","","","","","5","","","","","","","","",""
"","","","","","single-stim-button","41","213639","0.0-2.0-13.4-1.4","6365593d8f35fcb8f68d982a","C3","batch3","","336","tol_toboard","","","","tol_peg_1","336","336","0","[[2,1,3],[0,0],[0]]","5","[[2,1,3],[0,0],[0]]","1","0","","","","","","5","","","","","","","","",""
"","","","","","poldrack-single-stim","42","214643","0.0-2.0-14.0","6365593d8f35fcb8f68d982a","C3","batch3","","-1","tol_feedback","","","true","","1000","1000","500","","","","","","-1","none","true","18019","21170","","","","","","","","","",""
"","","","","","html-button-response","43","215996","0.0-2.0-15.0","6365593d8f35fcb8f68d982a","C3","batch3","","1348.2000000029802","tol_trial_num","<div class = centerbox><p class = center-block-text>problem <strong>3</strong> out of 25 problems</p></div>","0","","","","","","","","","","","","","","","","","","","","","","","","",""
"","","","","","single-stim-button","44","226033","0.0-2.0-16.0-0.0","6365593d8f35fcb8f68d982a","C3","batch3","","10034","tol_tohand","","","","tol_peg_1","10034","10034","0","[[2,0,0],[0,0],[1]]","1","[[1,2,0],[3,0],[0]]","2","0","","","","","","4","","","","","","","","",""
"","","","","","single-stim-button","45","226533","0.0-2.0-16.0-1.0","6365593d8f35fcb8f68d982a","C3","batch3","","498","tol_toboard","","","","tol_peg_2","498","498","0","[[2,0,0],[3,0],[1]]","1","[[1,2,0],[3,0],[0]]","2","0","","","","","","4","","","","","","","","",""
"","","","","","single-stim-button","46","227166","0.0-2.0-16.1-0.1","6365593d8f35fcb8f68d982a","C3","batch3","","629","tol_tohand","","","","tol_peg_1","629","629","0","[[0,0,0],[3,0],[1]]","2","[[1,2,0],[3,0],[0]]","2","0","","","","","","4","","","","","","","","",""
"","","","","","single-stim-button","47","227632","0.0-2.0-16.1-1.1","6365593d8f35fcb8f68d982a","C3","batch3","","462","tol_toboard","","","","tol_peg_2","462","462","0","[[0,0,0],[3,2],[1]]","2","[[1,2,0],[3,0],[0]]","2","0","","","","","","4","","","","","","","","",""
"","","","","","single-stim-button","48","228192","0.0-2.0-16.2-0.2","6365593d8f35fcb8f68d982a","C3","batch3","","558","tol_tohand","","","","tol_peg_3","558","558","0","[[0,0,0],[3,2],[0]]","3","[[1,2,0],[3,0],[0]]","2","0","","","","","","4","","","","","","","","",""
"","","","","","single-stim-button","49","228641","0.0-2.0-16.2-1.2","6365593d8f35fcb8f68d982a","C3","batch3","","445","tol_toboard","","","","tol_peg_1","445","445","0","[[1,0,0],[3,2],[0]]","3","[[1,2,0],[3,0],[0]]","2","0","","","","","","4","","","","","","","","",""
"","","","","","single-stim-button","50","229073","0.0-2.0-16.3-0.3","6365593d8f35fcb8f68d982a","C3","batch3","","430","tol_tohand","","","","tol_peg_2","430","430","0","[[1,0,0],[3,0],[0]]","4","[[1,2,0],[3,0],[0]]","2","0","","","","","","4","","","","","","","","",""
"","","","","","single-stim-button","51","229325","0.0-2.0-16.3-1.3","6365593d8f35fcb8f68d982a","C3","batch3","","248","tol_toboard","","","","tol_peg_1","248","248","0","[[1,2,0],[3,0],[0]]","4","[[1,2,0],[3,0],[0]]","2","0","","","","","","4","","","","","","","","",""
"","","","","","poldrack-single-stim","52","230330","0.0-2.0-17.0","6365593d8f35fcb8f68d982a","C3","batch3","","-1","tol_feedback","","","true","","1000","1000","500","","","","","","-1","none","true","10034","11651","","","","","","","","","",""
"","","","","","html-button-response","53","231267","0.0-2.0-18.0","6365593d8f35fcb8f68d982a","C3","batch3","","932.3000000007451","tol_trial_num","<div class = centerbox><p class = center-block-text>problem <strong>4</strong> out of 25 problems</p></div>","0","","","","","","","","","","","","","","","","","","","","","","","","",""
"","","","","","single-stim-button","54","238401","0.0-2.0-19.0-0.0","6365593d8f35fcb8f68d982a","C3","batch3","","7130","tol_tohand","","","","tol_peg_2","7130","7130","0","[[3,0,0],[2,0],[0]]","1","[[3,0,0],[1,0],[2]]","3","0","","","","","","3","","","","","","","","",""
"","","","","","single-stim-button","55","238841","0.0-2.0-19.0-1.0","6365593d8f35fcb8f68d982a","C3","batch3","","438","tol_toboard","","","","tol_peg_1","438","438","0","[[3,1,0],[2,0],[0]]","1","[[3,0,0],[1,0],[2]]","3","0","","","","","","3","","","","","","","","",""
"","","","","","single-stim-button","56","239301","0.0-2.0-19.1-0.1","6365593d8f35fcb8f68d982a","C3","batch3","","457","tol_tohand","","","","tol_peg_2","457","457","0","[[3,1,0],[0,0],[0]]","2","[[3,0,0],[1,0],[2]]","3","0","","","","","","3","","","","","","","","",""
"","","","","","single-stim-button","57","239637","0.0-2.0-19.1-1.1","6365593d8f35fcb8f68d982a","C3","batch3","","333","tol_toboard","","","","tol_peg_3","333","333","0","[[3,1,0],[0,0],[2]]","2","[[3,0,0],[1,0],[2]]","3","0","","","","","","3","","","","","","","","",""
"","","","","","single-stim-button","58","240043","0.0-2.0-19.2-0.2","6365593d8f35fcb8f68d982a","C3","batch3","","403","tol_tohand","","","","tol_peg_1","403","403","0","[[3,0,0],[0,0],[2]]","3","[[3,0,0],[1,0],[2]]","3","0","","","","","","3","","","","","","","","",""
"","","","","","single-stim-button","59","240373","0.0-2.0-19.2-1.2","6365593d8f35fcb8f68d982a","C3","batch3","","328","tol_toboard","","","","tol_peg_2","328","328","0","[[3,0,0],[1,0],[2]]","3","[[3,0,0],[1,0],[2]]","3","0","","","","","","3","","","","","","","","",""
"","","","","","poldrack-single-stim","60","241381","0.0-2.0-20.0","6365593d8f35fcb8f68d982a","C3","batch3","","-1","tol_feedback","","","true","","1000","1000","500","","","","","","-1","none","true","7130","7990","","","","","","","","","",""
"","","","","","html-button-response","61","242272","0.0-2.0-21.0","6365593d8f35fcb8f68d982a","C3","batch3","","885.5","tol_trial_num","<div class = centerbox><p class = center-block-text>problem <strong>5</strong> out of 25 problems</p></div>","0","","","","","","","","","","","","","","","","","","","","","","","","",""
"","","","","","single-stim-button","62","277931","0.0-2.0-22.0-0.0","6365593d8f35fcb8f68d982a","C3","batch3","","35656","tol_tohand","","","","tol_peg_3","35656","35656","0","[[1,0,0],[2,0],[0]]","1","[[0,0,0],[1,2],[3]]","4","0","","","","","","7","","","","","","","","",""
"","","","","","single-stim-button","63","278327","0.0-2.0-22.0-1.0","6365593d8f35fcb8f68d982a","C3","batch3","","393","tol_toboard","","","","tol_peg_2","393","393","0","[[1,0,0],[2,3],[0]]","1","[[0,0,0],[1,2],[3]]","4","0","","","","","","7","","","","","","","","",""
"","","","","","single-stim-button","64","278834","0.0-2.0-22.1-0.1","6365593d8f35fcb8f68d982a","C3","batch3","","504","tol_tohand","","","","tol_peg_1","504","504","0","[[0,0,0],[2,3],[0]]","2","[[0,0,0],[1,2],[3]]","4","0","","","","","","7","","","","","","","","",""
"","","","","","single-stim-button","65","279309","0.0-2.0-22.1-1.1","6365593d8f35fcb8f68d982a","C3","batch3","","473","tol_toboard","","","","tol_peg_3","473","473","0","[[0,0,0],[2,3],[1]]","2","[[0,0,0],[1,2],[3]]","4","0","","","","","","7","","","","","","","","",""
"","","","","","single-stim-button","66","287747","0.0-2.0-22.2-0.2","6365593d8f35fcb8f68d982a","C3","batch3","","8435","tol_tohand","","","","tol_peg_2","8435","8435","0","[[0,0,0],[2,0],[1]]","3","[[0,0,0],[1,2],[3]]","4","0","","","","","","7","","","","","","","","",""
"","","","","","single-stim-button","67","288241","0.0-2.0-22.2-1.2","6365593d8f35fcb8f68d982a","C3","batch3","","489","tol_toboard","","","","tol_peg_1","489","489","0","[[3,0,0],[2,0],[1]]","3","[[0,0,0],[1,2],[3]]","4","0","","","","","","7","","","","","","","","",""
"","","","","","single-stim-button","68","288785","0.0-2.0-22.3-0.3","6365593d8f35fcb8f68d982a","C3","batch3","","540","tol_tohand","","","","tol_peg_2","540","540","0","[[3,0,0],[0,0],[1]]","4","[[0,0,0],[1,2],[3]]","4","0","","","","","","7","","","","","","","","",""
"","","","","","single-stim-button","69","289178","0.0-2.0-22.3-1.3","6365593d8f35fcb8f68d982a","C3","batch3","","390","tol_toboard","","","","tol_peg_1","390","390","0","[[3,2,0],[0,0],[1]]","4","[[0,0,0],[1,2],[3]]","4","0","","","","","","7","","","","","","","","",""
"","","","","","single-stim-button","70","290553","0.0-2.0-22.4-0.4","6365593d8f35fcb8f68d982a","C3","batch3","","1371","tol_tohand","","","","tol_peg_3","1371","1371","0","[[3,2,0],[0,0],[0]]","5","[[0,0,0],[1,2],[3]]","4","0","","","","","","7","","","","","","","","",""
"","","","","","single-stim-button","71","291090","0.0-2.0-22.4-1.4","6365593d8f35fcb8f68d982a","C3","batch3","","533","tol_toboard","","","","tol_peg_2","533","533","0","[[3,2,0],[1,0],[0]]","5","[[0,0,0],[1,2],[3]]","4","0","","","","","","7","","","","","","","","",""
"","","","","","single-stim-button","72","291696","0.0-2.0-22.5-0.5","6365593d8f35fcb8f68d982a","C3","batch3","","604","tol_tohand","","","","tol_peg_1","604","604","0","[[3,0,0],[1,0],[0]]","6","[[0,0,0],[1,2],[3]]","4","0","","","","","","7","","","","","","","","",""
"","","","","","single-stim-button","73","292060","0.0-2.0-22.5-1.5","6365593d8f35fcb8f68d982a","C3","batch3","","362","tol_toboard","","","","tol_peg_2","362","362","0","[[3,0,0],[1,2],[0]]","6","[[0,0,0],[1,2],[3]]","4","0","","","","","","7","","","","","","","","",""
"","","","","","single-stim-button","74","292632","0.0-2.0-22.6-0.6","6365593d8f35fcb8f68d982a","C3","batch3","","569","tol_tohand","","","","tol_peg_1","569","569","0","[[0,0,0],[1,2],[0]]","7","[[0,0,0],[1,2],[3]]","4","0","","","","","","7","","","","","","","","",""
"","","","","","single-stim-button","75","293091","0.0-2.0-22.6-1.6","6365593d8f35fcb8f68d982a","C3","batch3","","457","tol_toboard","","","","tol_peg_3","457","457","0","[[0,0,0],[1,2],[3]]","7","[[0,0,0],[1,2],[3]]","4","0","","","","","","7","","","","","","","","",""
"","","","","","poldrack-single-stim","76","294095","0.0-2.0-23.0","6365593d8f35fcb8f68d982a","C3","batch3","","-1","tol_feedback","","","true","","1000","1000","500","","","","","","-1","none","true","35656","47679","","","","","","","","","",""
"","","","","","html-button-response","77","295095","0.0-2.0-24.0","6365593d8f35fcb8f68d982a","C3","batch3","","997.0999999977648","tol_trial_num","<div class = centerbox><p class = center-block-text>problem <strong>6</strong> out of 25 problems</p></div>","0","","","","","","","","","","","","","","","","","","","","","","","","",""
"","","","","","single-stim-button","78","325821","0.0-2.0-25.0-0.0","6365593d8f35fcb8f68d982a","C3","batch3","","30722","tol_tohand","","","","tol_peg_2","30722","30722","0","[[0,0,0],[1,0],[3]]","1","[[1,0,0],[2,3],[0]]","5","0","","","","","","6","","","","","","","","",""
"","","","","","single-stim-button","79","326342","0.0-2.0-25.0-1.0","6365593d8f35fcb8f68d982a","C3","batch3","","518","tol_toboard","","","","tol_peg_1","518","518","0","[[2,0,0],[1,0],[3]]","1","[[1,0,0],[2,3],[0]]","5","0","","","","","","6","","","","","","","","",""
"","","","","","single-stim-button","80","327032","0.0-2.0-25.1-0.1","6365593d8f35fcb8f68d982a","C3","batch3","","688","tol_tohand","","","","tol_peg_3","688","688","0","[[2,0,0],[1,0],[0]]","2","[[1,0,0],[2,3],[0]]","5","0","","","","","","6","","","","","","","","",""
"","","","","","single-stim-button","81","327572","0.0-2.0-25.1-1.1","6365593d8f35fcb8f68d982a","C3","batch3","","537","tol_toboard","","","","tol_peg_1","537","537","0","[[2,3,0],[1,0],[0]]","2","[[1,0,0],[2,3],[0]]","5","0","","","","","","6","","","","","","","","",""
"","","","","","single-stim-button","82","328910","0.0-2.0-25.2-0.2","6365593d8f35fcb8f68d982a","C3","batch3","","1335","tol_tohand","","","","tol_peg_2","1335","1335","0","[[2,3,0],[0,0],[0]]","3","[[1,0,0],[2,3],[0]]","5","0","","","","","","6","","","","","","","","",""
"","","","","","single-stim-button","83","332294","0.0-2.0-25.2-1.2","6365593d8f35fcb8f68d982a","C3","batch3","","3382","tol_toboard","","","","tol_peg_3","3382","3382","0","[[2,3,0],[0,0],[1]]","3","[[1,0,0],[2,3],[0]]","5","0","","","","","","6","","","","","","","","",""
"","","","","","single-stim-button","84","333369","0.0-2.0-25.3-0.3","6365593d8f35fcb8f68d982a","C3","batch3","","1072","tol_tohand","","","","tol_peg_1","1072","1072","0","[[2,0,0],[0,0],[1]]","4","[[1,0,0],[2,3],[0]]","5","0","","","","","","6","","","","","","","","",""
"","","","","","single-stim-button","85","333645","0.0-2.0-25.3-1.3","6365593d8f35fcb8f68d982a","C3","batch3","","273","tol_toboard","","","","tol_peg_2","273","273","0","[[2,0,0],[3,0],[1]]","4","[[1,0,0],[2,3],[0]]","5","0","","","","","","6","","","","","","","","",""
"","","","","","single-stim-button","86","334069","0.0-2.0-25.4-0.4","6365593d8f35fcb8f68d982a","C3","batch3","","422","tol_tohand","","","","tol_peg_1","422","422","0","[[0,0,0],[3,0],[1]]","5","[[1,0,0],[2,3],[0]]","5","0","","","","","","6","","","","","","","","",""
"","","","","","single-stim-button","87","334347","0.0-2.0-25.4-1.4","6365593d8f35fcb8f68d982a","C3","batch3","","276","tol_toboard","","","","tol_peg_2","276","276","0","[[0,0,0],[3,2],[1]]","5","[[1,0,0],[2,3],[0]]","5","0","","","","","","6","","","","","","","","",""
"","","","","","single-stim-button","88","338044","0.0-2.0-25.5-0.5","6365593d8f35fcb8f68d982a","C3","batch3","","3695","tol_tohand","","","","tol_peg_3","3695","3695","0","[[0,0,0],[3,2],[0]]","6","[[1,0,0],[2,3],[0]]","5","0","","","","","","6","","","","","","","","",""
"","","","","","single-stim-button","89","339092","0.0-2.0-25.5-1.5","6365593d8f35fcb8f68d982a","C3","batch3","","1046","tol_toboard","","","","tol_peg_1","1046","1046","0","[[1,0,0],[3,2],[0]]","6","[[1,0,0],[2,3],[0]]","5","0","","","","","","6","","","","","","","","",""
"","","","","","single-stim-button","90","344060","0.0-2.0-25.6-0.6","6365593d8f35fcb8f68d982a","C3","batch3","","4966","tol_tohand","","","","tol_peg_2","4966","4966","0","[[1,0,0],[3,0],[0]]","7","[[1,0,0],[2,3],[0]]","5","0","","","","","","6","","","","","","","","",""
"","","","","","single-stim-button","91","344517","0.0-2.0-25.6-1.6","6365593d8f35fcb8f68d982a","C3","batch3","","453","tol_toboard","","","","tol_peg_3","453","453","0","[[1,0,0],[3,0],[2]]","7","[[1,0,0],[2,3],[0]]","5","0","","","","","","6","","","","","","","","",""
"","","","","","single-stim-button","92","344931","0.0-2.0-25.7-0.7","6365593d8f35fcb8f68d982a","C3","batch3","","412","tol_tohand","","","","tol_peg_2","412","412","0","[[1,0,0],[0,0],[2]]","8","[[1,0,0],[2,3],[0]]","5","0","","","","","","6","","","","","","","","",""
"","","","","","single-stim-button","93","345663","0.0-2.0-25.7-1.7","6365593d8f35fcb8f68d982a","C3","batch3","","730","tol_toboard","","","","tol_peg_1","730","730","0","[[1,3,0],[0,0],[2]]","8","[[1,0,0],[2,3],[0]]","5","0","","","","","","6","","","","","","","","",""
"","","","","","single-stim-button","94","346172","0.0-2.0-25.8-0.8","6365593d8f35fcb8f68d982a","C3","batch3","","506","tol_tohand","","","","tol_peg_3","506","506","0","[[1,3,0],[0,0],[0]]","9","[[1,0,0],[2,3],[0]]","5","0","","","","","","6","","","","","","","","",""
"","","","","","single-stim-button","95","346507","0.0-2.0-25.8-1.8","6365593d8f35fcb8f68d982a","C3","batch3","","328","tol_toboard","","","","tol_peg_2","328","328","0","[[1,3,0],[2,0],[0]]","9","[[1,0,0],[2,3],[0]]","5","0","","","","","","6","","","","","","","","",""
"","","","","","single-stim-button","96","346872","0.0-2.0-25.9-0.9","6365593d8f35fcb8f68d982a","C3","batch3","","361","tol_tohand","","","","tol_peg_1","361","361","0","[[1,0,0],[2,0],[0]]","10","[[1,0,0],[2,3],[0]]","5","0","","","","","","6","","","","","","","","",""
"","","","","","single-stim-button","97","347166","0.0-2.0-25.9-1.9","6365593d8f35fcb8f68d982a","C3","batch3","","291","tol_toboard","","","","tol_peg_2","291","291","0","[[1,0,0],[2,3],[0]]","10","[[1,0,0],[2,3],[0]]","5","0","","","","","","6","","","","","","","","",""
"","","","","","poldrack-single-stim","98","348173","0.0-2.0-26.0","6365593d8f35fcb8f68d982a","C3","batch3","","-1","tol_feedback","","","true","","1000","1000","500","","","","","","-1","none","true","30722","44179","","","","","","","","","",""
"","","","","","html-button-response","99","349299","0.0-2.0-27.0","6365593d8f35fcb8f68d982a","C3","batch3","","1121.6000000014901","tol_trial_num","<div class = centerbox><p class = center-block-text>problem <strong>7</strong> out of 25 problems</p></div>","0","","","","","","","","","","","","","","","","","","","","","","","","",""
"","","","","","single-stim-button","100","358275","0.0-2.0-28.0-0.0","6365593d8f35fcb8f68d982a","C3","batch3","","8974","tol_tohand","","","","tol_peg_3","8974","8974","0","[[2,1,0],[0,0],[0]]","1","[[1,2,0],[3,0],[0]]","6","0","","","","","","5","","","","","","","","",""
"","","","","","single-stim-button","101","358735","0.0-2.0-28.0-1.0","6365593d8f35fcb8f68d982a","C3","batch3","","458","tol_toboard","","","","tol_peg_2","458","458","0","[[2,1,0],[3,0],[0]]","1","[[1,2,0],[3,0],[0]]","6","0","","","","","","5","","","","","","","","",""
"","","","","","single-stim-button","102","361850","0.0-2.0-28.1-0.1","6365593d8f35fcb8f68d982a","C3","batch3","","3113","tol_tohand","","","","tol_peg_1","3113","3113","0","[[2,0,0],[3,0],[0]]","2","[[1,2,0],[3,0],[0]]","6","0","","","","","","5","","","","","","","","",""
"","","","","","single-stim-button","103","362359","0.0-2.0-28.1-1.1","6365593d8f35fcb8f68d982a","C3","batch3","","507","tol_toboard","","","","tol_peg_3","507","507","0","[[2,0,0],[3,0],[1]]","2","[[1,2,0],[3,0],[0]]","6","0","","","","","","5","","","","","","","","",""
"","","","","","single-stim-button","104","362786","0.0-2.0-28.2-0.2","6365593d8f35fcb8f68d982a","C3","batch3","","425","tol_tohand","","","","tol_peg_1","425","425","0","[[0,0,0],[3,0],[1]]","3","[[1,2,0],[3,0],[0]]","6","0","","","","","","5","","","","","","","","",""
"","","","","","single-stim-button","105","363117","0.0-2.0-28.2-1.2","6365593d8f35fcb8f68d982a","C3","batch3","","329","tol_toboard","","","","tol_peg_2","329","329","0","[[0,0,0],[3,2],[1]]","3","[[1,2,0],[3,0],[0]]","6","0","","","","","","5","","","","","","","","",""
"","","","","","single-stim-button","106","363672","0.0-2.0-28.3-0.3","6365593d8f35fcb8f68d982a","C3","batch3","","552","tol_tohand","","","","tol_peg_3","552","552","0","[[0,0,0],[3,2],[0]]","4","[[1,2,0],[3,0],[0]]","6","0","","","","","","5","","","","","","","","",""
"","","","","","single-stim-button","107","364006","0.0-2.0-28.3-1.3","6365593d8f35fcb8f68d982a","C3","batch3","","331","tol_toboard","","","","tol_peg_1","331","331","0","[[1,0,0],[3,2],[0]]","4","[[1,2,0],[3,0],[0]]","6","0","","","","","","5","","","","","","","","",""
"","","","","","single-stim-button","108","364397","0.0-2.0-28.4-0.4","6365593d8f35fcb8f68d982a","C3","batch3","","388","tol_tohand","","","","tol_peg_2","388","388","0","[[1,0,0],[3,0],[0]]","5","[[1,2,0],[3,0],[0]]","6","0","","","","","","5","","","","","","","","",""
"","","","","","single-stim-button","109","364630","0.0-2.0-28.4-1.4","6365593d8f35fcb8f68d982a","C3","batch3","","231","tol_toboard","","","","tol_peg_1","231","231","0","[[1,2,0],[3,0],[0]]","5","[[1,2,0],[3,0],[0]]","6","0","","","","","","5","","","","","","","","",""
"","","","","","poldrack-single-stim","110","365635","0.0-2.0-29.0","6365593d8f35fcb8f68d982a","C3","batch3","","-1","tol_feedback","","","true","","1000","1000","500","","","","","","-1","none","true","8974","13452","","","","","","","","","",""
"","","","","","html-button-response","111","366484","0.0-2.0-30.0","6365593d8f35fcb8f68d982a","C3","batch3","","845","tol_trial_num","<div class = centerbox><p class = center-block-text>problem <strong>8</strong> out of 25 problems</p></div>","0","","","","","","","","","","","","","","","","","","","","","","","","",""
"","","","","","single-stim-button","112","377443","0.0-2.0-31.0-0.0","6365593d8f35fcb8f68d982a","C3","batch3","","10955","tol_tohand","","","","tol_peg_3","10955","10955","0","[[0,0,0],[2,3],[0]]","1","[[1,2,0],[3,0],[0]]","7","0","","","","","","4","","","","","","","","",""
"","","","","","single-stim-button","113","378124","0.0-2.0-31.0-1.0","6365593d8f35fcb8f68d982a","C3","batch3","","679","tol_toboard","","","","tol_peg_1","679","679","0","[[1,0,0],[2,3],[0]]","1","[[1,2,0],[3,0],[0]]","7","0","","","","","","4","","","","","","","","",""
"","","","","","single-stim-button","114","378631","0.0-2.0-31.1-0.1","6365593d8f35fcb8f68d982a","C3","batch3","","505","tol_tohand","","","","tol_peg_2","505","505","0","[[1,0,0],[2,0],[0]]","2","[[1,2,0],[3,0],[0]]","7","0","","","","","","4","","","","","","","","",""
"","","","","","single-stim-button","115","379097","0.0-2.0-31.1-1.1","6365593d8f35fcb8f68d982a","C3","batch3","","463","tol_toboard","","","","tol_peg_3","463","463","0","[[1,0,0],[2,0],[3]]","2","[[1,2,0],[3,0],[0]]","7","0","","","","","","4","","","","","","","","",""
"","","","","","single-stim-button","116","379611","0.0-2.0-31.2-0.2","6365593d8f35fcb8f68d982a","C3","batch3","","511","tol_tohand","","","","tol_peg_2","511","511","0","[[1,0,0],[0,0],[3]]","3","[[1,2,0],[3,0],[0]]","7","0","","","","","","4","","","","","","","","",""
"","","","","","single-stim-button","117","379955","0.0-2.0-31.2-1.2","6365593d8f35fcb8f68d982a","C3","batch3","","341","tol_toboard","","","","tol_peg_1","341","341","0","[[1,2,0],[0,0],[3]]","3","[[1,2,0],[3,0],[0]]","7","0","","","","","","4","","","","","","","","",""
"","","","","","single-stim-button","118","380388","0.0-2.0-31.3-0.3","6365593d8f35fcb8f68d982a","C3","batch3","","431","tol_tohand","","","","tol_peg_3","431","431","0","[[1,2,0],[0,0],[0]]","4","[[1,2,0],[3,0],[0]]","7","0","","","","","","4","","","","","","","","",""
"","","","","","single-stim-button","119","380687","0.0-2.0-31.3-1.3","6365593d8f35fcb8f68d982a","C3","batch3","","297","tol_toboard","","","","tol_peg_2","297","297","0","[[1,2,0],[3,0],[0]]","4","[[1,2,0],[3,0],[0]]","7","0","","","","","","4","","","","","","","","",""
"","","","","","poldrack-single-stim","120","381691","0.0-2.0-32.0","6365593d8f35fcb8f68d982a","C3","batch3","","-1","tol_feedback","","","true","","1000","1000","500","","","","","","-1","none","true","10955","12402","","","","","","","","","",""
"","","","","","html-button-response","121","382595","0.0-2.0-33.0","6365593d8f35fcb8f68d982a","C3","batch3","","898","tol_trial_num","<div class = centerbox><p class = center-block-text>problem <strong>9</strong> out of 25 problems</p></div>","0","","","","","","","","","","","","","","","","","","","","","","","","",""
"","","","","","single-stim-button","122","397667","0.0-2.0-34.0-0.0","6365593d8f35fcb8f68d982a","C3","batch3","","15068","tol_tohand","","","","tol_peg_3","15068","15068","0","[[3,2,0],[0,0],[0]]","1","[[2,1,0],[3,0],[0]]","8","0","","","","","","6","","","","","","","","",""
"","","","","","single-stim-button","123","398057","0.0-2.0-34.0-1.0","6365593d8f35fcb8f68d982a","C3","batch3","","388","tol_toboard","","","","tol_peg_2","388","388","0","[[3,2,0],[1,0],[0]]","1","[[2,1,0],[3,0],[0]]","8","0","","","","","","6","","","","","","","","",""
"","","","","","single-stim-button","124","398475","0.0-2.0-34.1-0.1","6365593d8f35fcb8f68d982a","C3","batch3","","415","tol_tohand","","","","tol_peg_1","415","415","0","[[3,0,0],[1,0],[0]]","2","[[2,1,0],[3,0],[0]]","8","0","","","","","","6","","","","","","","","",""
"","","","","","single-stim-button","125","398868","0.0-2.0-34.1-1.1","6365593d8f35fcb8f68d982a","C3","batch3","","391","tol_toboard","","","","tol_peg_2","391","391","0","[[3,0,0],[1,2],[0]]","2","[[2,1,0],[3,0],[0]]","8","0","","","","","","6","","","","","","","","",""
"","","","","","single-stim-button","126","399440","0.0-2.0-34.2-0.2","6365593d8f35fcb8f68d982a","C3","batch3","","570","tol_tohand","","","","tol_peg_1","570","570","0","[[0,0,0],[1,2],[0]]","3","[[2,1,0],[3,0],[0]]","8","0","","","","","","6","","","","","","","","",""
"","","","","","single-stim-button","127","399923","0.0-2.0-34.2-1.2","6365593d8f35fcb8f68d982a","C3","batch3","","481","tol_toboard","","","","tol_peg_3","481","481","0","[[0,0,0],[1,2],[3]]","3","[[2,1,0],[3,0],[0]]","8","0","","","","","","6","","","","","","","","",""
"","","","","","single-stim-button","128","401453","0.0-2.0-34.3-0.3","6365593d8f35fcb8f68d982a","C3","batch3","","1527","tol_tohand","","","","tol_peg_2","1527","1527","0","[[0,0,0],[1,0],[3]]","4","[[2,1,0],[3,0],[0]]","8","0","","","","","","6","","","","","","","","",""
"","","","","","single-stim-button","129","401867","0.0-2.0-34.3-1.3","6365593d8f35fcb8f68d982a","C3","batch3","","411","tol_toboard","","","","tol_peg_1","411","411","0","[[2,0,0],[1,0],[3]]","4","[[2,1,0],[3,0],[0]]","8","0","","","","","","6","","","","","","","","",""
"","","","","","single-stim-button","130","402258","0.0-2.0-34.4-0.4","6365593d8f35fcb8f68d982a","C3","batch3","","389","tol_tohand","","","","tol_peg_2","389","389","0","[[2,0,0],[0,0],[3]]","5","[[2,1,0],[3,0],[0]]","8","0","","","","","","6","","","","","","","","",""
"","","","","","single-stim-button","131","402602","0.0-2.0-34.4-1.4","6365593d8f35fcb8f68d982a","C3","batch3","","340","tol_toboard","","","","tol_peg_1","340","340","0","[[2,1,0],[0,0],[3]]","5","[[2,1,0],[3,0],[0]]","8","0","","","","","","6","","","","","","","","",""
"","","","","","single-stim-button","132","403000","0.0-2.0-34.5-0.5","6365593d8f35fcb8f68d982a","C3","batch3","","395","tol_tohand","","","","tol_peg_3","395","395","0","[[2,1,0],[0,0],[0]]","6","[[2,1,0],[3,0],[0]]","8","0","","","","","","6","","","","","","","","",""
"","","","","","single-stim-button","133","403295","0.0-2.0-34.5-1.5","6365593d8f35fcb8f68d982a","C3","batch3","","293","tol_toboard","","","","tol_peg_2","293","293","0","[[2,1,0],[3,0],[0]]","6","[[2,1,0],[3,0],[0]]","8","0","","","","","","6","","","","","","","","",""
"","","","","","poldrack-single-stim","134","404300","0.0-2.0-35.0","6365593d8f35fcb8f68d982a","C3","batch3","","-1","tol_feedback","","","true","","1000","1000","500","","","","","","-1","none","true","15068","18364","","","","","","","","","",""
"","","","","","html-button-response","135","405077","0.0-2.0-36.0","6365593d8f35fcb8f68d982a","C3","batch3","","772.5","tol_trial_num","<div class = centerbox><p class = center-block-text>problem <strong>10</strong> out of 25 problems</p></div>","0","","","","","","","","","","","","","","","","","","","","","","","","",""
"","","","","","single-stim-button","136","415607","0.0-2.0-37.0-0.0","6365593d8f35fcb8f68d982a","C3","batch3","","10527","tol_tohand","","","","tol_peg_3","10527","10527","0","[[3,0,0],[1,0],[0]]","1","[[3,0,0],[2,1],[0]]","9","0","","","","","","3","","","","","","","","",""
"","","","","","single-stim-button","137","416169","0.0-2.0-37.0-1.0","6365593d8f35fcb8f68d982a","C3","batch3","","560","tol_toboard","","","","tol_peg_1","560","560","0","[[3,2,0],[1,0],[0]]","1","[[3,0,0],[2,1],[0]]","9","0","","","","","","3","","","","","","","","",""
"","","","","","single-stim-button","138","416577","0.0-2.0-37.1-0.1","6365593d8f35fcb8f68d982a","C3","batch3","","406","tol_tohand","","","","tol_peg_2","406","406","0","[[3,2,0],[0,0],[0]]","2","[[3,0,0],[2,1],[0]]","9","0","","","","","","3","","","","","","","","",""
"","","","","","single-stim-button","139","417092","0.0-2.0-37.1-1.1","6365593d8f35fcb8f68d982a","C3","batch3","","513","tol_toboard","","","","tol_peg_3","513","513","0","[[3,2,0],[0,0],[1]]","2","[[3,0,0],[2,1],[0]]","9","0","","","","","","3","","","","","","","","",""
"","","","","","single-stim-button","140","417525","0.0-2.0-37.2-0.2","6365593d8f35fcb8f68d982a","C3","batch3","","430","tol_tohand","","","","tol_peg_1","430","430","0","[[3,0,0],[0,0],[1]]","3","[[3,0,0],[2,1],[0]]","9","0","","","","","","3","","","","","","","","",""
"","","","","","single-stim-button","141","417912","0.0-2.0-37.2-1.2","6365593d8f35fcb8f68d982a","C3","batch3","","384","tol_toboard","","","","tol_peg_2","384","384","0","[[3,0,0],[2,0],[1]]","3","[[3,0,0],[2,1],[0]]","9","0","","","","","","3","","","","","","","","",""
"","","","","","single-stim-button","142","418270","0.0-2.0-37.3-0.3","6365593d8f35fcb8f68d982a","C3","batch3","","355","tol_tohand","","","","tol_peg_3","355","355","0","[[3,0,0],[2,0],[0]]","4","[[3,0,0],[2,1],[0]]","9","0","","","","","","3","","","","","","","","",""
"","","","","","single-stim-button","143","418612","0.0-2.0-37.3-1.3","6365593d8f35fcb8f68d982a","C3","batch3","","339","tol_toboard","","","","tol_peg_2","339","339","0","[[3,0,0],[2,1],[0]]","4","[[3,0,0],[2,1],[0]]","9","0","","","","","","3","","","","","","","","",""
"","","","","","poldrack-single-stim","144","419617","0.0-2.0-38.0","6365593d8f35fcb8f68d982a","C3","batch3","","-1","tol_feedback","","","true","","1000","1000","500","","","","","","-1","none","true","10527","11718","","","","","","","","","",""
"","","","","","html-button-response","145","420401","0.0-2.0-39.0","6365593d8f35fcb8f68d982a","C3","batch3","","779.7000000029802","tol_trial_num","<div class = centerbox><p class = center-block-text>problem <strong>11</strong> out of 25 problems</p></div>","0","","","","","","","","","","","","","","","","","","","","","","","","",""
"","","","","","single-stim-button","146","490236","0.0-2.0-40.0-0.0","6365593d8f35fcb8f68d982a","C3","batch3","","69833","tol_tohand","","","","tol_peg_1","69833","69833","0","[[1,0,0],[3,0],[0]]","1","[[2,0,0],[1,3],[0]]","10","0","","","","","","6","","","","","","","","",""
"","","","","","single-stim-button","147","490582","0.0-2.0-40.0-1.0","6365593d8f35fcb8f68d982a","C3","batch3","","342","tol_toboard","","","","tol_peg_2","342","342","0","[[1,0,0],[3,2],[0]]","1","[[2,0,0],[1,3],[0]]","10","0","","","","","","6","","","","","","","","",""
"","","","","","single-stim-button","148","491219","0.0-2.0-40.1-0.1","6365593d8f35fcb8f68d982a","C3","batch3","","634","tol_tohand","","","","tol_peg_1","634","634","0","[[0,0,0],[3,2],[0]]","2","[[2,0,0],[1,3],[0]]","10","0","","","","","","6","","","","","","","","",""
"","","","","","single-stim-button","149","491762","0.0-2.0-40.1-1.1","6365593d8f35fcb8f68d982a","C3","batch3","","540","tol_toboard","","","","tol_peg_3","540","540","0","[[0,0,0],[3,2],[1]]","2","[[2,0,0],[1,3],[0]]","10","0","","","","","","6","","","","","","","","",""
"","","","","","single-stim-button","150","496303","0.0-2.0-40.2-0.2","6365593d8f35fcb8f68d982a","C3","batch3","","4539","tol_tohand","","","","tol_peg_2","4539","4539","0","[[0,0,0],[3,0],[1]]","3","[[2,0,0],[1,3],[0]]","10","0","","","","","","6","","","","","","","","",""
"","","","","","single-stim-button","151","496752","0.0-2.0-40.2-1.2","6365593d8f35fcb8f68d982a","C3","batch3","","443","tol_toboard","","","","tol_peg_1","443","443","0","[[2,0,0],[3,0],[1]]","3","[[2,0,0],[1,3],[0]]","10","0","","","","","","6","","","","","","","","",""
"","","","","","single-stim-button","152","497280","0.0-2.0-40.3-0.3","6365593d8f35fcb8f68d982a","C3","batch3","","525","tol_tohand","","","","tol_peg_2","525","525","0","[[2,0,0],[0,0],[1]]","4","[[2,0,0],[1,3],[0]]","10","0","","","","","","6","","","","","","","","",""
"","","","","","single-stim-button","153","497793","0.0-2.0-40.3-1.3","6365593d8f35fcb8f68d982a","C3","batch3","","511","tol_toboard","","","","tol_peg_1","511","511","0","[[2,3,0],[0,0],[1]]","4","[[2,0,0],[1,3],[0]]","10","0","","","","","","6","","","","","","","","",""
"","","","","","single-stim-button","154","498212","0.0-2.0-40.4-0.4","6365593d8f35fcb8f68d982a","C3","batch3","","417","tol_tohand","","","","tol_peg_3","417","417","0","[[2,3,0],[0,0],[0]]","5","[[2,0,0],[1,3],[0]]","10","0","","","","","","6","","","","","","","","",""
"","","","","","single-stim-button","155","498599","0.0-2.0-40.4-1.4","6365593d8f35fcb8f68d982a","C3","batch3","","385","tol_toboard","","","","tol_peg_2","385","385","0","[[2,3,0],[1,0],[0]]","5","[[2,0,0],[1,3],[0]]","10","0","","","","","","6","","","","","","","","",""
"","","","","","single-stim-button","156","498974","0.0-2.0-40.5-0.5","6365593d8f35fcb8f68d982a","C3","batch3","","373","tol_tohand","","","","tol_peg_1","373","373","0","[[2,0,0],[1,0],[0]]","6","[[2,0,0],[1,3],[0]]","10","0","","","","","","6","","","","","","","","",""
"","","","","","single-stim-button","157","499287","0.0-2.0-40.5-1.5","6365593d8f35fcb8f68d982a","C3","batch3","","311","tol_toboard","","","","tol_peg_2","311","311","0","[[2,0,0],[1,3],[0]]","6","[[2,0,0],[1,3],[0]]","10","0","","","","","","6","","","","","","","","",""
"","","","","","poldrack-single-stim","158","500292","0.0-2.0-41.0","6365593d8f35fcb8f68d982a","C3","batch3","","-1","tol_feedback","","","true","","1000","1000","500","","","","","","-1","none","true","69833","76321","","","","","","","","","",""
"","","","","","html-button-response","159","504772","0.0-2.0-42.0","6365593d8f35fcb8f68d982a","C3","batch3","","4476.5","tol_trial_num","<div class = centerbox><p class = center-block-text>problem <strong>12</strong> out of 25 problems</p></div>","0","","","","","","","","","","","","","","","","","","","","","","","","",""
"","","","","","single-stim-button","160","513501","0.0-2.0-43.0-0.0","6365593d8f35fcb8f68d982a","C3","batch3","","8726","tol_tohand","","","","tol_peg_1","8726","8726","0","[[1,0,0],[3,0],[0]]","1","[[2,3,0],[0,0],[1]]","11","0","","","","","","4","","","","","","","","",""
"","","","","","single-stim-button","161","514068","0.0-2.0-43.0-1.0","6365593d8f35fcb8f68d982a","C3","batch3","","564","tol_toboard","","","","tol_peg_2","564","564","0","[[1,0,0],[3,2],[0]]","1","[[2,3,0],[0,0],[1]]","11","0","","","","","","4","","","","","","","","",""
"","","","","","single-stim-button","162","514697","0.0-2.0-43.1-0.1","6365593d8f35fcb8f68d982a","C3","batch3","","626","tol_tohand","","","","tol_peg_1","626","626","0","[[0,0,0],[3,2],[0]]","2","[[2,3,0],[0,0],[1]]","11","0","","","","","","4","","","","","","","","",""
"","","","","","single-stim-button","163","515182","0.0-2.0-43.1-1.1","6365593d8f35fcb8f68d982a","C3","batch3","","482","tol_toboard","","","","tol_peg_3","482","482","0","[[0,0,0],[3,2],[1]]","2","[[2,3,0],[0,0],[1]]","11","0","","","","","","4","","","","","","","","",""
"","","","","","single-stim-button","164","515686","0.0-2.0-43.2-0.2","6365593d8f35fcb8f68d982a","C3","batch3","","502","tol_tohand","","","","tol_peg_2","502","502","0","[[0,0,0],[3,0],[1]]","3","[[2,3,0],[0,0],[1]]","11","0","","","","","","4","","","","","","","","",""
"","","","","","single-stim-button","165","515974","0.0-2.0-43.2-1.2","6365593d8f35fcb8f68d982a","C3","batch3","","286","tol_toboard","","","","tol_peg_1","286","286","0","[[2,0,0],[3,0],[1]]","3","[[2,3,0],[0,0],[1]]","11","0","","","","","","4","","","","","","","","",""
"","","","","","single-stim-button","166","516311","0.0-2.0-43.3-0.3","6365593d8f35fcb8f68d982a","C3","batch3","","334","tol_tohand","","","","tol_peg_2","334","334","0","[[2,0,0],[0,0],[1]]","4","[[2,3,0],[0,0],[1]]","11","0","","","","","","4","","","","","","","","",""
"","","","","","single-stim-button","167","516575","0.0-2.0-43.3-1.3","6365593d8f35fcb8f68d982a","C3","batch3","","262","tol_toboard","","","","tol_peg_1","262","262","0","[[2,3,0],[0,0],[1]]","4","[[2,3,0],[0,0],[1]]","11","0","","","","","","4","","","","","","","","",""
"","","","","","poldrack-single-stim","168","517580","0.0-2.0-44.0","6365593d8f35fcb8f68d982a","C3","batch3","","-1","tol_feedback","","","true","","1000","1000","500","","","","","","-1","none","true","8726","10188","","","","","","","","","",""
"","","","","","html-button-response","169","518324","0.0-2.0-45.0","6365593d8f35fcb8f68d982a","C3","batch3","","738.6000000014901","tol_trial_num","<div class = centerbox><p class = center-block-text>problem <strong>13</strong> out of 25 problems</p></div>","0","","","","","","","","","","","","","","","","","","","","","","","","",""
"","","","","","single-stim-button","170","527382","0.0-2.0-46.0-0.0","6365593d8f35fcb8f68d982a","C3","batch3","","9056","tol_tohand","","","","tol_peg_1","9056","9056","0","[[1,0,0],[3,0],[0]]","1","[[0,0,0],[2,3],[1]]","12","0","","","","","","4","","","","","","","","",""
"","","","","","single-stim-button","171","527860","0.0-2.0-46.0-1.0","6365593d8f35fcb8f68d982a","C3","batch3","","475","tol_toboard","","","","tol_peg_3","475","475","0","[[1,0,0],[3,0],[2]]","1","[[0,0,0],[2,3],[1]]","12","0","","","","","","4","","","","","","","","",""
"","","","","","single-stim-button","172","528819","0.0-2.0-46.1-0.1","6365593d8f35fcb8f68d982a","C3","batch3","","956","tol_tohand","","","","tol_peg_2","956","956","0","[[1,0,0],[0,0],[2]]","2","[[0,0,0],[2,3],[1]]","12","0","","","","","","4","","","","","","","","",""
"","","","","","single-stim-button","173","529210","0.0-2.0-46.1-1.1","6365593d8f35fcb8f68d982a","C3","batch3","","389","tol_toboard","","","","tol_peg_1","389","389","0","[[1,3,0],[0,0],[2]]","2","[[0,0,0],[2,3],[1]]","12","0","","","","","","4","","","","","","","","",""
"","","","","","single-stim-button","174","529674","0.0-2.0-46.2-0.2","6365593d8f35fcb8f68d982a","C3","batch3","","462","tol_tohand","","","","tol_peg_3","462","462","0","[[1,3,0],[0,0],[0]]","3","[[0,0,0],[2,3],[1]]","12","0","","","","","","4","","","","","","","","",""
"","","","","","single-stim-button","175","530047","0.0-2.0-46.2-1.2","6365593d8f35fcb8f68d982a","C3","batch3","","369","tol_toboard","","","","tol_peg_2","369","369","0","[[1,3,0],[2,0],[0]]","3","[[0,0,0],[2,3],[1]]","12","0","","","","","","4","","","","","","","","",""
"","","","","","single-stim-button","176","530405","0.0-2.0-46.3-0.3","6365593d8f35fcb8f68d982a","C3","batch3","","356","tol_tohand","","","","tol_peg_1","356","356","0","[[1,0,0],[2,0],[0]]","4","[[0,0,0],[2,3],[1]]","12","0","","","","","","4","","","","","","","","",""
"","","","","","single-stim-button","177","530721","0.0-2.0-46.3-1.3","6365593d8f35fcb8f68d982a","C3","batch3","","313","tol_toboard","","","","tol_peg_2","313","313","0","[[1,0,0],[2,3],[0]]","4","[[0,0,0],[2,3],[1]]","12","0","","","","","","4","","","","","","","","",""
"","","","","","single-stim-button","178","531073","0.0-2.0-46.4-0.4","6365593d8f35fcb8f68d982a","C3","batch3","","349","tol_tohand","","","","tol_peg_1","349","349","0","[[0,0,0],[2,3],[0]]","5","[[0,0,0],[2,3],[1]]","12","0","","","","","","4","","","","","","","","",""
"","","","","","single-stim-button","179","531439","0.0-2.0-46.4-1.4","6365593d8f35fcb8f68d982a","C3","batch3","","364","tol_toboard","","","","tol_peg_3","364","364","0","[[0,0,0],[2,3],[1]]","5","[[0,0,0],[2,3],[1]]","12","0","","","","","","4","","","","","","","","",""
"","","","","","poldrack-single-stim","180","532443","0.0-2.0-47.0","6365593d8f35fcb8f68d982a","C3","batch3","","-1","tol_feedback","","","true","","1000","1000","500","","","","","","-1","none","true","9056","11179","","","","","","","","","",""
"","","","","","html-button-response","181","535314","0.0-2.0-48.0","6365593d8f35fcb8f68d982a","C3","batch3","","2865.300000000745","attention_check","<p class = block-text>How many balls are in your board<br></p>","1","true","","","","","","","","","","","","","","","","","","","","","","","",""
"","","","","","html-button-response","182","536220","0.0-2.0-49.0","6365593d8f35fcb8f68d982a","C3","batch3","","903.3999999985099","tol_trial_num","<div class = centerbox><p class = center-block-text>problem <strong>14</strong> out of 25 problems</p></div>","0","","","","","","","","","","","","","","","","","","","","","","","","",""
"","","","","","single-stim-button","183","543298","0.0-2.0-50.0-0.0","6365593d8f35fcb8f68d982a","C3","batch3","","7073","tol_tohand","","","","tol_peg_1","7073","7073","0","[[2,0,0],[3,0],[0]]","1","[[1,2,0],[3,0],[0]]","13","0","","","","","","4","","","","","","","","",""
"","","","","","single-stim-button","184","543859","0.0-2.0-50.0-1.0","6365593d8f35fcb8f68d982a","C3","batch3","","559","tol_toboard","","","","tol_peg_3","559","559","0","[[2,0,0],[3,0],[1]]","1","[[1,2,0],[3,0],[0]]","13","0","","","","","","4","","","","","","","","",""
"","","","","","single-stim-button","185","544295","0.0-2.0-50.1-0.1","6365593d8f35fcb8f68d982a","C3","batch3","","434","tol_tohand","","","","tol_peg_1","434","434","0","[[0,0,0],[3,0],[1]]","2","[[1,2,0],[3,0],[0]]","13","0","","","","","","4","","","","","","","","",""
"","","","","","single-stim-button","186","545204","0.0-2.0-50.1-1.1","6365593d8f35fcb8f68d982a","C3","batch3","","907","tol_toboard","","","","tol_peg_2","907","907","0","[[0,0,0],[3,2],[1]]","2","[[1,2,0],[3,0],[0]]","13","0","","","","","","4","","","","","","","","",""
"","","","","","single-stim-button","187","545611","0.0-2.0-50.2-0.2","6365593d8f35fcb8f68d982a","C3","batch3","","404","tol_tohand","","","","tol_peg_3","404","404","0","[[0,0,0],[3,2],[0]]","3","[[1,2,0],[3,0],[0]]","13","0","","","","","","4","","","","","","","","",""
"","","","","","single-stim-button","188","546007","0.0-2.0-50.2-1.2","6365593d8f35fcb8f68d982a","C3","batch3","","393","tol_toboard","","","","tol_peg_1","393","393","0","[[1,0,0],[3,2],[0]]","3","[[1,2,0],[3,0],[0]]","13","0","","","","","","4","","","","","","","","",""
"","","","","","single-stim-button","189","546485","0.0-2.0-50.3-0.3","6365593d8f35fcb8f68d982a","C3","batch3","","476","tol_tohand","","","","tol_peg_2","476","476","0","[[1,0,0],[3,0],[0]]","4","[[1,2,0],[3,0],[0]]","13","0","","","","","","4","","","","","","","","",""
"","","","","","single-stim-button","190","546741","0.0-2.0-50.3-1.3","6365593d8f35fcb8f68d982a","C3","batch3","","251","tol_toboard","","","","tol_peg_1","251","251","0","[[1,2,0],[3,0],[0]]","4","[[1,2,0],[3,0],[0]]","13","0","","","","","","4","","","","","","","","",""
"","","","","","poldrack-single-stim","191","547745","0.0-2.0-51.0","6365593d8f35fcb8f68d982a","C3","batch3","","-1","tol_feedback","","","true","","1000","1000","500","","","","","","-1","none","true","7073","8387","","","","","","","","","",""
"","","","","","html-button-response","192","549057","0.0-2.0-52.0","6365593d8f35fcb8f68d982a","C3","batch3","","1307","tol_trial_num","<div class = centerbox><p class = center-block-text>problem <strong>15</strong> out of 25 problems</p></div>","0","","","","","","","","","","","","","","","","","","","","","","","","",""
"","","","","","single-stim-button","193","555311","0.0-2.0-53.0-0.0","6365593d8f35fcb8f68d982a","C3","batch3","","6253","tol_tohand","","","","tol_peg_1","6253","6253","0","[[1,0,0],[3,0],[0]]","1","[[2,0,0],[3,0],[1]]","14","0","","","","","","3","","","","","","","","",""
"","","","","","single-stim-button","194","555941","0.0-2.0-53.0-1.0","6365593d8f35fcb8f68d982a","C3","batch3","","627","tol_toboard","","","","tol_peg_2","627","627","0","[[1,0,0],[3,2],[0]]","1","[[2,0,0],[3,0],[1]]","14","0","","","","","","3","","","","","","","","",""
"","","","","","single-stim-button","195","556393","0.0-2.0-53.1-0.1","6365593d8f35fcb8f68d982a","C3","batch3","","450","tol_tohand","","","","tol_peg_1","450","450","0","[[0,0,0],[3,2],[0]]","2","[[2,0,0],[3,0],[1]]","14","0","","","","","","3","","","","","","","","",""
"","","","","","single-stim-button","196","556792","0.0-2.0-53.1-1.1","6365593d8f35fcb8f68d982a","C3","batch3","","395","tol_toboard","","","","tol_peg_3","395","395","0","[[0,0,0],[3,2],[1]]","2","[[2,0,0],[3,0],[1]]","14","0","","","","","","3","","","","","","","","",""
"","","","","","single-stim-button","197","557230","0.0-2.0-53.2-0.2","6365593d8f35fcb8f68d982a","C3","batch3","","436","tol_tohand","","","","tol_peg_2","436","436","0","[[0,0,0],[3,0],[1]]","3","[[2,0,0],[3,0],[1]]","14","0","","","","","","3","","","","","","","","",""
"","","","","","single-stim-button","198","557615","0.0-2.0-53.2-1.2","6365593d8f35fcb8f68d982a","C3","batch3","","383","tol_toboard","","","","tol_peg_1","383","383","0","[[2,0,0],[3,0],[1]]","3","[[2,0,0],[3,0],[1]]","14","0","","","","","","3","","","","","","","","",""
"","","","","","poldrack-single-stim","199","558619","0.0-2.0-54.0","6365593d8f35fcb8f68d982a","C3","batch3","","-1","tol_feedback","","","true","","1000","1000","500","","","","","","-1","none","true","6253","7139","","","","","","","","","",""
"","","","","","html-button-response","200","599469","0.0-2.0-55.0","6365593d8f35fcb8f68d982a","C3","batch3","","40845.699999999255","tol_trial_num","<div class = centerbox><p class = center-block-text>problem <strong>16</strong> out of 25 problems</p></div>","0","","","","","","","","","","","","","","","","","","","","","","","","",""
"","","","","","single-stim-button","201","609788","0.0-2.0-56.0-0.0","6365593d8f35fcb8f68d982a","C3","batch3","","10316","tol_tohand","","","","tol_peg_3","10316","10316","0","[[0,0,0],[2,3],[0]]","1","[[2,3,0],[1,0],[0]]","15","0","","","","","","7","","","","","","","","",""
"","","","","","single-stim-button","202","633292","0.0-2.0-56.0-1.0","6365593d8f35fcb8f68d982a","C3","batch3","","23501","tol_toboard","","","","tol_peg_1","23501","23501","0","[[1,0,0],[2,3],[0]]","1","[[2,3,0],[1,0],[0]]","15","0","","","","","","7","","","","","","","","",""
"","","","","","single-stim-button","203","635451","0.0-2.0-56.1-0.1","6365593d8f35fcb8f68d982a","C3","batch3","","2155","tol_tohand","","","","tol_peg_2","2155","2155","0","[[1,0,0],[2,0],[0]]","2","[[2,3,0],[1,0],[0]]","15","0","","","","","","7","","","","","","","","",""
"","","","","","single-stim-button","204","635779","0.0-2.0-56.1-1.1","6365593d8f35fcb8f68d982a","C3","batch3","","325","tol_toboard","","","","tol_peg_1","325","325","0","[[1,3,0],[2,0],[0]]","2","[[2,3,0],[1,0],[0]]","15","0","","","","","","7","","","","","","","","",""
"","","","","","single-stim-button","205","636255","0.0-2.0-56.2-0.2","6365593d8f35fcb8f68d982a","C3","batch3","","473","tol_tohand","","","","tol_peg_2","473","473","0","[[1,3,0],[0,0],[0]]","3","[[2,3,0],[1,0],[0]]","15","0","","","","","","7","","","","","","","","",""
"","","","","","single-stim-button","206","636555","0.0-2.0-56.2-1.2","6365593d8f35fcb8f68d982a","C3","batch3","","298","tol_toboard","","","","tol_peg_3","298","298","0","[[1,3,0],[0,0],[2]]","3","[[2,3,0],[1,0],[0]]","15","0","","","","","","7","","","","","","","","",""
"","","","","","single-stim-button","207","641122","0.0-2.0-56.3-0.3","6365593d8f35fcb8f68d982a","C3","batch3","","4564","tol_tohand","","","","tol_peg_1","4564","4564","0","[[1,0,0],[0,0],[2]]","4","[[2,3,0],[1,0],[0]]","15","0","","","","","","7","","","","","","","","",""
"","","","","","single-stim-button","208","641556","0.0-2.0-56.3-1.3","6365593d8f35fcb8f68d982a","C3","batch3","","430","tol_toboard","","","","tol_peg_2","430","430","0","[[1,0,0],[3,0],[2]]","4","[[2,3,0],[1,0],[0]]","15","0","","","","","","7","","","","","","","","",""
"","","","","","single-stim-button","209","641892","0.0-2.0-56.4-0.4","6365593d8f35fcb8f68d982a","C3","batch3","","333","tol_tohand","","","","tol_peg_1","333","333","0","[[0,0,0],[3,0],[2]]","5","[[2,3,0],[1,0],[0]]","15","0","","","","","","7","","","","","","","","",""
"","","","","","single-stim-button","210","642212","0.0-2.0-56.4-1.4","6365593d8f35fcb8f68d982a","C3","batch3","","317","tol_toboard","","","","tol_peg_2","317","317","0","[[0,0,0],[3,1],[2]]","5","[[2,3,0],[1,0],[0]]","15","0","","","","","","7","","","","","","","","",""
"","","","","","single-stim-button","211","642673","0.0-2.0-56.5-0.5","6365593d8f35fcb8f68d982a","C3","batch3","","456","tol_tohand","","","","tol_peg_3","456","456","0","[[0,0,0],[3,1],[0]]","6","[[2,3,0],[1,0],[0]]","15","0","","","","","","7","","","","","","","","",""
"","","","","","single-stim-button","212","643055","0.0-2.0-56.5-1.5","6365593d8f35fcb8f68d982a","C3","batch3","","379","tol_toboard","","","","tol_peg_1","379","379","0","[[2,0,0],[3,1],[0]]","6","[[2,3,0],[1,0],[0]]","15","0","","","","","","7","","","","","","","","",""
"","","","","","single-stim-button","213","643457","0.0-2.0-56.6-0.6","6365593d8f35fcb8f68d982a","C3","batch3","","399","tol_tohand","","","","tol_peg_2","399","399","0","[[2,0,0],[3,0],[0]]","7","[[2,3,0],[1,0],[0]]","15","0","","","","","","7","","","","","","","","",""
"","","","","","single-stim-button","214","643809","0.0-2.0-56.6-1.6","6365593d8f35fcb8f68d982a","C3","batch3","","349","tol_toboard","","","","tol_peg_3","349","349","0","[[2,0,0],[3,0],[1]]","7","[[2,3,0],[1,0],[0]]","15","0","","","","","","7","","","","","","","","",""
"","","","","","single-stim-button","215","644163","0.0-2.0-56.7-0.7","6365593d8f35fcb8f68d982a","C3","batch3","","352","tol_tohand","","","","tol_peg_2","352","352","0","[[2,0,0],[0,0],[1]]","8","[[2,3,0],[1,0],[0]]","15","0","","","","","","7","","","","","","","","",""
"","","","","","single-stim-button","216","644441","0.0-2.0-56.7-1.7","6365593d8f35fcb8f68d982a","C3","batch3","","275","tol_toboard","","","","tol_peg_1","275","275","0","[[2,3,0],[0,0],[1]]","8","[[2,3,0],[1,0],[0]]","15","0","","","","","","7","","","","","","","","",""
"","","","","","single-stim-button","217","644761","0.0-2.0-56.8-0.8","6365593d8f35fcb8f68d982a","C3","batch3","","317","tol_tohand","","","","tol_peg_3","317","317","0","[[2,3,0],[0,0],[0]]","9","[[2,3,0],[1,0],[0]]","15","0","","","","","","7","","","","","","","","",""
"","","","","","single-stim-button","218","644991","0.0-2.0-56.8-1.8","6365593d8f35fcb8f68d982a","C3","batch3","","227","tol_toboard","","","","tol_peg_2","227","227","0","[[2,3,0],[1,0],[0]]","9","[[2,3,0],[1,0],[0]]","15","0","","","","","","7","","","","","","","","",""
"","","","","","poldrack-single-stim","219","645999","0.0-2.0-57.0","6365593d8f35fcb8f68d982a","C3","batch3","","-1","tol_feedback","","","true","","1000","1000","500","","","","","","-1","none","true","10316","19365","","","","","","","","","",""
"","","","","","html-button-response","220","646779","0.0-2.0-58.0","6365593d8f35fcb8f68d982a","C3","batch3","","775.5999999977648","tol_trial_num","<div class = centerbox><p class = center-block-text>problem <strong>17</strong> out of 25 problems</p></div>","0","","","","","","","","","","","","","","","","","","","","","","","","",""
"","","","","","single-stim-button","221","667823","0.0-2.0-59.0-0.0","6365593d8f35fcb8f68d982a","C3","batch3","","21039","tol_tohand","","","","tol_peg_2","21039","21039","0","[[1,2,0],[0,0],[0]]","1","[[3,1,0],[2,0],[0]]","16","0","","","","","","5","","","","","","","","",""
"","","","","","single-stim-button","222","668322","0.0-2.0-59.0-1.0","6365593d8f35fcb8f68d982a","C3","batch3","","495","tol_toboard","","","","tol_peg_3","495","495","0","[[1,2,0],[0,0],[3]]","1","[[3,1,0],[2,0],[0]]","16","0","","","","","","5","","","","","","","","",""
"","","","","","single-stim-button","223","669811","0.0-2.0-59.1-0.1","6365593d8f35fcb8f68d982a","C3","batch3","","1486","tol_tohand","","","","tol_peg_1","1486","1486","0","[[1,0,0],[0,0],[3]]","2","[[3,1,0],[2,0],[0]]","16","0","","","","","","5","","","","","","","","",""
"","","","","","single-stim-button","224","670148","0.0-2.0-59.1-1.1","6365593d8f35fcb8f68d982a","C3","batch3","","335","tol_toboard","","","","tol_peg_2","335","335","0","[[1,0,0],[2,0],[3]]","2","[[3,1,0],[2,0],[0]]","16","0","","","","","","5","","","","","","","","",""
"","","","","","single-stim-button","225","670494","0.0-2.0-59.2-0.2","6365593d8f35fcb8f68d982a","C3","batch3","","344","tol_tohand","","","","tol_peg_1","344","344","0","[[0,0,0],[2,0],[3]]","3","[[3,1,0],[2,0],[0]]","16","0","","","","","","5","","","","","","","","",""
"","","","","","single-stim-button","226","670989","0.0-2.0-59.2-1.2","6365593d8f35fcb8f68d982a","C3","batch3","","492","tol_toboard","","","","tol_peg_2","492","492","0","[[0,0,0],[2,1],[3]]","3","[[3,1,0],[2,0],[0]]","16","0","","","","","","5","","","","","","","","",""
"","","","","","single-stim-button","227","671319","0.0-2.0-59.3-0.3","6365593d8f35fcb8f68d982a","C3","batch3","","328","tol_tohand","","","","tol_peg_3","328","328","0","[[0,0,0],[2,1],[0]]","4","[[3,1,0],[2,0],[0]]","16","0","","","","","","5","","","","","","","","",""
"","","","","","single-stim-button","228","671702","0.0-2.0-59.3-1.3","6365593d8f35fcb8f68d982a","C3","batch3","","379","tol_toboard","","","","tol_peg_1","379","379","0","[[3,0,0],[2,1],[0]]","4","[[3,1,0],[2,0],[0]]","16","0","","","","","","5","","","","","","","","",""
"","","","","","single-stim-button","229","672065","0.0-2.0-59.4-0.4","6365593d8f35fcb8f68d982a","C3","batch3","","360","tol_tohand","","","","tol_peg_2","360","360","0","[[3,0,0],[2,0],[0]]","5","[[3,1,0],[2,0],[0]]","16","0","","","","","","5","","","","","","","","",""
"","","","","","single-stim-button","230","672342","0.0-2.0-59.4-1.4","6365593d8f35fcb8f68d982a","C3","batch3","","275","tol_toboard","","","","tol_peg_1","275","275","0","[[3,1,0],[2,0],[0]]","5","[[3,1,0],[2,0],[0]]","16","0","","","","","","5","","","","","","","","",""
"","","","","","poldrack-single-stim","231","673347","0.0-2.0-60.0","6365593d8f35fcb8f68d982a","C3","batch3","","-1","tol_feedback","","","true","","1000","1000","500","","","","","","-1","none","true","21039","23557","","","","","","","","","",""
"","","","","","html-button-response","232","674021","0.0-2.0-61.0","6365593d8f35fcb8f68d982a","C3","batch3","","669.3999999985099","tol_trial_num","<div class = centerbox><p class = center-block-text>problem <strong>18</strong> out of 25 problems</p></div>","0","","","","","","","","","","","","","","","","","","","","","","","","",""
"","","","","","single-stim-button","233","725132","0.0-2.0-62.0-0.0","6365593d8f35fcb8f68d982a","C3","batch3","","51108","tol_tohand","","","","tol_peg_1","51108","51108","0","[[1,0,0],[3,0],[0]]","1","[[3,0,0],[2,0],[1]]","17","0","","","","","","5","","","","","","","","",""
"","","","","","single-stim-button","234","725902","0.0-2.0-62.0-1.0","6365593d8f35fcb8f68d982a","C3","batch3","","767","tol_toboard","","","","tol_peg_3","767","767","0","[[1,0,0],[3,0],[2]]","1","[[3,0,0],[2,0],[1]]","17","0","","","","","","5","","","","","","","","",""
"","","","","","single-stim-button","235","728348","0.0-2.0-62.1-0.1","6365593d8f35fcb8f68d982a","C3","batch3","","2444","tol_tohand","","","","tol_peg_1","2444","2444","0","[[0,0,0],[3,0],[2]]","2","[[3,0,0],[2,0],[1]]","17","0","","","","","","5","","","","","","","","",""
"","","","","","single-stim-button","236","728883","0.0-2.0-62.1-1.1","6365593d8f35fcb8f68d982a","C3","batch3","","532","tol_toboard","","","","tol_peg_2","532","532","0","[[0,0,0],[3,1],[2]]","2","[[3,0,0],[2,0],[1]]","17","0","","","","","","5","","","","","","","","",""
"","","","","","single-stim-button","237","729346","0.0-2.0-62.2-0.2","6365593d8f35fcb8f68d982a","C3","batch3","","462","tol_tohand","","","","tol_peg_3","462","462","0","[[0,0,0],[3,1],[0]]","3","[[3,0,0],[2,0],[1]]","17","0","","","","","","5","","","","","","","","",""
"","","","","","single-stim-button","238","729746","0.0-2.0-62.2-1.2","6365593d8f35fcb8f68d982a","C3","batch3","","397","tol_toboard","","","","tol_peg_1","397","397","0","[[2,0,0],[3,1],[0]]","3","[[3,0,0],[2,0],[1]]","17","0","","","","","","5","","","","","","","","",""
"","","","","","single-stim-button","239","730566","0.0-2.0-62.3-0.3","6365593d8f35fcb8f68d982a","C3","batch3","","818","tol_tohand","","","","tol_peg_2","818","818","0","[[2,0,0],[3,0],[0]]","4","[[3,0,0],[2,0],[1]]","17","0","","","","","","5","","","","","","","","",""
"","","","","","single-stim-button","240","731421","0.0-2.0-62.3-1.3","6365593d8f35fcb8f68d982a","C3","batch3","","852","tol_toboard","","","","tol_peg_3","852","852","0","[[2,0,0],[3,0],[1]]","4","[[3,0,0],[2,0],[1]]","17","0","","","","","","5","","","","","","","","",""
"","","","","","single-stim-button","241","738514","0.0-2.0-62.4-0.4","6365593d8f35fcb8f68d982a","C3","batch3","","7090","tol_tohand","","","","tol_peg_2","7090","7090","0","[[2,0,0],[0,0],[1]]","5","[[3,0,0],[2,0],[1]]","17","0","","","","","","5","","","","","","","","",""
"","","","","","single-stim-button","242","738798","0.0-2.0-62.4-1.4","6365593d8f35fcb8f68d982a","C3","batch3","","281","tol_toboard","","","","tol_peg_1","281","281","0","[[2,3,0],[0,0],[1]]","5","[[3,0,0],[2,0],[1]]","17","0","","","","","","5","","","","","","","","",""
"","","","","","single-stim-button","243","739208","0.0-2.0-62.5-0.5","6365593d8f35fcb8f68d982a","C3","batch3","","407","tol_tohand","","","","tol_peg_3","407","407","0","[[2,3,0],[0,0],[0]]","6","[[3,0,0],[2,0],[1]]","17","0","","","","","","5","","","","","","","","",""
"","","","","","single-stim-button","244","739493","0.0-2.0-62.5-1.5","6365593d8f35fcb8f68d982a","C3","batch3","","282","tol_toboard","","","","tol_peg_2","282","282","0","[[2,3,0],[1,0],[0]]","6","[[3,0,0],[2,0],[1]]","17","0","","","","","","5","","","","","","","","",""
"","","","","","single-stim-button","245","740730","0.0-2.0-62.6-0.6","6365593d8f35fcb8f68d982a","C3","batch3","","1234","tol_tohand","","","","tol_peg_1","1234","1234","0","[[2,0,0],[1,0],[0]]","7","[[3,0,0],[2,0],[1]]","17","0","","","","","","5","","","","","","","","",""
"","","","","","single-stim-button","246","741153","0.0-2.0-62.6-1.6","6365593d8f35fcb8f68d982a","C3","batch3","","421","tol_toboard","","","","tol_peg_3","421","421","0","[[2,0,0],[1,0],[3]]","7","[[3,0,0],[2,0],[1]]","17","0","","","","","","5","","","","","","","","",""
"","","","","","single-stim-button","247","742412","0.0-2.0-62.7-0.7","6365593d8f35fcb8f68d982a","C3","batch3","","1255","tol_tohand","","","","tol_peg_1","1255","1255","0","[[0,0,0],[1,0],[3]]","8","[[3,0,0],[2,0],[1]]","17","0","","","","","","5","","","","","","","","",""
"","","","","","single-stim-button","248","742994","0.0-2.0-62.7-1.7","6365593d8f35fcb8f68d982a","C3","batch3","","580","tol_toboard","","","","tol_peg_2","580","580","0","[[0,0,0],[1,2],[3]]","8","[[3,0,0],[2,0],[1]]","17","0","","","","","","5","","","","","","","","",""
"","","","","","single-stim-button","249","743502","0.0-2.0-62.8-0.8","6365593d8f35fcb8f68d982a","C3","batch3","","506","tol_tohand","","","","tol_peg_3","506","506","0","[[0,0,0],[1,2],[0]]","9","[[3,0,0],[2,0],[1]]","17","0","","","","","","5","","","","","","","","",""
"","","","","","single-stim-button","250","743890","0.0-2.0-62.8-1.8","6365593d8f35fcb8f68d982a","C3","batch3","","385","tol_toboard","","","","tol_peg_1","385","385","0","[[3,0,0],[1,2],[0]]","9","[[3,0,0],[2,0],[1]]","17","0","","","","","","5","","","","","","","","",""
"","","","","","single-stim-button","251","744472","0.0-2.0-62.9-0.9","6365593d8f35fcb8f68d982a","C3","batch3","","580","tol_tohand","","","","tol_peg_2","580","580","0","[[3,0,0],[1,0],[0]]","10","[[3,0,0],[2,0],[1]]","17","0","","","","","","5","","","","","","","","",""
"","","","","","single-stim-button","252","745127","0.0-2.0-62.9-1.9","6365593d8f35fcb8f68d982a","C3","batch3","","652","tol_toboard","","","","tol_peg_3","652","652","0","[[3,0,0],[1,0],[2]]","10","[[3,0,0],[2,0],[1]]","17","0","","","","","","5","","","","","","","","",""
"","","","","","single-stim-button","253","745491","0.0-2.0-62.10-0.10","6365593d8f35fcb8f68d982a","C3","batch3","","362","tol_tohand","","","","tol_peg_2","362","362","0","[[3,0,0],[0,0],[2]]","11","[[3,0,0],[2,0],[1]]","17","0","","","","","","5","","","","","","","","",""
"","","","","","single-stim-button","254","745726","0.0-2.0-62.10-1.10","6365593d8f35fcb8f68d982a","C3","batch3","","231","tol_toboard","","","","tol_peg_1","231","231","0","[[3,1,0],[0,0],[2]]","11","[[3,0,0],[2,0],[1]]","17","0","","","","","","5","","","","","","","","",""
"","","","","","single-stim-button","255","746082","0.0-2.0-62.11-0.11","6365593d8f35fcb8f68d982a","C3","batch3","","354","tol_tohand","","","","tol_peg_3","354","354","0","[[3,1,0],[0,0],[0]]","12","[[3,0,0],[2,0],[1]]","17","0","","","","","","5","","","","","","","","",""
"","","","","","single-stim-button","256","746323","0.0-2.0-62.11-1.11","6365593d8f35fcb8f68d982a","C3","batch3","","237","tol_toboard","","","","tol_peg_2","237","237","0","[[3,1,0],[2,0],[0]]","12","[[3,0,0],[2,0],[1]]","17","0","","","","","","5","","","","","","","","",""
"","","","","","single-stim-button","257","746590","0.0-2.0-62.12-0.12","6365593d8f35fcb8f68d982a","C3","batch3","","265","tol_tohand","","","","tol_peg_1","265","265","0","[[3,0,0],[2,0],[0]]","13","[[3,0,0],[2,0],[1]]","17","0","","","","","","5","","","","","","","","",""
"","","","","","single-stim-button","258","746926","0.0-2.0-62.12-1.12","6365593d8f35fcb8f68d982a","C3","batch3","","332","tol_toboard","","","","tol_peg_3","332","332","0","[[3,0,0],[2,0],[1]]","13","[[3,0,0],[2,0],[1]]","17","0","","","","","","5","","","","","","","","",""
"","","","","","poldrack-single-stim","259","747931","0.0-2.0-63.0","6365593d8f35fcb8f68d982a","C3","batch3","","-1","tol_feedback","","","true","","1000","1000","500","","","","","","-1","none","true","51108","66885","","","","","","","","","",""
"","","","","","html-button-response","260","748759","0.0-2.0-64.0","6365593d8f35fcb8f68d982a","C3","batch3","","822.8000000007451","tol_trial_num","<div class = centerbox><p class = center-block-text>problem <strong>19</strong> out of 25 problems</p></div>","0","","","","","","","","","","","","","","","","","","","","","","","","",""
"","","","","","single-stim-button","261","757437","0.0-2.0-65.0-0.0","6365593d8f35fcb8f68d982a","C3","batch3","","8674","tol_tohand","","","","tol_peg_1","8674","8674","0","[[1,0,0],[3,0],[0]]","1","[[0,0,0],[1,2],[3]]","18","0","","","","","","7","","","","","","","","",""
"","","","","","single-stim-button","262","757729","0.0-2.0-65.0-1.0","6365593d8f35fcb8f68d982a","C3","batch3","","290","tol_toboard","","","","tol_peg_2","290","290","0","[[1,0,0],[3,2],[0]]","1","[[0,0,0],[1,2],[3]]","18","0","","","","","","7","","","","","","","","",""
"","","","","","single-stim-button","263","759034","0.0-2.0-65.1-0.1","6365593d8f35fcb8f68d982a","C3","batch3","","1303","tol_tohand","","","","tol_peg_1","1303","1303","0","[[0,0,0],[3,2],[0]]","2","[[0,0,0],[1,2],[3]]","18","0","","","","","","7","","","","","","","","",""
"","","","","","single-stim-button","264","759496","0.0-2.0-65.1-1.1","6365593d8f35fcb8f68d982a","C3","batch3","","459","tol_toboard","","","","tol_peg_3","459","459","0","[[0,0,0],[3,2],[1]]","2","[[0,0,0],[1,2],[3]]","18","0","","","","","","7","","","","","","","","",""
"","","","","","single-stim-button","265","761905","0.0-2.0-65.2-0.2","6365593d8f35fcb8f68d982a","C3","batch3","","2406","tol_tohand","","","","tol_peg_2","2406","2406","0","[[0,0,0],[3,0],[1]]","3","[[0,0,0],[1,2],[3]]","18","0","","","","","","7","","","","","","","","",""
"","","","","","single-stim-button","266","762294","0.0-2.0-65.2-1.2","6365593d8f35fcb8f68d982a","C3","batch3","","387","tol_toboard","","","","tol_peg_1","387","387","0","[[2,0,0],[3,0],[1]]","3","[[0,0,0],[1,2],[3]]","18","0","","","","","","7","","","","","","","","",""
"","","","","","single-stim-button","267","764682","0.0-2.0-65.3-0.3","6365593d8f35fcb8f68d982a","C3","batch3","","2385","tol_tohand","","","","tol_peg_2","2385","2385","0","[[2,0,0],[0,0],[1]]","4","[[0,0,0],[1,2],[3]]","18","0","","","","","","7","","","","","","","","",""
"","","","","","single-stim-button","268","765038","0.0-2.0-65.3-1.3","6365593d8f35fcb8f68d982a","C3","batch3","","353","tol_toboard","","","","tol_peg_1","353","353","0","[[2,3,0],[0,0],[1]]","4","[[0,0,0],[1,2],[3]]","18","0","","","","","","7","","","","","","","","",""
"","","","","","single-stim-button","269","766402","0.0-2.0-65.4-0.4","6365593d8f35fcb8f68d982a","C3","batch3","","1361","tol_tohand","","","","tol_peg_3","1361","1361","0","[[2,3,0],[0,0],[0]]","5","[[0,0,0],[1,2],[3]]","18","0","","","","","","7","","","","","","","","",""
"","","","","","single-stim-button","270","766785","0.0-2.0-65.4-1.4","6365593d8f35fcb8f68d982a","C3","batch3","","380","tol_toboard","","","","tol_peg_2","380","380","0","[[2,3,0],[1,0],[0]]","5","[[0,0,0],[1,2],[3]]","18","0","","","","","","7","","","","","","","","",""
"","","","","","single-stim-button","271","767218","0.0-2.0-65.5-0.5","6365593d8f35fcb8f68d982a","C3","batch3","","430","tol_tohand","","","","tol_peg_1","430","430","0","[[2,0,0],[1,0],[0]]","6","[[0,0,0],[1,2],[3]]","18","0","","","","","","7","","","","","","","","",""
"","","","","","single-stim-button","272","767582","0.0-2.0-65.5-1.5","6365593d8f35fcb8f68d982a","C3","batch3","","361","tol_toboard","","","","tol_peg_3","361","361","0","[[2,0,0],[1,0],[3]]","6","[[0,0,0],[1,2],[3]]","18","0","","","","","","7","","","","","","","","",""
"","","","","","single-stim-button","273","767981","0.0-2.0-65.6-0.6","6365593d8f35fcb8f68d982a","C3","batch3","","397","tol_tohand","","","","tol_peg_1","397","397","0","[[0,0,0],[1,0],[3]]","7","[[0,0,0],[1,2],[3]]","18","0","","","","","","7","","","","","","","","",""
"","","","","","single-stim-button","274","768260","0.0-2.0-65.6-1.6","6365593d8f35fcb8f68d982a","C3","batch3","","275","tol_toboard","","","","tol_peg_2","275","275","0","[[0,0,0],[1,2],[3]]","7","[[0,0,0],[1,2],[3]]","18","0","","","","","","7","","","","","","","","",""
"","","","","","poldrack-single-stim","275","769266","0.0-2.0-66.0","6365593d8f35fcb8f68d982a","C3","batch3","","-1","tol_feedback","","","true","","1000","1000","500","","","","","","-1","none","true","8674","16956","","","","","","","","","",""
"","","","","","html-button-response","276","769921","0.0-2.0-67.0","6365593d8f35fcb8f68d982a","C3","batch3","","648.6999999992549","tol_trial_num","<div class = centerbox><p class = center-block-text>problem <strong>20</strong> out of 25 problems</p></div>","0","","","","","","","","","","","","","","","","","","","","","","","","",""
"","","","","","single-stim-button","277","775678","0.0-2.0-68.0-0.0","6365593d8f35fcb8f68d982a","C3","batch3","","5754","tol_tohand","","","","tol_peg_1","5754","5754","0","[[1,0,0],[3,0],[0]]","1","[[2,1,0],[0,0],[3]]","19","0","","","","","","5","","","","","","","","",""
"","","","","","single-stim-button","278","776371","0.0-2.0-68.0-1.0","6365593d8f35fcb8f68d982a","C3","batch3","","690","tol_toboard","","","","tol_peg_2","690","690","0","[[1,0,0],[3,2],[0]]","1","[[2,1,0],[0,0],[3]]","19","0","","","","","","5","","","","","","","","",""
"","","","","","single-stim-button","279","776790","0.0-2.0-68.1-0.1","6365593d8f35fcb8f68d982a","C3","batch3","","417","tol_tohand","","","","tol_peg_1","417","417","0","[[0,0,0],[3,2],[0]]","2","[[2,1,0],[0,0],[3]]","19","0","","","","","","5","","","","","","","","",""
"","","","","","single-stim-button","280","778383","0.0-2.0-68.1-1.1","6365593d8f35fcb8f68d982a","C3","batch3","","1590","tol_toboard","","","","tol_peg_3","1590","1590","0","[[0,0,0],[3,2],[1]]","2","[[2,1,0],[0,0],[3]]","19","0","","","","","","5","","","","","","","","",""
"","","","","","single-stim-button","281","778772","0.0-2.0-68.2-0.2","6365593d8f35fcb8f68d982a","C3","batch3","","384","tol_tohand","","","","tol_peg_2","384","384","0","[[0,0,0],[3,0],[1]]","3","[[2,1,0],[0,0],[3]]","19","0","","","","","","5","","","","","","","","",""
"","","","","","single-stim-button","282","779048","0.0-2.0-68.2-1.2","6365593d8f35fcb8f68d982a","C3","batch3","","274","tol_toboard","","","","tol_peg_1","274","274","0","[[2,0,0],[3,0],[1]]","3","[[2,1,0],[0,0],[3]]","19","0","","","","","","5","","","","","","","","",""
"","","","","","single-stim-button","283","780111","0.0-2.0-68.3-0.3","6365593d8f35fcb8f68d982a","C3","batch3","","1060","tol_tohand","","","","tol_peg_3","1060","1060","0","[[2,0,0],[3,0],[0]]","4","[[2,1,0],[0,0],[3]]","19","0","","","","","","5","","","","","","","","",""
"","","","","","single-stim-button","284","780439","0.0-2.0-68.3-1.3","6365593d8f35fcb8f68d982a","C3","batch3","","326","tol_toboard","","","","tol_peg_1","326","326","0","[[2,1,0],[3,0],[0]]","4","[[2,1,0],[0,0],[3]]","19","0","","","","","","5","","","","","","","","",""
"","","","","","single-stim-button","285","780766","0.0-2.0-68.4-0.4","6365593d8f35fcb8f68d982a","C3","batch3","","325","tol_tohand","","","","tol_peg_2","325","325","0","[[2,1,0],[0,0],[0]]","5","[[2,1,0],[0,0],[3]]","19","0","","","","","","5","","","","","","","","",""
"","","","","","single-stim-button","286","781042","0.0-2.0-68.4-1.4","6365593d8f35fcb8f68d982a","C3","batch3","","274","tol_toboard","","","","tol_peg_3","274","274","0","[[2,1,0],[0,0],[3]]","5","[[2,1,0],[0,0],[3]]","19","0","","","","","","5","","","","","","","","",""
"","","","","","poldrack-single-stim","287","782045","0.0-2.0-69.0","6365593d8f35fcb8f68d982a","C3","batch3","","-1","tol_feedback","","","true","","1000","1000","500","","","","","","-1","none","true","5754","7940","","","","","","","","","",""
"","","","","","html-button-response","288","782691","0.0-2.0-70.0","6365593d8f35fcb8f68d982a","C3","batch3","","642.6999999992549","tol_trial_num","<div class = centerbox><p class = center-block-text>problem <strong>21</strong> out of 25 problems</p></div>","0","","","","","","","","","","","","","","","","","","","","","","","","",""
"","","","","","single-stim-button","289","794022","0.0-2.0-71.0-0.0","6365593d8f35fcb8f68d982a","C3","batch3","","11329","tol_tohand","","","","tol_peg_2","11329","11329","0","[[1,2,0],[0,0],[0]]","1","[[3,2,0],[0,0],[1]]","20","0","","","","","","6","","","","","","","","",""
"","","","","","single-stim-button","290","794421","0.0-2.0-71.0-1.0","6365593d8f35fcb8f68d982a","C3","batch3","","397","tol_toboard","","","","tol_peg_3","397","397","0","[[1,2,0],[0,0],[3]]","1","[[3,2,0],[0,0],[1]]","20","0","","","","","","6","","","","","","","","",""
"","","","","","single-stim-button","291","794855","0.0-2.0-71.1-0.1","6365593d8f35fcb8f68d982a","C3","batch3","","431","tol_tohand","","","","tol_peg_1","431","431","0","[[1,0,0],[0,0],[3]]","2","[[3,2,0],[0,0],[1]]","20","0","","","","","","6","","","","","","","","",""
"","","","","","single-stim-button","292","795132","0.0-2.0-71.1-1.1","6365593d8f35fcb8f68d982a","C3","batch3","","275","tol_toboard","","","","tol_peg_2","275","275","0","[[1,0,0],[2,0],[3]]","2","[[3,2,0],[0,0],[1]]","20","0","","","","","","6","","","","","","","","",""
"","","","","","single-stim-button","293","796153","0.0-2.0-71.2-0.2","6365593d8f35fcb8f68d982a","C3","batch3","","1019","tol_tohand","","","","tol_peg_1","1019","1019","0","[[0,0,0],[2,0],[3]]","3","[[3,2,0],[0,0],[1]]","20","0","","","","","","6","","","","","","","","",""
"","","","","","single-stim-button","294","796788","0.0-2.0-71.2-1.2","6365593d8f35fcb8f68d982a","C3","batch3","","632","tol_toboard","","","","tol_peg_2","632","632","0","[[0,0,0],[2,1],[3]]","3","[[3,2,0],[0,0],[1]]","20","0","","","","","","6","","","","","","","","",""
"","","","","","single-stim-button","295","797136","0.0-2.0-71.3-0.3","6365593d8f35fcb8f68d982a","C3","batch3","","344","tol_tohand","","","","tol_peg_3","344","344","0","[[0,0,0],[2,1],[0]]","4","[[3,2,0],[0,0],[1]]","20","0","","","","","","6","","","","","","","","",""
"","","","","","single-stim-button","296","797531","0.0-2.0-71.3-1.3","6365593d8f35fcb8f68d982a","C3","batch3","","393","tol_toboard","","","","tol_peg_1","393","393","0","[[3,0,0],[2,1],[0]]","4","[[3,2,0],[0,0],[1]]","20","0","","","","","","6","","","","","","","","",""
"","","","","","single-stim-button","297","797983","0.0-2.0-71.4-0.4","6365593d8f35fcb8f68d982a","C3","batch3","","449","tol_tohand","","","","tol_peg_2","449","449","0","[[3,0,0],[2,0],[0]]","5","[[3,2,0],[0,0],[1]]","20","0","","","","","","6","","","","","","","","",""
"","","","","","single-stim-button","298","798363","0.0-2.0-71.4-1.4","6365593d8f35fcb8f68d982a","C3","batch3","","378","tol_toboard","","","","tol_peg_3","378","378","0","[[3,0,0],[2,0],[1]]","5","[[3,2,0],[0,0],[1]]","20","0","","","","","","6","","","","","","","","",""
"","","","","","single-stim-button","299","798724","0.0-2.0-71.5-0.5","6365593d8f35fcb8f68d982a","C3","batch3","","359","tol_tohand","","","","tol_peg_2","359","359","0","[[3,0,0],[0,0],[1]]","6","[[3,2,0],[0,0],[1]]","20","0","","","","","","6","","","","","","","","",""
"","","","","","single-stim-button","300","799002","0.0-2.0-71.5-1.5","6365593d8f35fcb8f68d982a","C3","batch3","","276","tol_toboard","","","","tol_peg_1","276","276","0","[[3,2,0],[0,0],[1]]","6","[[3,2,0],[0,0],[1]]","20","0","","","","","","6","","","","","","","","",""
"","","","","","poldrack-single-stim","301","800007","0.0-2.0-72.0","6365593d8f35fcb8f68d982a","C3","batch3","","-1","tol_feedback","","","true","","1000","1000","500","","","","","","-1","none","true","11329","13931","","","","","","","","","",""
"","","","","","html-button-response","302","800510","0.0-2.0-73.0","6365593d8f35fcb8f68d982a","C3","batch3","","500.30000000074506","tol_trial_num","<div class = centerbox><p class = center-block-text>problem <strong>22</strong> out of 25 problems</p></div>","0","","","","","","","","","","","","","","","","","","","","","","","","",""
"","","","","","single-stim-button","303","809816","0.0-2.0-74.0-0.0","6365593d8f35fcb8f68d982a","C3","batch3","","9302","tol_tohand","","","","tol_peg_1","9302","9302","0","[[0,0,0],[2,3],[0]]","1","[[0,0,0],[1,2],[3]]","21","0","","","","","","6","","","","","","","","",""
"","","","","","single-stim-button","304","812520","0.0-2.0-74.0-1.0","6365593d8f35fcb8f68d982a","C3","batch3","","2701","tol_toboard","","","","tol_peg_3","2701","2701","0","[[0,0,0],[2,3],[1]]","1","[[0,0,0],[1,2],[3]]","21","0","","","","","","6","","","","","","","","",""
"","","","","","single-stim-button","305","813090","0.0-2.0-74.1-0.1","6365593d8f35fcb8f68d982a","C3","batch3","","567","tol_tohand","","","","tol_peg_2","567","567","0","[[0,0,0],[2,0],[1]]","2","[[0,0,0],[1,2],[3]]","21","0","","","","","","6","","","","","","","","",""
"","","","","","single-stim-button","306","813996","0.0-2.0-74.1-1.1","6365593d8f35fcb8f68d982a","C3","batch3","","903","tol_toboard","","","","tol_peg_1","903","903","0","[[3,0,0],[2,0],[1]]","2","[[0,0,0],[1,2],[3]]","21","0","","","","","","6","","","","","","","","",""
"","","","","","single-stim-button","307","815028","0.0-2.0-74.2-0.2","6365593d8f35fcb8f68d982a","C3","batch3","","1030","tol_tohand","","","","tol_peg_2","1030","1030","0","[[3,0,0],[0,0],[1]]","3","[[0,0,0],[1,2],[3]]","21","0","","","","","","6","","","","","","","","",""
"","","","","","single-stim-button","308","815356","0.0-2.0-74.2-1.2","6365593d8f35fcb8f68d982a","C3","batch3","","325","tol_toboard","","","","tol_peg_1","325","325","0","[[3,2,0],[0,0],[1]]","3","[[0,0,0],[1,2],[3]]","21","0","","","","","","6","","","","","","","","",""
"","","","","","single-stim-button","309","815840","0.0-2.0-74.3-0.3","6365593d8f35fcb8f68d982a","C3","batch3","","480","tol_tohand","","","","tol_peg_3","480","480","0","[[3,2,0],[0,0],[0]]","4","[[0,0,0],[1,2],[3]]","21","0","","","","","","6","","","","","","","","",""
"","","","","","single-stim-button","310","816149","0.0-2.0-74.3-1.3","6365593d8f35fcb8f68d982a","C3","batch3","","307","tol_toboard","","","","tol_peg_2","307","307","0","[[3,2,0],[1,0],[0]]","4","[[0,0,0],[1,2],[3]]","21","0","","","","","","6","","","","","","","","",""
"","","","","","single-stim-button","311","816502","0.0-2.0-74.4-0.4","6365593d8f35fcb8f68d982a","C3","batch3","","349","tol_tohand","","","","tol_peg_1","349","349","0","[[3,0,0],[1,0],[0]]","5","[[0,0,0],[1,2],[3]]","21","0","","","","","","6","","","","","","","","",""
"","","","","","single-stim-button","312","816848","0.0-2.0-74.4-1.4","6365593d8f35fcb8f68d982a","C3","batch3","","343","tol_toboard","","","","tol_peg_2","343","343","0","[[3,0,0],[1,2],[0]]","5","[[0,0,0],[1,2],[3]]","21","0","","","","","","6","","","","","","","","",""
"","","","","","single-stim-button","313","817202","0.0-2.0-74.5-0.5","6365593d8f35fcb8f68d982a","C3","batch3","","351","tol_tohand","","","","tol_peg_1","351","351","0","[[0,0,0],[1,2],[0]]","6","[[0,0,0],[1,2],[3]]","21","0","","","","","","6","","","","","","","","",""
"","","","","","single-stim-button","314","817570","0.0-2.0-74.5-1.5","6365593d8f35fcb8f68d982a","C3","batch3","","365","tol_toboard","","","","tol_peg_3","365","365","0","[[0,0,0],[1,2],[3]]","6","[[0,0,0],[1,2],[3]]","21","0","","","","","","6","","","","","","","","",""
"","","","","","poldrack-single-stim","315","818575","0.0-2.0-75.0","6365593d8f35fcb8f68d982a","C3","batch3","","-1","tol_feedback","","","true","","1000","1000","500","","","","","","-1","none","true","9302","12079","","","","","","","","","",""
"","","","","","html-button-response","316","819186","0.0-2.0-76.0","6365593d8f35fcb8f68d982a","C3","batch3","","607.1000000014901","tol_trial_num","<div class = centerbox><p class = center-block-text>problem <strong>23</strong> out of 25 problems</p></div>","0","","","","","","","","","","","","","","","","","","","","","","","","",""
"","","","","","single-stim-button","317","824356","0.0-2.0-77.0-0.0","6365593d8f35fcb8f68d982a","C3","batch3","","5167","tol_tohand","","","","tol_peg_1","5167","5167","0","[[1,0,0],[3,0],[0]]","1","[[1,3,2],[0,0],[0]]","22","0","","","","","","3","","","","","","","","",""
"","","","","","single-stim-button","318","824826","0.0-2.0-77.0-1.0","6365593d8f35fcb8f68d982a","C3","batch3","","467","tol_toboard","","","","tol_peg_3","467","467","0","[[1,0,0],[3,0],[2]]","1","[[1,3,2],[0,0],[0]]","22","0","","","","","","3","","","","","","","","",""
"","","","","","single-stim-button","319","825189","0.0-2.0-77.1-0.1","6365593d8f35fcb8f68d982a","C3","batch3","","360","tol_tohand","","","","tol_peg_2","360","360","0","[[1,0,0],[0,0],[2]]","2","[[1,3,2],[0,0],[0]]","22","0","","","","","","3","","","","","","","","",""
"","","","","","single-stim-button","320","825442","0.0-2.0-77.1-1.1","6365593d8f35fcb8f68d982a","C3","batch3","","251","tol_toboard","","","","tol_peg_1","251","251","0","[[1,3,0],[0,0],[2]]","2","[[1,3,2],[0,0],[0]]","22","0","","","","","","3","","","","","","","","",""
"","","","","","single-stim-button","321","825850","0.0-2.0-77.2-0.2","6365593d8f35fcb8f68d982a","C3","batch3","","405","tol_tohand","","","","tol_peg_3","405","405","0","[[1,3,0],[0,0],[0]]","3","[[1,3,2],[0,0],[0]]","22","0","","","","","","3","","","","","","","","",""
"","","","","","single-stim-button","322","826160","0.0-2.0-77.2-1.2","6365593d8f35fcb8f68d982a","C3","batch3","","308","tol_toboard","","","","tol_peg_1","308","308","0","[[1,3,2],[0,0],[0]]","3","[[1,3,2],[0,0],[0]]","22","0","","","","","","3","","","","","","","","",""
"","","","","","poldrack-single-stim","323","827165","0.0-2.0-78.0","6365593d8f35fcb8f68d982a","C3","batch3","","-1","tol_feedback","","","true","","1000","1000","500","","","","","","-1","none","true","5167","5932","","","","","","","","","",""
"","","","","","html-button-response","324","827688","0.0-2.0-79.0","6365593d8f35fcb8f68d982a","C3","batch3","","518.5999999977648","tol_trial_num","<div class = centerbox><p class = center-block-text>problem <strong>24</strong> out of 25 problems</p></div>","0","","","","","","","","","","","","","","","","","","","","","","","","",""
"","","","","","single-stim-button","325","844576","0.0-2.0-80.0-0.0","6365593d8f35fcb8f68d982a","C3","batch3","","16885","tol_tohand","","","","tol_peg_2","16885","16885","0","[[0,0,0],[2,0],[1]]","1","[[2,0,0],[3,0],[1]]","23","0","","","","","","7","","","","","","","","",""
"","","","","","single-stim-button","326","845049","0.0-2.0-80.0-1.0","6365593d8f35fcb8f68d982a","C3","batch3","","469","tol_toboard","","","","tol_peg_1","469","469","0","[[3,0,0],[2,0],[1]]","1","[[2,0,0],[3,0],[1]]","23","0","","","","","","7","","","","","","","","",""
"","","","","","single-stim-button","327","845740","0.0-2.0-80.1-0.1","6365593d8f35fcb8f68d982a","C3","batch3","","688","tol_tohand","","","","tol_peg_2","688","688","0","[[3,0,0],[0,0],[1]]","2","[[2,0,0],[3,0],[1]]","23","0","","","","","","7","","","","","","","","",""
"","","","","","single-stim-button","328","846064","0.0-2.0-80.1-1.1","6365593d8f35fcb8f68d982a","C3","batch3","","322","tol_toboard","","","","tol_peg_1","322","322","0","[[3,2,0],[0,0],[1]]","2","[[2,0,0],[3,0],[1]]","23","0","","","","","","7","","","","","","","","",""
"","","","","","single-stim-button","329","846487","0.0-2.0-80.2-0.2","6365593d8f35fcb8f68d982a","C3","batch3","","419","tol_tohand","","","","tol_peg_3","419","419","0","[[3,2,0],[0,0],[0]]","3","[[2,0,0],[3,0],[1]]","23","0","","","","","","7","","","","","","","","",""
"","","","","","single-stim-button","330","846782","0.0-2.0-80.2-1.2","6365593d8f35fcb8f68d982a","C3","batch3","","294","tol_toboard","","","","tol_peg_2","294","294","0","[[3,2,0],[1,0],[0]]","3","[[2,0,0],[3,0],[1]]","23","0","","","","","","7","","","","","","","","",""
"","","","","","single-stim-button","331","847730","0.0-2.0-80.3-0.3","6365593d8f35fcb8f68d982a","C3","batch3","","945","tol_tohand","","","","tol_peg_1","945","945","0","[[3,0,0],[1,0],[0]]","4","[[2,0,0],[3,0],[1]]","23","0","","","","","","7","","","","","","","","",""
"","","","","","single-stim-button","332","850558","0.0-2.0-80.3-1.3","6365593d8f35fcb8f68d982a","C3","batch3","","2825","tol_toboard","","","","tol_peg_1","2825","2825","0","[[3,2,0],[1,0],[0]]","4","[[2,0,0],[3,0],[1]]","23","0","","","","","","7","","","","","","","","",""
"","","","","","single-stim-button","333","852585","0.0-2.0-80.4-0.4","6365593d8f35fcb8f68d982a","C3","batch3","","2024","tol_tohand","","","","tol_peg_1","2024","2024","0","[[3,0,0],[1,0],[0]]","5","[[2,0,0],[3,0],[1]]","23","0","","","","","","7","","","","","","","","",""
"","","","","","single-stim-button","334","853420","0.0-2.0-80.4-1.4","6365593d8f35fcb8f68d982a","C3","batch3","","832","tol_toboard","","","","tol_peg_3","832","832","0","[[3,0,0],[1,0],[2]]","5","[[2,0,0],[3,0],[1]]","23","0","","","","","","7","","","","","","","","",""
"","","","","","single-stim-button","335","855585","0.0-2.0-80.5-0.5","6365593d8f35fcb8f68d982a","C3","batch3","","2162","tol_tohand","","","","tol_peg_2","2162","2162","0","[[3,0,0],[0,0],[2]]","6","[[2,0,0],[3,0],[1]]","23","0","","","","","","7","","","","","","","","",""
"","","","","","single-stim-button","336","856071","0.0-2.0-80.5-1.5","6365593d8f35fcb8f68d982a","C3","batch3","","484","tol_toboard","","","","tol_peg_1","484","484","0","[[3,1,0],[0,0],[2]]","6","[[2,0,0],[3,0],[1]]","23","0","","","","","","7","","","","","","","","",""
"","","","","","single-stim-button","337","856846","0.0-2.0-80.6-0.6","6365593d8f35fcb8f68d982a","C3","batch3","","773","tol_tohand","","","","tol_peg_3","773","773","0","[[3,1,0],[0,0],[0]]","7","[[2,0,0],[3,0],[1]]","23","0","","","","","","7","","","","","","","","",""
"","","","","","single-stim-button","338","857256","0.0-2.0-80.6-1.6","6365593d8f35fcb8f68d982a","C3","batch3","","407","tol_toboard","","","","tol_peg_2","407","407","0","[[3,1,0],[2,0],[0]]","7","[[2,0,0],[3,0],[1]]","23","0","","","","","","7","","","","","","","","",""
"","","","","","single-stim-button","339","862493","0.0-2.0-80.7-0.7","6365593d8f35fcb8f68d982a","C3","batch3","","5235","tol_tohand","","","","tol_peg_1","5235","5235","0","[[3,0,0],[2,0],[0]]","8","[[2,0,0],[3,0],[1]]","23","0","","","","","","7","","","","","","","","",""
"","","","","","single-stim-button","340","863705","0.0-2.0-80.7-1.7","6365593d8f35fcb8f68d982a","C3","batch3","","1209","tol_toboard","","","","tol_peg_1","1209","1209","0","[[3,1,0],[2,0],[0]]","8","[[2,0,0],[3,0],[1]]","23","0","","","","","","7","","","","","","","","",""
"","","","","","single-stim-button","341","864813","0.0-2.0-80.8-0.8","6365593d8f35fcb8f68d982a","C3","batch3","","1106","tol_tohand","","","","tol_peg_1","1106","1106","0","[[3,0,0],[2,0],[0]]","9","[[2,0,0],[3,0],[1]]","23","0","","","","","","7","","","","","","","","",""
"","","","","","single-stim-button","342","865301","0.0-2.0-80.8-1.8","6365593d8f35fcb8f68d982a","C3","batch3","","486","tol_toboard","","","","tol_peg_2","486","486","0","[[3,0,0],[2,1],[0]]","9","[[2,0,0],[3,0],[1]]","23","0","","","","","","7","","","","","","","","",""
"","","","","","single-stim-button","343","865667","0.0-2.0-80.9-0.9","6365593d8f35fcb8f68d982a","C3","batch3","","363","tol_tohand","","","","tol_peg_1","363","363","0","[[0,0,0],[2,1],[0]]","10","[[2,0,0],[3,0],[1]]","23","0","","","","","","7","","","","","","","","",""
"","","","","","single-stim-button","344","866098","0.0-2.0-80.9-1.9","6365593d8f35fcb8f68d982a","C3","batch3","","427","tol_toboard","","","","tol_peg_3","427","427","0","[[0,0,0],[2,1],[3]]","10","[[2,0,0],[3,0],[1]]","23","0","","","","","","7","","","","","","","","",""
"","","","","","single-stim-button","345","866688","0.0-2.0-80.10-0.10","6365593d8f35fcb8f68d982a","C3","batch3","","585","tol_tohand","","","","tol_peg_2","585","585","0","[[0,0,0],[2,0],[3]]","11","[[2,0,0],[3,0],[1]]","23","0","","","","","","7","","","","","","","","",""
"","","","","","single-stim-button","346","870133","0.0-2.0-80.10-1.10","6365593d8f35fcb8f68d982a","C3","batch3","","3443","tol_toboard","","","","tol_peg_1","3443","3443","0","[[1,0,0],[2,0],[3]]","11","[[2,0,0],[3,0],[1]]","23","0","","","","","","7","","","","","","","","",""
"","","","","","single-stim-button","347","871252","0.0-2.0-80.11-0.11","6365593d8f35fcb8f68d982a","C3","batch3","","1117","tol_tohand","","","","tol_peg_2","1117","1117","0","[[1,0,0],[0,0],[3]]","12","[[2,0,0],[3,0],[1]]","23","0","","","","","","7","","","","","","","","",""
"","","","","","single-stim-button","348","872954","0.0-2.0-80.11-1.11","6365593d8f35fcb8f68d982a","C3","batch3","","1700","tol_toboard","","","","tol_peg_1","1700","1700","0","[[1,2,0],[0,0],[3]]","12","[[2,0,0],[3,0],[1]]","23","0","","","","","","7","","","","","","","","",""
"","","","","","single-stim-button","349","873383","0.0-2.0-80.12-0.12","6365593d8f35fcb8f68d982a","C3","batch3","","425","tol_tohand","","","","tol_peg_3","425","425","0","[[1,2,0],[0,0],[0]]","13","[[2,0,0],[3,0],[1]]","23","0","","","","","","7","","","","","","","","",""
"","","","","","single-stim-button","350","874745","0.0-2.0-80.12-1.12","6365593d8f35fcb8f68d982a","C3","batch3","","1358","tol_toboard","","","","tol_peg_2","1358","1358","0","[[1,2,0],[3,0],[0]]","13","[[2,0,0],[3,0],[1]]","23","0","","","","","","7","","","","","","","","",""
"","","","","","single-stim-button","351","875134","0.0-2.0-80.13-0.13","6365593d8f35fcb8f68d982a","C3","batch3","","386","tol_tohand","","","","tol_peg_1","386","386","0","[[1,0,0],[3,0],[0]]","14","[[2,0,0],[3,0],[1]]","23","0","","","","","","7","","","","","","","","",""
"","","","","","single-stim-button","352","875430","0.0-2.0-80.13-1.13","6365593d8f35fcb8f68d982a","C3","batch3","","292","tol_toboard","","","","tol_peg_2","292","292","0","[[1,0,0],[3,2],[0]]","14","[[2,0,0],[3,0],[1]]","23","0","","","","","","7","","","","","","","","",""
"","","","","","single-stim-button","353","875887","0.0-2.0-80.14-0.14","6365593d8f35fcb8f68d982a","C3","batch3","","453","tol_tohand","","","","tol_peg_1","453","453","0","[[0,0,0],[3,2],[0]]","15","[[2,0,0],[3,0],[1]]","23","0","","","","","","7","","","","","","","","",""
"","","","","","single-stim-button","354","876290","0.0-2.0-80.14-1.14","6365593d8f35fcb8f68d982a","C3","batch3","","400","tol_toboard","","","","tol_peg_3","400","400","0","[[0,0,0],[3,2],[1]]","15","[[2,0,0],[3,0],[1]]","23","0","","","","","","7","","","","","","","","",""
"","","","","","single-stim-button","355","876657","0.0-2.0-80.15-0.15","6365593d8f35fcb8f68d982a","C3","batch3","","363","tol_tohand","","","","tol_peg_2","363","363","0","[[0,0,0],[3,0],[1]]","16","[[2,0,0],[3,0],[1]]","23","0","","","","","","7","","","","","","","","",""
