"success","timeout","failed_images","failed_audio","failed_video","trial_type","trial_index","time_elapsed","internal_node_id","subject_id","study_id","session_id","view_history","rt","task","stimulus","response","correct","mouse_click","stim_duration","block_duration","timing_post_trial","current_position","tol_num_moves_made","tol_target","tol_problem_id","tol_rt","key_press","possible_responses","tol_correct","preplanning","tol_rt_per_trial","tol_min_moves","item","answer","spm_correct","spm_rt","fiar_detect_rt","fiar_detect_correct","total_correct_fiar_detect","post_trial_gap","choices"
"true","false","[]","[]","[]","preload","0","1984","0.0-0.0","6392555a9838cc65a9c829ef","D2","batch4","","","","","","","","","","","","","","","","","","","","","","","","","","","","","",""
"true","","","","","fullscreen","1","13882","0.0-1.0-0.0","6392555a9838cc65a9c829ef","D2","batch4","","","","","","","","","","","","","","","","","","","","","","","","","","","","","",""
"true","","","","","fullscreen","2","17057","0.0-2.0-0.0","6392555a9838cc65a9c829ef","D2","batch4","","","","","","","","","","","","","","","","","","","","","","","","","","","","","",""
"","","","","","instructions","3","143776","0.0-2.0-1.0-0.0-0.0","6392555a9838cc65a9c829ef","D2","batch4","[{""page_index"":0,""viewing_time"":12612},{""page_index"":1,""viewing_time"":9545.700000047684},{""page_index"":2,""viewing_time"":8643.599999904633},{""page_index"":3,""viewing_time"":22931.600000023842},{""page_index"":4,""viewing_time"":6770.800000071526},{""page_index"":5,""viewing_time"":59491.59999990463},{""page_index"":6,""viewing_time"":6724.5}]","126720.5","tol-instructions","","","","","","","","","","","","","","","","","","","","","","","","","","",""
"","","","","","html-button-response","4","145057","0.0-2.0-1.0-1.0-0.0","6392555a9838cc65a9c829ef","D2","batch4","","1279.2000000476837","tol_enter_quiz","<p class=block-text> Let's answer a few questions <br>","0","","","","","","","","","","","","","","","","","","","","","","","","",""
"","","","","","html-button-response","5","154611","0.0-2.0-1.0-1.0-1.0","6392555a9838cc65a9c829ef","D2","batch4","","9551.5","tol_quiz","<p class = block-text>True or False: You can only move the ball on top of a peg. <br></p>","0","true","","","","","","","","","","","","","","","","","","","","","","","",""
"","","","","","html-button-response","6","157053","0.0-2.0-1.0-1.0-2.0","6392555a9838cc65a9c829ef","D2","batch4","","2439","tol_quiz_feedback","<p class = block-text>Correct! You can only move the ball on top of a peg.</p>","0","","","","","","","","","","","","","","","","","","","","","","","","",""
"","","","","","html-button-response","7","162104","0.0-2.0-1.0-1.0-3.0","6392555a9838cc65a9c829ef","D2","batch4","","5049.200000047684","tol_quiz","<p class = block-text>True or False: You should try to match your board with the target board with fewest moves possible. <br></p>","0","true","","","","","","","","","","","","","","","","","","","","","","","",""
"","","","","","html-button-response","8","163152","0.0-2.0-1.0-1.0-4.0","6392555a9838cc65a9c829ef","D2","batch4","","1046","tol_quiz_feedback","<p class = block-text>Correct! </p>","0","","","","","","","","","","","","","","","","","","","","","","","","",""
"","","","","","html-button-response","9","165304","0.0-2.0-2.0","6392555a9838cc65a9c829ef","D2","batch4","","2149.399999976158","","<p class=block-text> Now that you've understood the game, let's practice a few easier examples before we start!<br> <br>","0","","","","","","","","","","","","","","","","","","","","","","","","",""
"","","","","","single-stim-button","10","167194","0.0-2.0-3.0-0.0","6392555a9838cc65a9c829ef","D2","batch4","","1886","tol_practice","","","","tol_peg_2","1886","1886","0","[[1,2,0],[0,0],[0]]","1","[[1,2,0],[0,0],[3]]","practice","1886","","","","","","","","","","","","","","",""
"","","","","","single-stim-button","11","168594","0.0-2.0-3.0-1.0","6392555a9838cc65a9c829ef","D2","batch4","","1399","tol_practice","","","","tol_peg_3","1399","1399","0","[[1,2,0],[0,0],[3]]","1","[[1,2,0],[0,0],[3]]","practice","1399","","","","","","","","","","","","","","",""
"","","","","","poldrack-single-stim","12","169598","0.0-2.0-4.0","6392555a9838cc65a9c829ef","D2","batch4","","-1","tol_feedback","","","true","","1000","1000","500","","","","","","-1","none","true","","0","","","","","","","","","",""
"","","","","","single-stim-button","13","172585","0.0-2.0-5.0-0.0","6392555a9838cc65a9c829ef","D2","batch4","","2985","tol_practice","","","","tol_peg_1","2985","2985","0","[[1,0,0],[3,0],[0]]","2","[[0,0,0],[3,1],[2]]","practice","2985","","","","","","","","","","","","","","",""
"","","","","","single-stim-button","14","174181","0.0-2.0-5.0-1.0","6392555a9838cc65a9c829ef","D2","batch4","","1595","tol_practice","","","","tol_peg_3","1595","1595","0","[[1,0,0],[3,0],[2]]","2","[[0,0,0],[3,1],[2]]","practice","1595","","","","","","","","","","","","","","",""
"","","","","","single-stim-button","15","175334","0.0-2.0-5.1-0.1","6392555a9838cc65a9c829ef","D2","batch4","","1151","tol_practice","","","","tol_peg_3","1151","1151","0","[[1,0,0],[3,0],[0]]","3","[[0,0,0],[3,1],[2]]","practice","1151","","","","","","","","","","","","","","",""
"","","","","","single-stim-button","16","176245","0.0-2.0-5.1-1.1","6392555a9838cc65a9c829ef","D2","batch4","","909","tol_practice","","","","tol_peg_1","909","909","0","[[1,2,0],[3,0],[0]]","3","[[0,0,0],[3,1],[2]]","practice","909","","","","","","","","","","","","","","",""
"","","","","","single-stim-button","17","182777","0.0-2.0-5.2-0.2","6392555a9838cc65a9c829ef","D2","batch4","","6530","tol_practice","","","","tol_peg_1","6530","6530","0","[[1,0,0],[3,0],[0]]","4","[[0,0,0],[3,1],[2]]","practice","6530","","","","","","","","","","","","","","",""
"","","","","","single-stim-button","18","183961","0.0-2.0-5.2-1.2","6392555a9838cc65a9c829ef","D2","batch4","","1183","tol_practice","","","","tol_peg_3","1183","1183","0","[[1,0,0],[3,0],[2]]","4","[[0,0,0],[3,1],[2]]","practice","1183","","","","","","","","","","","","","","",""
"","","","","","single-stim-button","19","188098","0.0-2.0-5.3-0.3","6392555a9838cc65a9c829ef","D2","batch4","","4135","tol_practice","","","","tol_peg_3","4135","4135","0","[[1,0,0],[3,0],[0]]","5","[[0,0,0],[3,1],[2]]","practice","4135","","","","","","","","","","","","","","",""
"","","","","","single-stim-button","20","189856","0.0-2.0-5.3-1.3","6392555a9838cc65a9c829ef","D2","batch4","","1756","tol_practice","","","","tol_peg_2","1756","1756","0","[[1,0,0],[3,2],[0]]","5","[[0,0,0],[3,1],[2]]","practice","1756","","","","","","","","","","","","","","",""
"","","","","","single-stim-button","21","190808","0.0-2.0-5.4-0.4","6392555a9838cc65a9c829ef","D2","batch4","","951","tol_practice","","","","tol_peg_1","951","951","0","[[0,0,0],[3,2],[0]]","6","[[0,0,0],[3,1],[2]]","practice","951","","","","","","","","","","","","","","",""
"","","","","","single-stim-button","22","191944","0.0-2.0-5.4-1.4","6392555a9838cc65a9c829ef","D2","batch4","","1136","tol_practice","","","","tol_peg_3","1136","1136","0","[[0,0,0],[3,2],[1]]","6","[[0,0,0],[3,1],[2]]","practice","1136","","","","","","","","","","","","","","",""
"","","","","","single-stim-button","23","193733","0.0-2.0-5.5-0.5","6392555a9838cc65a9c829ef","D2","batch4","","1787","tol_practice","","","","tol_peg_3","1787","1787","0","[[0,0,0],[3,2],[0]]","7","[[0,0,0],[3,1],[2]]","practice","1787","","","","","","","","","","","","","","",""
"","","","","","single-stim-button","24","194726","0.0-2.0-5.5-1.5","6392555a9838cc65a9c829ef","D2","batch4","","991","tol_practice","","","","tol_peg_1","991","991","0","[[1,0,0],[3,2],[0]]","7","[[0,0,0],[3,1],[2]]","practice","991","","","","","","","","","","","","","","",""
"","","","","","single-stim-button","25","195726","0.0-2.0-5.6-0.6","6392555a9838cc65a9c829ef","D2","batch4","","999","tol_practice","","","","tol_peg_2","999","999","0","[[1,0,0],[3,0],[0]]","8","[[0,0,0],[3,1],[2]]","practice","999","","","","","","","","","","","","","","",""
"","","","","","single-stim-button","26","196839","0.0-2.0-5.6-1.6","6392555a9838cc65a9c829ef","D2","batch4","","1112","tol_practice","","","","tol_peg_1","1112","1112","0","[[1,2,0],[3,0],[0]]","8","[[0,0,0],[3,1],[2]]","practice","1112","","","","","","","","","","","","","","",""
"","","","","","single-stim-button","27","198057","0.0-2.0-5.7-0.7","6392555a9838cc65a9c829ef","D2","batch4","","1216","tol_practice","","","","tol_peg_2","1216","1216","0","[[1,2,0],[0,0],[0]]","9","[[0,0,0],[3,1],[2]]","practice","1216","","","","","","","","","","","","","","",""
"","","","","","single-stim-button","28","198847","0.0-2.0-5.7-1.7","6392555a9838cc65a9c829ef","D2","batch4","","789","tol_practice","","","","tol_peg_3","789","789","0","[[1,2,0],[0,0],[3]]","9","[[0,0,0],[3,1],[2]]","practice","789","","","","","","","","","","","","","","",""
"","","","","","single-stim-button","29","199653","0.0-2.0-5.8-0.8","6392555a9838cc65a9c829ef","D2","batch4","","804","tol_practice","","","","tol_peg_1","804","804","0","[[1,0,0],[0,0],[3]]","10","[[0,0,0],[3,1],[2]]","practice","804","","","","","","","","","","","","","","",""
"","","","","","single-stim-button","30","200403","0.0-2.0-5.8-1.8","6392555a9838cc65a9c829ef","D2","batch4","","748","tol_practice","","","","tol_peg_2","748","748","0","[[1,0,0],[2,0],[3]]","10","[[0,0,0],[3,1],[2]]","practice","748","","","","","","","","","","","","","","",""
"","","","","","single-stim-button","31","202144","0.0-2.0-5.9-0.9","6392555a9838cc65a9c829ef","D2","batch4","","1740","tol_practice","","","","tol_peg_1","1740","1740","0","[[0,0,0],[2,0],[3]]","11","[[0,0,0],[3,1],[2]]","practice","1740","","","","","","","","","","","","","","",""
"","","","","","single-stim-button","32","203322","0.0-2.0-5.9-1.9","6392555a9838cc65a9c829ef","D2","batch4","","1175","tol_practice","","","","tol_peg_2","1175","1175","0","[[0,0,0],[2,1],[3]]","11","[[0,0,0],[3,1],[2]]","practice","1175","","","","","","","","","","","","","","",""
"","","","","","single-stim-button","33","204104","0.0-2.0-5.10-0.10","6392555a9838cc65a9c829ef","D2","batch4","","780","tol_practice","","","","tol_peg_3","780","780","0","[[0,0,0],[2,1],[0]]","12","[[0,0,0],[3,1],[2]]","practice","780","","","","","","","","","","","","","","",""
"","","","","","single-stim-button","34","205079","0.0-2.0-5.10-1.10","6392555a9838cc65a9c829ef","D2","batch4","","974","tol_practice","","","","tol_peg_1","974","974","0","[[3,0,0],[2,1],[0]]","12","[[0,0,0],[3,1],[2]]","practice","974","","","","","","","","","","","","","","",""
"","","","","","single-stim-button","35","205746","0.0-2.0-5.11-0.11","6392555a9838cc65a9c829ef","D2","batch4","","667","tol_practice","","","","tol_peg_2","667","667","0","[[3,0,0],[2,0],[0]]","13","[[0,0,0],[3,1],[2]]","practice","667","","","","","","","","","","","","","","",""
"","","","","","single-stim-button","36","206506","0.0-2.0-5.11-1.11","6392555a9838cc65a9c829ef","D2","batch4","","758","tol_practice","","","","tol_peg_1","758","758","0","[[3,1,0],[2,0],[0]]","13","[[0,0,0],[3,1],[2]]","practice","758","","","","","","","","","","","","","","",""
"","","","","","single-stim-button","37","207216","0.0-2.0-5.12-0.12","6392555a9838cc65a9c829ef","D2","batch4","","708","tol_practice","","","","tol_peg_2","708","708","0","[[3,1,0],[0,0],[0]]","14","[[0,0,0],[3,1],[2]]","practice","708","","","","","","","","","","","","","","",""
"","","","","","single-stim-button","38","208111","0.0-2.0-5.12-1.12","6392555a9838cc65a9c829ef","D2","batch4","","893","tol_practice","","","","tol_peg_3","893","893","0","[[3,1,0],[0,0],[2]]","14","[[0,0,0],[3,1],[2]]","practice","893","","","","","","","","","","","","","","",""
"","","","","","single-stim-button","39","215795","0.0-2.0-5.13-0.13","6392555a9838cc65a9c829ef","D2","batch4","","7681","tol_practice","","","","tol_peg_3","7681","7681","0","[[3,1,0],[0,0],[0]]","15","[[0,0,0],[3,1],[2]]","practice","7681","","","","","","","","","","","","","","",""
"","","","","","single-stim-button","40","216505","0.0-2.0-5.13-1.13","6392555a9838cc65a9c829ef","D2","batch4","","707","tol_practice","","","","tol_peg_2","707","707","0","[[3,1,0],[2,0],[0]]","15","[[0,0,0],[3,1],[2]]","practice","707","","","","","","","","","","","","","","",""
"","","","","","single-stim-button","41","217358","0.0-2.0-5.14-0.14","6392555a9838cc65a9c829ef","D2","batch4","","851","tol_practice","","","","tol_peg_1","851","851","0","[[3,0,0],[2,0],[0]]","16","[[0,0,0],[3,1],[2]]","practice","851","","","","","","","","","","","","","","",""
"","","","","","single-stim-button","42","218334","0.0-2.0-5.14-1.14","6392555a9838cc65a9c829ef","D2","batch4","","975","tol_practice","","","","tol_peg_3","975","975","0","[[3,0,0],[2,0],[1]]","16","[[0,0,0],[3,1],[2]]","practice","975","","","","","","","","","","","","","","",""
"","","","","","single-stim-button","43","219100","0.0-2.0-5.15-0.15","6392555a9838cc65a9c829ef","D2","batch4","","765","tol_practice","","","","tol_peg_2","765","765","0","[[3,0,0],[0,0],[1]]","17","[[0,0,0],[3,1],[2]]","practice","765","","","","","","","","","","","","","","",""
"","","","","","single-stim-button","44","219897","0.0-2.0-5.15-1.15","6392555a9838cc65a9c829ef","D2","batch4","","796","tol_practice","","","","tol_peg_1","796","796","0","[[3,2,0],[0,0],[1]]","17","[[0,0,0],[3,1],[2]]","practice","796","","","","","","","","","","","","","","",""
"","","","","","single-stim-button","45","220560","0.0-2.0-5.16-0.16","6392555a9838cc65a9c829ef","D2","batch4","","661","tol_practice","","","","tol_peg_1","661","661","0","[[3,0,0],[0,0],[1]]","18","[[0,0,0],[3,1],[2]]","practice","661","","","","","","","","","","","","","","",""
"","","","","","single-stim-button","46","221688","0.0-2.0-5.16-1.16","6392555a9838cc65a9c829ef","D2","batch4","","1128","tol_practice","","","","tol_peg_2","1128","1128","0","[[3,0,0],[2,0],[1]]","18","[[0,0,0],[3,1],[2]]","practice","1128","","","","","","","","","","","","","","",""
"","","","","","single-stim-button","47","223293","0.0-2.0-5.17-0.17","6392555a9838cc65a9c829ef","D2","batch4","","1604","tol_practice","","","","tol_peg_2","1604","1604","0","[[3,0,0],[0,0],[1]]","19","[[0,0,0],[3,1],[2]]","practice","1604","","","","","","","","","","","","","","",""
"","","","","","single-stim-button","48","224615","0.0-2.0-5.17-1.17","6392555a9838cc65a9c829ef","D2","batch4","","1321","tol_practice","","","","tol_peg_2","1321","1321","0","[[3,0,0],[2,0],[1]]","19","[[0,0,0],[3,1],[2]]","practice","1321","","","","","","","","","","","","","","",""
"","","","","","single-stim-button","49","225285","0.0-2.0-5.18-0.18","6392555a9838cc65a9c829ef","D2","batch4","","668","tol_practice","","","","tol_peg_3","668","668","0","[[3,0,0],[2,0],[0]]","20","[[0,0,0],[3,1],[2]]","practice","668","","","","","","","","","","","","","","",""
"","","","","","single-stim-button","50","226018","0.0-2.0-5.18-1.18","6392555a9838cc65a9c829ef","D2","batch4","","731","tol_practice","","","","tol_peg_1","731","731","0","[[3,1,0],[2,0],[0]]","20","[[0,0,0],[3,1],[2]]","practice","731","","","","","","","","","","","","","","",""
"","","","","","single-stim-button","51","226647","0.0-2.0-5.19-0.19","6392555a9838cc65a9c829ef","D2","batch4","","628","tol_practice","","","","tol_peg_1","628","628","0","[[3,0,0],[2,0],[0]]","21","[[0,0,0],[3,1],[2]]","practice","628","","","","","","","","","","","","","","",""
"","","","","","single-stim-button","52","227389","0.0-2.0-5.19-1.19","6392555a9838cc65a9c829ef","D2","batch4","","740","tol_practice","","","","tol_peg_2","740","740","0","[[3,0,0],[2,1],[0]]","21","[[0,0,0],[3,1],[2]]","practice","740","","","","","","","","","","","","","","",""
"","","","","","single-stim-button","53","227969","0.0-2.0-5.20-0.20","6392555a9838cc65a9c829ef","D2","batch4","","578","tol_practice","","","","tol_peg_2","578","578","0","[[3,0,0],[2,0],[0]]","22","[[0,0,0],[3,1],[2]]","practice","578","","","","","","","","","","","","","","",""
"","","","","","single-stim-button","54","229018","0.0-2.0-5.20-1.20","6392555a9838cc65a9c829ef","D2","batch4","","1047","tol_practice","","","","tol_peg_3","1047","1047","0","[[3,0,0],[2,0],[1]]","22","[[0,0,0],[3,1],[2]]","practice","1047","","","","","","","","","","","","","","",""
"","","","","","single-stim-button","55","229822","0.0-2.0-5.21-0.21","6392555a9838cc65a9c829ef","D2","batch4","","804","tol_practice","","","","tol_peg_2","804","804","0","[[3,0,0],[0,0],[1]]","23","[[0,0,0],[3,1],[2]]","practice","804","","","","","","","","","","","","","","",""
"","","","","","single-stim-button","56","230637","0.0-2.0-5.21-1.21","6392555a9838cc65a9c829ef","D2","batch4","","815","tol_practice","","","","tol_peg_1","815","815","0","[[3,2,0],[0,0],[1]]","23","[[0,0,0],[3,1],[2]]","practice","815","","","","","","","","","","","","","","",""
"","","","","","single-stim-button","57","231492","0.0-2.0-5.22-0.22","6392555a9838cc65a9c829ef","D2","batch4","","853","tol_practice","","","","tol_peg_3","853","853","0","[[3,2,0],[0,0],[0]]","24","[[0,0,0],[3,1],[2]]","practice","853","","","","","","","","","","","","","","",""
"","","","","","single-stim-button","58","232380","0.0-2.0-5.22-1.22","6392555a9838cc65a9c829ef","D2","batch4","","887","tol_practice","","","","tol_peg_2","887","887","0","[[3,2,0],[1,0],[0]]","24","[[0,0,0],[3,1],[2]]","practice","887","","","","","","","","","","","","","","",""
"","","","","","single-stim-button","59","233130","0.0-2.0-5.23-0.23","6392555a9838cc65a9c829ef","D2","batch4","","748","tol_practice","","","","tol_peg_1","748","748","0","[[3,0,0],[1,0],[0]]","25","[[0,0,0],[3,1],[2]]","practice","748","","","","","","","","","","","","","","",""
"","","","","","single-stim-button","60","234217","0.0-2.0-5.23-1.23","6392555a9838cc65a9c829ef","D2","batch4","","1086","tol_practice","","","","tol_peg_3","1086","1086","0","[[3,0,0],[1,0],[2]]","25","[[0,0,0],[3,1],[2]]","practice","1086","","","","","","","","","","","","","","",""
"","","","","","single-stim-button","61","235048","0.0-2.0-5.24-0.24","6392555a9838cc65a9c829ef","D2","batch4","","829","tol_practice","","","","tol_peg_2","829","829","0","[[3,0,0],[0,0],[2]]","26","[[0,0,0],[3,1],[2]]","practice","829","","","","","","","","","","","","","","",""
"","","","","","single-stim-button","62","236113","0.0-2.0-5.24-1.24","6392555a9838cc65a9c829ef","D2","batch4","","1063","tol_practice","","","","tol_peg_1","1063","1063","0","[[3,1,0],[0,0],[2]]","26","[[0,0,0],[3,1],[2]]","practice","1063","","","","","","","","","","","","","","",""
"","","","","","single-stim-button","63","241039","0.0-2.0-5.25-0.25","6392555a9838cc65a9c829ef","D2","batch4","","4924","tol_practice","","","","tol_peg_1","4924","4924","0","[[3,0,0],[0,0],[2]]","27","[[0,0,0],[3,1],[2]]","practice","4924","","","","","","","","","","","","","","",""
"","","","","","single-stim-button","64","241658","0.0-2.0-5.25-1.25","6392555a9838cc65a9c829ef","D2","batch4","","617","tol_practice","","","","tol_peg_2","617","617","0","[[3,0,0],[1,0],[2]]","27","[[0,0,0],[3,1],[2]]","practice","617","","","","","","","","","","","","","","",""
"","","","","","single-stim-button","65","242330","0.0-2.0-5.26-0.26","6392555a9838cc65a9c829ef","D2","batch4","","670","tol_practice","","","","tol_peg_1","670","670","0","[[0,0,0],[1,0],[2]]","28","[[0,0,0],[3,1],[2]]","practice","670","","","","","","","","","","","","","","",""
"","","","","","single-stim-button","66","243547","0.0-2.0-5.26-1.26","6392555a9838cc65a9c829ef","D2","batch4","","1216","tol_practice","","","","tol_peg_2","1216","1216","0","[[0,0,0],[1,3],[2]]","28","[[0,0,0],[3,1],[2]]","practice","1216","","","","","","","","","","","","","","",""
"","","","","","single-stim-button","67","244337","0.0-2.0-5.27-0.27","6392555a9838cc65a9c829ef","D2","batch4","","788","tol_practice","","","","tol_peg_2","788","788","0","[[0,0,0],[1,0],[2]]","29","[[0,0,0],[3,1],[2]]","practice","788","","","","","","","","","","","","","","",""
"","","","","","single-stim-button","68","244990","0.0-2.0-5.27-1.27","6392555a9838cc65a9c829ef","D2","batch4","","651","tol_practice","","","","tol_peg_2","651","651","0","[[0,0,0],[1,3],[2]]","29","[[0,0,0],[3,1],[2]]","practice","651","","","","","","","","","","","","","","",""
"","","","","","single-stim-button","69","246215","0.0-2.0-5.28-0.28","6392555a9838cc65a9c829ef","D2","batch4","","1223","tol_practice","","","","tol_peg_3","1223","1223","0","[[0,0,0],[1,3],[0]]","30","[[0,0,0],[3,1],[2]]","practice","1223","","","","","","","","","","","","","","",""
"","","","","","single-stim-button","70","248368","0.0-2.0-5.28-1.28","6392555a9838cc65a9c829ef","D2","batch4","","2151","tol_practice","","","","tol_peg_1","2151","2151","0","[[2,0,0],[1,3],[0]]","30","[[0,0,0],[3,1],[2]]","practice","2151","","","","","","","","","","","","","","",""
"","","","","","single-stim-button","71","249207","0.0-2.0-5.29-0.29","6392555a9838cc65a9c829ef","D2","batch4","","837","tol_practice","","","","tol_peg_2","837","837","0","[[2,0,0],[1,0],[0]]","31","[[0,0,0],[3,1],[2]]","practice","837","","","","","","","","","","","","","","",""
"","","","","","single-stim-button","72","250199","0.0-2.0-5.29-1.29","6392555a9838cc65a9c829ef","D2","batch4","","990","tol_practice","","","","tol_peg_3","990","990","0","[[2,0,0],[1,0],[3]]","31","[[0,0,0],[3,1],[2]]","practice","990","","","","","","","","","","","","","","",""
"","","","","","single-stim-button","73","251076","0.0-2.0-5.30-0.30","6392555a9838cc65a9c829ef","D2","batch4","","875","tol_practice","","","","tol_peg_2","875","875","0","[[2,0,0],[0,0],[3]]","32","[[0,0,0],[3,1],[2]]","practice","875","","","","","","","","","","","","","","",""
"","","","","","single-stim-button","74","251851","0.0-2.0-5.30-1.30","6392555a9838cc65a9c829ef","D2","batch4","","773","tol_practice","","","","tol_peg_1","773","773","0","[[2,1,0],[0,0],[3]]","32","[[0,0,0],[3,1],[2]]","practice","773","","","","","","","","","","","","","","",""
"","","","","","single-stim-button","75","252922","0.0-2.0-5.31-0.31","6392555a9838cc65a9c829ef","D2","batch4","","1069","tol_practice","","","","tol_peg_3","1069","1069","0","[[2,1,0],[0,0],[0]]","33","[[0,0,0],[3,1],[2]]","practice","1069","","","","","","","","","","","","","","",""
"","","","","","single-stim-button","76","253679","0.0-2.0-5.31-1.31","6392555a9838cc65a9c829ef","D2","batch4","","756","tol_practice","","","","tol_peg_2","756","756","0","[[2,1,0],[3,0],[0]]","33","[[0,0,0],[3,1],[2]]","practice","756","","","","","","","","","","","","","","",""
"","","","","","single-stim-button","77","254358","0.0-2.0-5.32-0.32","6392555a9838cc65a9c829ef","D2","batch4","","677","tol_practice","","","","tol_peg_1","677","677","0","[[2,0,0],[3,0],[0]]","34","[[0,0,0],[3,1],[2]]","practice","677","","","","","","","","","","","","","","",""
"","","","","","single-stim-button","78","255164","0.0-2.0-5.32-1.32","6392555a9838cc65a9c829ef","D2","batch4","","805","tol_practice","","","","tol_peg_2","805","805","0","[[2,0,0],[3,1],[0]]","34","[[0,0,0],[3,1],[2]]","practice","805","","","","","","","","","","","","","","",""
"","","","","","single-stim-button","79","255874","0.0-2.0-5.33-0.33","6392555a9838cc65a9c829ef","D2","batch4","","708","tol_practice","","","","tol_peg_1","708","708","0","[[0,0,0],[3,1],[0]]","35","[[0,0,0],[3,1],[2]]","practice","708","","","","","","","","","","","","","","",""
"","","","","","single-stim-button","80","256616","0.0-2.0-5.33-1.33","6392555a9838cc65a9c829ef","D2","batch4","","740","tol_practice","","","","tol_peg_3","740","740","0","[[0,0,0],[3,1],[2]]","35","[[0,0,0],[3,1],[2]]","practice","740","","","","","","","","","","","","","","",""
"","","","","","poldrack-single-stim","81","257618","0.0-2.0-6.0","6392555a9838cc65a9c829ef","D2","batch4","","-1","tol_feedback","","","true","","1000","1000","500","","","","","","-1","none","true","","0","","","","","","","","","",""
"","","","","","single-stim-button","82","260365","0.0-2.0-7.0-0.0","6392555a9838cc65a9c829ef","D2","batch4","","2745","tol_practice","","","","tol_peg_2","2745","2745","0","[[1,2,0],[0,0],[0]]","36","[[1,0,0],[2,0],[3]]","practice","2745","","","","","","","","","","","","","","",""
"","","","","","single-stim-button","83","261348","0.0-2.0-7.0-1.0","6392555a9838cc65a9c829ef","D2","batch4","","982","tol_practice","","","","tol_peg_3","982","982","0","[[1,2,0],[0,0],[3]]","36","[[1,0,0],[2,0],[3]]","practice","982","","","","","","","","","","","","","","",""
"","","","","","single-stim-button","84","262300","0.0-2.0-7.1-0.1","6392555a9838cc65a9c829ef","D2","batch4","","950","tol_practice","","","","tol_peg_1","950","950","0","[[1,0,0],[0,0],[3]]","37","[[1,0,0],[2,0],[3]]","practice","950","","","","","","","","","","","","","","",""
"","","","","","single-stim-button","85","263146","0.0-2.0-7.1-1.1","6392555a9838cc65a9c829ef","D2","batch4","","845","tol_practice","","","","tol_peg_2","845","845","0","[[1,0,0],[2,0],[3]]","37","[[1,0,0],[2,0],[3]]","practice","845","","","","","","","","","","","","","","",""
"","","","","","poldrack-single-stim","86","264154","0.0-2.0-8.0","6392555a9838cc65a9c829ef","D2","batch4","","-1","tol_feedback","","","true","","1000","1000","500","","","","","","-1","none","true","","0","","","","","","","","","",""
"","","","","","html-button-response","87","268912","0.0-2.0-9.0","6392555a9838cc65a9c829ef","D2","batch4","","4755.799999952316","tol_instruction","<div class = centerbox><p class = center-block-text>Great job! You are done with practice trials<br>You are about to start official trials.<br> <br> Problem <strong>1</strong> out of 25 problems</p></div>","0","","","","","","","","","","","","","","","","","","","","","","","","",""
"","","","","","single-stim-button","88","277603","0.0-2.0-10.0-0.0","6392555a9838cc65a9c829ef","D2","batch4","","7686","tol_tohand","","","","tol_peg_1","7686","7686","0","[[1,0,0],[3,0],[0]]","1","[[1,3,0],[2,0],[0]]","0","0","","","","","","3","","","","","","","","",""
"","","","","","single-stim-button","89","278579","0.0-2.0-10.0-1.0","6392555a9838cc65a9c829ef","D2","batch4","","974","tol_toboard","","","","tol_peg_3","974","974","0","[[1,0,0],[3,0],[2]]","1","[[1,3,0],[2,0],[0]]","0","0","","","","","","3","","","","","","","","",""
"","","","","","single-stim-button","90","279232","0.0-2.0-10.1-0.1","6392555a9838cc65a9c829ef","D2","batch4","","651","tol_tohand","","","","tol_peg_2","651","651","0","[[1,0,0],[0,0],[2]]","2","[[1,3,0],[2,0],[0]]","0","0","","","","","","3","","","","","","","","",""
"","","","","","single-stim-button","91","280054","0.0-2.0-10.1-1.1","6392555a9838cc65a9c829ef","D2","batch4","","821","tol_toboard","","","","tol_peg_1","821","821","0","[[1,3,0],[0,0],[2]]","2","[[1,3,0],[2,0],[0]]","0","0","","","","","","3","","","","","","","","",""
"","","","","","single-stim-button","92","280828","0.0-2.0-10.2-0.2","6392555a9838cc65a9c829ef","D2","batch4","","772","tol_tohand","","","","tol_peg_3","772","772","0","[[1,3,0],[0,0],[0]]","3","[[1,3,0],[2,0],[0]]","0","0","","","","","","3","","","","","","","","",""
"","","","","","single-stim-button","93","281433","0.0-2.0-10.2-1.2","6392555a9838cc65a9c829ef","D2","batch4","","603","tol_toboard","","","","tol_peg_2","603","603","0","[[1,3,0],[2,0],[0]]","3","[[1,3,0],[2,0],[0]]","0","0","","","","","","3","","","","","","","","",""
"","","","","","poldrack-single-stim","94","282436","0.0-2.0-11.0","6392555a9838cc65a9c829ef","D2","batch4","","-1","tol_feedback","","","true","","1000","1000","500","","","","","","-1","none","true","7686","9109","","","","","","","","","",""
"","","","","","html-button-response","95","283521","0.0-2.0-12.0","6392555a9838cc65a9c829ef","D2","batch4","","1083.1000000238419","tol_trial_num","<div class = centerbox><p class = center-block-text>problem <strong>2</strong> out of 25 problems</p></div>","0","","","","","","","","","","","","","","","","","","","","","","","","",""
"","","","","","single-stim-button","96","293592","0.0-2.0-13.0-0.0","6392555a9838cc65a9c829ef","D2","batch4","","10069","tol_tohand","","","","tol_peg_2","10069","10069","0","[[1,2,0],[0,0],[0]]","1","[[2,1,3],[0,0],[0]]","1","0","","","","","","5","","","","","","","","",""
"","","","","","single-stim-button","97","294673","0.0-2.0-13.0-1.0","6392555a9838cc65a9c829ef","D2","batch4","","1079","tol_toboard","","","","tol_peg_3","1079","1079","0","[[1,2,0],[0,0],[3]]","1","[[2,1,3],[0,0],[0]]","1","0","","","","","","5","","","","","","","","",""
"","","","","","single-stim-button","98","300060","0.0-2.0-13.1-0.1","6392555a9838cc65a9c829ef","D2","batch4","","5384","tol_tohand","","","","tol_peg_3","5384","5384","0","[[1,2,0],[0,0],[0]]","2","[[2,1,3],[0,0],[0]]","1","0","","","","","","5","","","","","","","","",""
"","","","","","single-stim-button","99","300825","0.0-2.0-13.1-1.1","6392555a9838cc65a9c829ef","D2","batch4","","763","tol_toboard","","","","tol_peg_2","763","763","0","[[1,2,0],[3,0],[0]]","2","[[2,1,3],[0,0],[0]]","1","0","","","","","","5","","","","","","","","",""
"","","","","","single-stim-button","100","301729","0.0-2.0-13.2-0.2","6392555a9838cc65a9c829ef","D2","batch4","","902","tol_tohand","","","","tol_peg_1","902","902","0","[[1,0,0],[3,0],[0]]","3","[[2,1,3],[0,0],[0]]","1","0","","","","","","5","","","","","","","","",""
"","","","","","single-stim-button","101","302825","0.0-2.0-13.2-1.2","6392555a9838cc65a9c829ef","D2","batch4","","1094","tol_toboard","","","","tol_peg_3","1094","1094","0","[[1,0,0],[3,0],[2]]","3","[[2,1,3],[0,0],[0]]","1","0","","","","","","5","","","","","","","","",""
"","","","","","single-stim-button","102","303607","0.0-2.0-13.3-0.3","6392555a9838cc65a9c829ef","D2","batch4","","779","tol_tohand","","","","tol_peg_1","779","779","0","[[0,0,0],[3,0],[2]]","4","[[2,1,3],[0,0],[0]]","1","0","","","","","","5","","","","","","","","",""
"","","","","","single-stim-button","103","304341","0.0-2.0-13.3-1.3","6392555a9838cc65a9c829ef","D2","batch4","","732","tol_toboard","","","","tol_peg_2","732","732","0","[[0,0,0],[3,1],[2]]","4","[[2,1,3],[0,0],[0]]","1","0","","","","","","5","","","","","","","","",""
"","","","","","single-stim-button","104","305188","0.0-2.0-13.4-0.4","6392555a9838cc65a9c829ef","D2","batch4","","844","tol_tohand","","","","tol_peg_3","844","844","0","[[0,0,0],[3,1],[0]]","5","[[2,1,3],[0,0],[0]]","1","0","","","","","","5","","","","","","","","",""
"","","","","","single-stim-button","105","306284","0.0-2.0-13.4-1.4","6392555a9838cc65a9c829ef","D2","batch4","","1094","tol_toboard","","","","tol_peg_1","1094","1094","0","[[2,0,0],[3,1],[0]]","5","[[2,1,3],[0,0],[0]]","1","0","","","","","","5","","","","","","","","",""
"","","","","","single-stim-button","106","306979","0.0-2.0-13.5-0.5","6392555a9838cc65a9c829ef","D2","batch4","","692","tol_tohand","","","","tol_peg_2","692","692","0","[[2,0,0],[3,0],[0]]","6","[[2,1,3],[0,0],[0]]","1","0","","","","","","5","","","","","","","","",""
"","","","","","single-stim-button","107","307639","0.0-2.0-13.5-1.5","6392555a9838cc65a9c829ef","D2","batch4","","658","tol_toboard","","","","tol_peg_1","658","658","0","[[2,1,0],[3,0],[0]]","6","[[2,1,3],[0,0],[0]]","1","0","","","","","","5","","","","","","","","",""
"","","","","","single-stim-button","108","308743","0.0-2.0-13.6-0.6","6392555a9838cc65a9c829ef","D2","batch4","","1102","tol_tohand","","","","tol_peg_2","1102","1102","0","[[2,1,0],[0,0],[0]]","7","[[2,1,3],[0,0],[0]]","1","0","","","","","","5","","","","","","","","",""
"","","","","","single-stim-button","109","309590","0.0-2.0-13.6-1.6","6392555a9838cc65a9c829ef","D2","batch4","","845","tol_toboard","","","","tol_peg_1","845","845","0","[[2,1,3],[0,0],[0]]","7","[[2,1,3],[0,0],[0]]","1","0","","","","","","5","","","","","","","","",""
"","","","","","poldrack-single-stim","110","310597","0.0-2.0-14.0","6392555a9838cc65a9c829ef","D2","batch4","","-1","tol_feedback","","","true","","1000","1000","500","","","","","","-1","none","true","10069","19772","","","","","","","","","",""
"","","","","","html-button-response","111","311694","0.0-2.0-15.0","6392555a9838cc65a9c829ef","D2","batch4","","1094.3000000715256","tol_trial_num","<div class = centerbox><p class = center-block-text>problem <strong>3</strong> out of 25 problems</p></div>","0","","","","","","","","","","","","","","","","","","","","","","","","",""
"","","","","","single-stim-button","112","318024","0.0-2.0-16.0-0.0","6392555a9838cc65a9c829ef","D2","batch4","","6328","tol_tohand","","","","tol_peg_1","6328","6328","0","[[2,0,0],[0,0],[1]]","1","[[1,2,0],[3,0],[0]]","2","0","","","","","","4","","","","","","","","",""
"","","","","","single-stim-button","113","318935","0.0-2.0-16.0-1.0","6392555a9838cc65a9c829ef","D2","batch4","","909","tol_toboard","","","","tol_peg_2","909","909","0","[[2,0,0],[3,0],[1]]","1","[[1,2,0],[3,0],[0]]","2","0","","","","","","4","","","","","","","","",""
"","","","","","single-stim-button","114","319644","0.0-2.0-16.1-0.1","6392555a9838cc65a9c829ef","D2","batch4","","707","tol_tohand","","","","tol_peg_1","707","707","0","[[0,0,0],[3,0],[1]]","2","[[1,2,0],[3,0],[0]]","2","0","","","","","","4","","","","","","","","",""
"","","","","","single-stim-button","115","320322","0.0-2.0-16.1-1.1","6392555a9838cc65a9c829ef","D2","batch4","","676","tol_toboard","","","","tol_peg_2","676","676","0","[[0,0,0],[3,2],[1]]","2","[[1,2,0],[3,0],[0]]","2","0","","","","","","4","","","","","","","","",""
"","","","","","single-stim-button","116","320992","0.0-2.0-16.2-0.2","6392555a9838cc65a9c829ef","D2","batch4","","669","tol_tohand","","","","tol_peg_3","669","669","0","[[0,0,0],[3,2],[0]]","3","[[1,2,0],[3,0],[0]]","2","0","","","","","","4","","","","","","","","",""
"","","","","","single-stim-button","117","321629","0.0-2.0-16.2-1.2","6392555a9838cc65a9c829ef","D2","batch4","","635","tol_toboard","","","","tol_peg_1","635","635","0","[[1,0,0],[3,2],[0]]","3","[[1,2,0],[3,0],[0]]","2","0","","","","","","4","","","","","","","","",""
"","","","","","single-stim-button","118","322387","0.0-2.0-16.3-0.3","6392555a9838cc65a9c829ef","D2","batch4","","756","tol_tohand","","","","tol_peg_2","756","756","0","[[1,0,0],[3,0],[0]]","4","[[1,2,0],[3,0],[0]]","2","0","","","","","","4","","","","","","","","",""
"","","","","","single-stim-button","119","323089","0.0-2.0-16.3-1.3","6392555a9838cc65a9c829ef","D2","batch4","","701","tol_toboard","","","","tol_peg_1","701","701","0","[[1,2,0],[3,0],[0]]","4","[[1,2,0],[3,0],[0]]","2","0","","","","","","4","","","","","","","","",""
"","","","","","poldrack-single-stim","120","324091","0.0-2.0-17.0","6392555a9838cc65a9c829ef","D2","batch4","","-1","tol_feedback","","","true","","1000","1000","500","","","","","","-1","none","true","6328","8460","","","","","","","","","",""
"","","","","","html-button-response","121","324943","0.0-2.0-18.0","6392555a9838cc65a9c829ef","D2","batch4","","850.8999999761581","tol_trial_num","<div class = centerbox><p class = center-block-text>problem <strong>4</strong> out of 25 problems</p></div>","0","","","","","","","","","","","","","","","","","","","","","","","","",""
"","","","","","single-stim-button","122","329072","0.0-2.0-19.0-0.0","6392555a9838cc65a9c829ef","D2","batch4","","4127","tol_tohand","","","","tol_peg_2","4127","4127","0","[[3,0,0],[2,0],[0]]","1","[[3,0,0],[1,0],[2]]","3","0","","","","","","3","","","","","","","","",""
"","","","","","single-stim-button","123","329950","0.0-2.0-19.0-1.0","6392555a9838cc65a9c829ef","D2","batch4","","876","tol_toboard","","","","tol_peg_3","876","876","0","[[3,0,0],[2,0],[1]]","1","[[3,0,0],[1,0],[2]]","3","0","","","","","","3","","","","","","","","",""
"","","","","","single-stim-button","124","331128","0.0-2.0-19.1-0.1","6392555a9838cc65a9c829ef","D2","batch4","","1176","tol_tohand","","","","tol_peg_2","1176","1176","0","[[3,0,0],[0,0],[1]]","2","[[3,0,0],[1,0],[2]]","3","0","","","","","","3","","","","","","","","",""
"","","","","","single-stim-button","125","331708","0.0-2.0-19.1-1.1","6392555a9838cc65a9c829ef","D2","batch4","","578","tol_toboard","","","","tol_peg_1","578","578","0","[[3,2,0],[0,0],[1]]","2","[[3,0,0],[1,0],[2]]","3","0","","","","","","3","","","","","","","","",""
"","","","","","single-stim-button","126","333007","0.0-2.0-19.2-0.2","6392555a9838cc65a9c829ef","D2","batch4","","1297","tol_tohand","","","","tol_peg_3","1297","1297","0","[[3,2,0],[0,0],[0]]","3","[[3,0,0],[1,0],[2]]","3","0","","","","","","3","","","","","","","","",""
"","","","","","single-stim-button","127","333772","0.0-2.0-19.2-1.2","6392555a9838cc65a9c829ef","D2","batch4","","763","tol_toboard","","","","tol_peg_2","763","763","0","[[3,2,0],[1,0],[0]]","3","[[3,0,0],[1,0],[2]]","3","0","","","","","","3","","","","","","","","",""
"","","","","","single-stim-button","128","334532","0.0-2.0-19.3-0.3","6392555a9838cc65a9c829ef","D2","batch4","","757","tol_tohand","","","","tol_peg_1","757","757","0","[[3,0,0],[1,0],[0]]","4","[[3,0,0],[1,0],[2]]","3","0","","","","","","3","","","","","","","","",""
"","","","","","single-stim-button","129","335353","0.0-2.0-19.3-1.3","6392555a9838cc65a9c829ef","D2","batch4","","820","tol_toboard","","","","tol_peg_3","820","820","0","[[3,0,0],[1,0],[2]]","4","[[3,0,0],[1,0],[2]]","3","0","","","","","","3","","","","","","","","",""
"","","","","","poldrack-single-stim","130","336361","0.0-2.0-20.0","6392555a9838cc65a9c829ef","D2","batch4","","-1","tol_feedback","","","true","","1000","1000","500","","","","","","-1","none","true","4127","7357","","","","","","","","","",""
"","","","","","html-button-response","131","337385","0.0-2.0-21.0","6392555a9838cc65a9c829ef","D2","batch4","","1021.3999999761581","tol_trial_num","<div class = centerbox><p class = center-block-text>problem <strong>5</strong> out of 25 problems</p></div>","0","","","","","","","","","","","","","","","","","","","","","","","","",""
"","","","","","single-stim-button","132","370759","0.0-2.0-22.0-0.0","6392555a9838cc65a9c829ef","D2","batch4","","33373","tol_tohand","","","","tol_peg_3","33373","33373","0","[[1,0,0],[2,0],[0]]","1","[[0,0,0],[1,2],[3]]","4","0","","","","","","7","","","","","","","","",""
"","","","","","single-stim-button","133","371540","0.0-2.0-22.0-1.0","6392555a9838cc65a9c829ef","D2","batch4","","780","tol_toboard","","","","tol_peg_2","780","780","0","[[1,0,0],[2,3],[0]]","1","[[0,0,0],[1,2],[3]]","4","0","","","","","","7","","","","","","","","",""
"","","","","","single-stim-button","134","372274","0.0-2.0-22.1-0.1","6392555a9838cc65a9c829ef","D2","batch4","","732","tol_tohand","","","","tol_peg_1","732","732","0","[[0,0,0],[2,3],[0]]","2","[[0,0,0],[1,2],[3]]","4","0","","","","","","7","","","","","","","","",""
"","","","","","single-stim-button","135","373137","0.0-2.0-22.1-1.1","6392555a9838cc65a9c829ef","D2","batch4","","862","tol_toboard","","","","tol_peg_3","862","862","0","[[0,0,0],[2,3],[1]]","2","[[0,0,0],[1,2],[3]]","4","0","","","","","","7","","","","","","","","",""
"","","","","","single-stim-button","136","373846","0.0-2.0-22.2-0.2","6392555a9838cc65a9c829ef","D2","batch4","","708","tol_tohand","","","","tol_peg_2","708","708","0","[[0,0,0],[2,0],[1]]","3","[[0,0,0],[1,2],[3]]","4","0","","","","","","7","","","","","","","","",""
"","","","","","single-stim-button","137","374540","0.0-2.0-22.2-1.2","6392555a9838cc65a9c829ef","D2","batch4","","693","tol_toboard","","","","tol_peg_1","693","693","0","[[3,0,0],[2,0],[1]]","3","[[0,0,0],[1,2],[3]]","4","0","","","","","","7","","","","","","","","",""
"","","","","","single-stim-button","138","375217","0.0-2.0-22.3-0.3","6392555a9838cc65a9c829ef","D2","batch4","","675","tol_tohand","","","","tol_peg_2","675","675","0","[[3,0,0],[0,0],[1]]","4","[[0,0,0],[1,2],[3]]","4","0","","","","","","7","","","","","","","","",""
"","","","","","single-stim-button","139","375879","0.0-2.0-22.3-1.3","6392555a9838cc65a9c829ef","D2","batch4","","660","tol_toboard","","","","tol_peg_1","660","660","0","[[3,2,0],[0,0],[1]]","4","[[0,0,0],[1,2],[3]]","4","0","","","","","","7","","","","","","","","",""
"","","","","","single-stim-button","140","376652","0.0-2.0-22.4-0.4","6392555a9838cc65a9c829ef","D2","batch4","","772","tol_tohand","","","","tol_peg_3","772","772","0","[[3,2,0],[0,0],[0]]","5","[[0,0,0],[1,2],[3]]","4","0","","","","","","7","","","","","","","","",""
"","","","","","single-stim-button","141","377516","0.0-2.0-22.4-1.4","6392555a9838cc65a9c829ef","D2","batch4","","862","tol_toboard","","","","tol_peg_2","862","862","0","[[3,2,0],[1,0],[0]]","5","[[0,0,0],[1,2],[3]]","4","0","","","","","","7","","","","","","","","",""
"","","","","","single-stim-button","142","378233","0.0-2.0-22.5-0.5","6392555a9838cc65a9c829ef","D2","batch4","","716","tol_tohand","","","","tol_peg_1","716","716","0","[[3,0,0],[1,0],[0]]","6","[[0,0,0],[1,2],[3]]","4","0","","","","","","7","","","","","","","","",""
"","","","","","single-stim-button","143","378959","0.0-2.0-22.5-1.5","6392555a9838cc65a9c829ef","D2","batch4","","724","tol_toboard","","","","tol_peg_2","724","724","0","[[3,0,0],[1,2],[0]]","6","[[0,0,0],[1,2],[3]]","4","0","","","","","","7","","","","","","","","",""
"","","","","","single-stim-button","144","379588","0.0-2.0-22.6-0.6","6392555a9838cc65a9c829ef","D2","batch4","","627","tol_tohand","","","","tol_peg_1","627","627","0","[[0,0,0],[1,2],[0]]","7","[[0,0,0],[1,2],[3]]","4","0","","","","","","7","","","","","","","","",""
"","","","","","single-stim-button","145","380910","0.0-2.0-22.6-1.6","6392555a9838cc65a9c829ef","D2","batch4","","1320","tol_toboard","","","","tol_peg_3","1320","1320","0","[[0,0,0],[1,2],[3]]","7","[[0,0,0],[1,2],[3]]","4","0","","","","","","7","","","","","","","","",""
"","","","","","poldrack-single-stim","146","381915","0.0-2.0-23.0","6392555a9838cc65a9c829ef","D2","batch4","","-1","tol_feedback","","","true","","1000","1000","500","","","","","","-1","none","true","33373","37603","","","","","","","","","",""
"","","","","","html-button-response","147","382861","0.0-2.0-24.0","6392555a9838cc65a9c829ef","D2","batch4","","943.6000000238419","tol_trial_num","<div class = centerbox><p class = center-block-text>problem <strong>6</strong> out of 25 problems</p></div>","0","","","","","","","","","","","","","","","","","","","","","","","","",""
"","","","","","single-stim-button","148","392053","0.0-2.0-25.0-0.0","6392555a9838cc65a9c829ef","D2","batch4","","9190","tol_tohand","","","","tol_peg_3","9190","9190","0","[[0,0,0],[1,2],[0]]","1","[[1,0,0],[2,3],[0]]","5","0","","","","","","6","","","","","","","","",""
"","","","","","single-stim-button","149","392747","0.0-2.0-25.0-1.0","6392555a9838cc65a9c829ef","D2","batch4","","692","tol_toboard","","","","tol_peg_1","692","692","0","[[3,0,0],[1,2],[0]]","1","[[1,0,0],[2,3],[0]]","5","0","","","","","","6","","","","","","","","",""
"","","","","","single-stim-button","150","393352","0.0-2.0-25.1-0.1","6392555a9838cc65a9c829ef","D2","batch4","","603","tol_tohand","","","","tol_peg_2","603","603","0","[[3,0,0],[1,0],[0]]","2","[[1,0,0],[2,3],[0]]","5","0","","","","","","6","","","","","","","","",""
"","","","","","single-stim-button","151","394223","0.0-2.0-25.1-1.1","6392555a9838cc65a9c829ef","D2","batch4","","869","tol_toboard","","","","tol_peg_3","869","869","0","[[3,0,0],[1,0],[2]]","2","[[1,0,0],[2,3],[0]]","5","0","","","","","","6","","","","","","","","",""
"","","","","","single-stim-button","152","398021","0.0-2.0-25.2-0.2","6392555a9838cc65a9c829ef","D2","batch4","","3796","tol_tohand","","","","tol_peg_1","3796","3796","0","[[0,0,0],[1,0],[2]]","3","[[1,0,0],[2,3],[0]]","5","0","","","","","","6","","","","","","","","",""
"","","","","","single-stim-button","153","399102","0.0-2.0-25.2-1.2","6392555a9838cc65a9c829ef","D2","batch4","","1079","tol_toboard","","","","tol_peg_2","1079","1079","0","[[0,0,0],[1,3],[2]]","3","[[1,0,0],[2,3],[0]]","5","0","","","","","","6","","","","","","","","",""
"","","","","","single-stim-button","154","406319","0.0-2.0-25.3-0.3","6392555a9838cc65a9c829ef","D2","batch4","","7215","tol_tohand","","","","tol_peg_3","7215","7215","0","[[0,0,0],[1,3],[0]]","4","[[1,0,0],[2,3],[0]]","5","0","","","","","","6","","","","","","","","",""
"","","","","","single-stim-button","155","407116","0.0-2.0-25.3-1.3","6392555a9838cc65a9c829ef","D2","batch4","","795","tol_toboard","","","","tol_peg_1","795","795","0","[[2,0,0],[1,3],[0]]","4","[[1,0,0],[2,3],[0]]","5","0","","","","","","6","","","","","","","","",""
"","","","","","single-stim-button","156","407786","0.0-2.0-25.4-0.4","6392555a9838cc65a9c829ef","D2","batch4","","668","tol_tohand","","","","tol_peg_2","668","668","0","[[2,0,0],[1,0],[0]]","5","[[1,0,0],[2,3],[0]]","5","0","","","","","","6","","","","","","","","",""
"","","","","","single-stim-button","157","408649","0.0-2.0-25.4-1.4","6392555a9838cc65a9c829ef","D2","batch4","","861","tol_toboard","","","","tol_peg_3","861","861","0","[[2,0,0],[1,0],[3]]","5","[[1,0,0],[2,3],[0]]","5","0","","","","","","6","","","","","","","","",""
"","","","","","single-stim-button","158","410310","0.0-2.0-25.5-0.5","6392555a9838cc65a9c829ef","D2","batch4","","1659","tol_tohand","","","","tol_peg_2","1659","1659","0","[[2,0,0],[0,0],[3]]","6","[[1,0,0],[2,3],[0]]","5","0","","","","","","6","","","","","","","","",""
"","","","","","single-stim-button","159","411213","0.0-2.0-25.5-1.5","6392555a9838cc65a9c829ef","D2","batch4","","901","tol_toboard","","","","tol_peg_1","901","901","0","[[2,1,0],[0,0],[3]]","6","[[1,0,0],[2,3],[0]]","5","0","","","","","","6","","","","","","","","",""
"","","","","","single-stim-button","160","412479","0.0-2.0-25.6-0.6","6392555a9838cc65a9c829ef","D2","batch4","","1263","tol_tohand","","","","tol_peg_3","1263","1263","0","[[2,1,0],[0,0],[0]]","7","[[1,0,0],[2,3],[0]]","5","0","","","","","","6","","","","","","","","",""
"","","","","","single-stim-button","161","413186","0.0-2.0-25.6-1.6","6392555a9838cc65a9c829ef","D2","batch4","","706","tol_toboard","","","","tol_peg_2","706","706","0","[[2,1,0],[3,0],[0]]","7","[[1,0,0],[2,3],[0]]","5","0","","","","","","6","","","","","","","","",""
"","","","","","single-stim-button","162","414131","0.0-2.0-25.7-0.7","6392555a9838cc65a9c829ef","D2","batch4","","944","tol_tohand","","","","tol_peg_1","944","944","0","[[2,0,0],[3,0],[0]]","8","[[1,0,0],[2,3],[0]]","5","0","","","","","","6","","","","","","","","",""
"","","","","","single-stim-button","163","415116","0.0-2.0-25.7-1.7","6392555a9838cc65a9c829ef","D2","batch4","","984","tol_toboard","","","","tol_peg_3","984","984","0","[[2,0,0],[3,0],[1]]","8","[[1,0,0],[2,3],[0]]","5","0","","","","","","6","","","","","","","","",""
"","","","","","single-stim-button","164","415842","0.0-2.0-25.8-0.8","6392555a9838cc65a9c829ef","D2","batch4","","723","tol_tohand","","","","tol_peg_1","723","723","0","[[0,0,0],[3,0],[1]]","9","[[1,0,0],[2,3],[0]]","5","0","","","","","","6","","","","","","","","",""
"","","","","","single-stim-button","165","416503","0.0-2.0-25.8-1.8","6392555a9838cc65a9c829ef","D2","batch4","","659","tol_toboard","","","","tol_peg_2","659","659","0","[[0,0,0],[3,2],[1]]","9","[[1,0,0],[2,3],[0]]","5","0","","","","","","6","","","","","","","","",""
"","","","","","single-stim-button","166","417430","0.0-2.0-25.9-0.9","6392555a9838cc65a9c829ef","D2","batch4","","925","tol_tohand","","","","tol_peg_3","925","925","0","[[0,0,0],[3,2],[0]]","10","[[1,0,0],[2,3],[0]]","5","0","","","","","","6","","","","","","","","",""
"","","","","","single-stim-button","167","418211","0.0-2.0-25.9-1.9","6392555a9838cc65a9c829ef","D2","batch4","","779","tol_toboard","","","","tol_peg_1","779","779","0","[[1,0,0],[3,2],[0]]","10","[[1,0,0],[2,3],[0]]","5","0","","","","","","6","","","","","","","","",""
"","","","","","single-stim-button","168","419526","0.0-2.0-25.10-0.10","6392555a9838cc65a9c829ef","D2","batch4","","1314","tol_tohand","","","","tol_peg_2","1314","1314","0","[[1,0,0],[3,0],[0]]","11","[[1,0,0],[2,3],[0]]","5","0","","","","","","6","","","","","","","","",""
"","","","","","single-stim-button","169","420558","0.0-2.0-25.10-1.10","6392555a9838cc65a9c829ef","D2","batch4","","1030","tol_toboard","","","","tol_peg_3","1030","1030","0","[[1,0,0],[3,0],[2]]","11","[[1,0,0],[2,3],[0]]","5","0","","","","","","6","","","","","","","","",""
"","","","","","single-stim-button","170","421178","0.0-2.0-25.11-0.11","6392555a9838cc65a9c829ef","D2","batch4","","618","tol_tohand","","","","tol_peg_2","618","618","0","[[1,0,0],[0,0],[2]]","12","[[1,0,0],[2,3],[0]]","5","0","","","","","","6","","","","","","","","",""
"","","","","","single-stim-button","171","421808","0.0-2.0-25.11-1.11","6392555a9838cc65a9c829ef","D2","batch4","","628","tol_toboard","","","","tol_peg_1","628","628","0","[[1,3,0],[0,0],[2]]","12","[[1,0,0],[2,3],[0]]","5","0","","","","","","6","","","","","","","","",""
"","","","","","single-stim-button","172","422661","0.0-2.0-25.12-0.12","6392555a9838cc65a9c829ef","D2","batch4","","852","tol_tohand","","","","tol_peg_3","852","852","0","[[1,3,0],[0,0],[0]]","13","[[1,0,0],[2,3],[0]]","5","0","","","","","","6","","","","","","","","",""
"","","","","","single-stim-button","173","423307","0.0-2.0-25.12-1.12","6392555a9838cc65a9c829ef","D2","batch4","","645","tol_toboard","","","","tol_peg_2","645","645","0","[[1,3,0],[2,0],[0]]","13","[[1,0,0],[2,3],[0]]","5","0","","","","","","6","","","","","","","","",""
"","","","","","single-stim-button","174","423977","0.0-2.0-25.13-0.13","6392555a9838cc65a9c829ef","D2","batch4","","668","tol_tohand","","","","tol_peg_1","668","668","0","[[1,0,0],[2,0],[0]]","14","[[1,0,0],[2,3],[0]]","5","0","","","","","","6","","","","","","","","",""
"","","","","","single-stim-button","175","424557","0.0-2.0-25.13-1.13","6392555a9838cc65a9c829ef","D2","batch4","","579","tol_toboard","","","","tol_peg_2","579","579","0","[[1,0,0],[2,3],[0]]","14","[[1,0,0],[2,3],[0]]","5","0","","","","","","6","","","","","","","","",""
"","","","","","poldrack-single-stim","176","425562","0.0-2.0-26.0","6392555a9838cc65a9c829ef","D2","batch4","","-1","tol_feedback","","","true","","1000","1000","500","","","","","","-1","none","true","9190","30438","","","","","","","","","",""
"","","","","","html-button-response","177","426563","0.0-2.0-27.0","6392555a9838cc65a9c829ef","D2","batch4","","998.7999999523163","tol_trial_num","<div class = centerbox><p class = center-block-text>problem <strong>7</strong> out of 25 problems</p></div>","0","","","","","","","","","","","","","","","","","","","","","","","","",""
"","","","","","single-stim-button","178","436212","0.0-2.0-28.0-0.0","6392555a9838cc65a9c829ef","D2","batch4","","9649","tol_tohand","","","","tol_peg_3","9649","9649","0","[[2,1,0],[0,0],[0]]","1","[[1,2,0],[3,0],[0]]","6","0","","","","","","5","","","","","","","","",""
"","","","","","single-stim-button","179","436713","0.0-2.0-28.0-1.0","6392555a9838cc65a9c829ef","D2","batch4","","499","tol_toboard","","","","tol_peg_2","499","499","0","[[2,1,0],[3,0],[0]]","1","[[1,2,0],[3,0],[0]]","6","0","","","","","","5","","","","","","","","",""
"","","","","","single-stim-button","180","438373","0.0-2.0-28.1-0.1","6392555a9838cc65a9c829ef","D2","batch4","","1659","tol_tohand","","","","tol_peg_1","1659","1659","0","[[2,0,0],[3,0],[0]]","2","[[1,2,0],[3,0],[0]]","6","0","","","","","","5","","","","","","","","",""
"","","","","","single-stim-button","181","439373","0.0-2.0-28.1-1.1","6392555a9838cc65a9c829ef","D2","batch4","","998","tol_toboard","","","","tol_peg_2","998","998","0","[[2,0,0],[3,1],[0]]","2","[[1,2,0],[3,0],[0]]","6","0","","","","","","5","","","","","","","","",""
"","","","","","single-stim-button","182","440171","0.0-2.0-28.2-0.2","6392555a9838cc65a9c829ef","D2","batch4","","797","tol_tohand","","","","tol_peg_1","797","797","0","[[0,0,0],[3,1],[0]]","3","[[1,2,0],[3,0],[0]]","6","0","","","","","","5","","","","","","","","",""
"","","","","","single-stim-button","183","440872","0.0-2.0-28.2-1.2","6392555a9838cc65a9c829ef","D2","batch4","","700","tol_toboard","","","","tol_peg_3","700","700","0","[[0,0,0],[3,1],[2]]","3","[[1,2,0],[3,0],[0]]","6","0","","","","","","5","","","","","","","","",""
"","","","","","single-stim-button","184","441413","0.0-2.0-28.3-0.3","6392555a9838cc65a9c829ef","D2","batch4","","539","tol_tohand","","","","tol_peg_2","539","539","0","[[0,0,0],[3,0],[2]]","4","[[1,2,0],[3,0],[0]]","6","0","","","","","","5","","","","","","","","",""
"","","","","","single-stim-button","185","442628","0.0-2.0-28.3-1.3","6392555a9838cc65a9c829ef","D2","batch4","","1214","tol_toboard","","","","tol_peg_1","1214","1214","0","[[1,0,0],[3,0],[2]]","4","[[1,2,0],[3,0],[0]]","6","0","","","","","","5","","","","","","","","",""
"","","","","","single-stim-button","186","443621","0.0-2.0-28.4-0.4","6392555a9838cc65a9c829ef","D2","batch4","","992","tol_tohand","","","","tol_peg_3","992","992","0","[[1,0,0],[3,0],[0]]","5","[[1,2,0],[3,0],[0]]","6","0","","","","","","5","","","","","","","","",""
"","","","","","single-stim-button","187","445136","0.0-2.0-28.4-1.4","6392555a9838cc65a9c829ef","D2","batch4","","1513","tol_toboard","","","","tol_peg_1","1513","1513","0","[[1,2,0],[3,0],[0]]","5","[[1,2,0],[3,0],[0]]","6","0","","","","","","5","","","","","","","","",""
"","","","","","poldrack-single-stim","188","446139","0.0-2.0-29.0","6392555a9838cc65a9c829ef","D2","batch4","","-1","tol_feedback","","","true","","1000","1000","500","","","","","","-1","none","true","9649","13636","","","","","","","","","",""
"","","","","","html-button-response","189","447080","0.0-2.0-30.0","6392555a9838cc65a9c829ef","D2","batch4","","939","tol_trial_num","<div class = centerbox><p class = center-block-text>problem <strong>8</strong> out of 25 problems</p></div>","0","","","","","","","","","","","","","","","","","","","","","","","","",""
"","","","","","single-stim-button","190","453335","0.0-2.0-31.0-0.0","6392555a9838cc65a9c829ef","D2","batch4","","6252","tol_tohand","","","","tol_peg_3","6252","6252","0","[[0,0,0],[2,3],[0]]","1","[[1,2,0],[3,0],[0]]","7","0","","","","","","4","","","","","","","","",""
"","","","","","single-stim-button","191","454214","0.0-2.0-31.0-1.0","6392555a9838cc65a9c829ef","D2","batch4","","876","tol_toboard","","","","tol_peg_1","876","876","0","[[1,0,0],[2,3],[0]]","1","[[1,2,0],[3,0],[0]]","7","0","","","","","","4","","","","","","","","",""
"","","","","","single-stim-button","192","454875","0.0-2.0-31.1-0.1","6392555a9838cc65a9c829ef","D2","batch4","","659","tol_tohand","","","","tol_peg_2","659","659","0","[[1,0,0],[2,0],[0]]","2","[[1,2,0],[3,0],[0]]","7","0","","","","","","4","","","","","","","","",""
"","","","","","single-stim-button","193","455576","0.0-2.0-31.1-1.1","6392555a9838cc65a9c829ef","D2","batch4","","698","tol_toboard","","","","tol_peg_3","698","698","0","[[1,0,0],[2,0],[3]]","2","[[1,2,0],[3,0],[0]]","7","0","","","","","","4","","","","","","","","",""
"","","","","","single-stim-button","194","456173","0.0-2.0-31.2-0.2","6392555a9838cc65a9c829ef","D2","batch4","","595","tol_tohand","","","","tol_peg_2","595","595","0","[[1,0,0],[0,0],[3]]","3","[[1,2,0],[3,0],[0]]","7","0","","","","","","4","","","","","","","","",""
"","","","","","single-stim-button","195","456770","0.0-2.0-31.2-1.2","6392555a9838cc65a9c829ef","D2","batch4","","596","tol_toboard","","","","tol_peg_1","596","596","0","[[1,2,0],[0,0],[3]]","3","[[1,2,0],[3,0],[0]]","7","0","","","","","","4","","","","","","","","",""
"","","","","","single-stim-button","196","457423","0.0-2.0-31.3-0.3","6392555a9838cc65a9c829ef","D2","batch4","","651","tol_tohand","","","","tol_peg_3","651","651","0","[[1,2,0],[0,0],[0]]","4","[[1,2,0],[3,0],[0]]","7","0","","","","","","4","","","","","","","","",""
"","","","","","single-stim-button","197","458124","0.0-2.0-31.3-1.3","6392555a9838cc65a9c829ef","D2","batch4","","699","tol_toboard","","","","tol_peg_2","699","699","0","[[1,2,0],[3,0],[0]]","4","[[1,2,0],[3,0],[0]]","7","0","","","","","","4","","","","","","","","",""
"","","","","","poldrack-single-stim","198","459129","0.0-2.0-32.0","6392555a9838cc65a9c829ef","D2","batch4","","-1","tol_feedback","","","true","","1000","1000","500","","","","","","-1","none","true","6252","8157","","","","","","","","","",""
"","","","","","html-button-response","199","459946","0.0-2.0-33.0","6392555a9838cc65a9c829ef","D2","batch4","","814.6000000238419","tol_trial_num","<div class = centerbox><p class = center-block-text>problem <strong>9</strong> out of 25 problems</p></div>","0","","","","","","","","","","","","","","","","","","","","","","","","",""
"","","","","","single-stim-button","200","485652","0.0-2.0-34.0-0.0","6392555a9838cc65a9c829ef","D2","batch4","","25704","tol_tohand","","","","tol_peg_3","25704","25704","0","[[3,2,0],[0,0],[0]]","1","[[2,1,0],[3,0],[0]]","8","0","","","","","","6","","","","","","","","",""
"","","","","","single-stim-button","201","486369","0.0-2.0-34.0-1.0","6392555a9838cc65a9c829ef","D2","batch4","","716","tol_toboard","","","","tol_peg_2","716","716","0","[[3,2,0],[1,0],[0]]","1","[[2,1,0],[3,0],[0]]","8","0","","","","","","6","","","","","","","","",""
"","","","","","single-stim-button","202","487111","0.0-2.0-34.1-0.1","6392555a9838cc65a9c829ef","D2","batch4","","740","tol_tohand","","","","tol_peg_1","740","740","0","[[3,0,0],[1,0],[0]]","2","[[2,1,0],[3,0],[0]]","8","0","","","","","","6","","","","","","","","",""
"","","","","","single-stim-button","203","488030","0.0-2.0-34.1-1.1","6392555a9838cc65a9c829ef","D2","batch4","","917","tol_toboard","","","","tol_peg_3","917","917","0","[[3,0,0],[1,0],[2]]","2","[[2,1,0],[3,0],[0]]","8","0","","","","","","6","","","","","","","","",""
"","","","","","single-stim-button","204","489007","0.0-2.0-34.2-0.2","6392555a9838cc65a9c829ef","D2","batch4","","976","tol_tohand","","","","tol_peg_1","976","976","0","[[0,0,0],[1,0],[2]]","3","[[2,1,0],[3,0],[0]]","8","0","","","","","","6","","","","","","","","",""
"","","","","","single-stim-button","205","489886","0.0-2.0-34.2-1.2","6392555a9838cc65a9c829ef","D2","batch4","","877","tol_toboard","","","","tol_peg_2","877","877","0","[[0,0,0],[1,3],[2]]","3","[[2,1,0],[3,0],[0]]","8","0","","","","","","6","","","","","","","","",""
"","","","","","single-stim-button","206","492345","0.0-2.0-34.3-0.3","6392555a9838cc65a9c829ef","D2","batch4","","2457","tol_tohand","","","","tol_peg_3","2457","2457","0","[[0,0,0],[1,3],[0]]","4","[[2,1,0],[3,0],[0]]","8","0","","","","","","6","","","","","","","","",""
"","","","","","single-stim-button","207","492999","0.0-2.0-34.3-1.3","6392555a9838cc65a9c829ef","D2","batch4","","653","tol_toboard","","","","tol_peg_1","653","653","0","[[2,0,0],[1,3],[0]]","4","[[2,1,0],[3,0],[0]]","8","0","","","","","","6","","","","","","","","",""
"","","","","","single-stim-button","208","493587","0.0-2.0-34.4-0.4","6392555a9838cc65a9c829ef","D2","batch4","","586","tol_tohand","","","","tol_peg_2","586","586","0","[[2,0,0],[1,0],[0]]","5","[[2,1,0],[3,0],[0]]","8","0","","","","","","6","","","","","","","","",""
"","","","","","single-stim-button","209","494400","0.0-2.0-34.4-1.4","6392555a9838cc65a9c829ef","D2","batch4","","812","tol_toboard","","","","tol_peg_3","812","812","0","[[2,0,0],[1,0],[3]]","5","[[2,1,0],[3,0],[0]]","8","0","","","","","","6","","","","","","","","",""
"","","","","","single-stim-button","210","494966","0.0-2.0-34.5-0.5","6392555a9838cc65a9c829ef","D2","batch4","","564","tol_tohand","","","","tol_peg_2","564","564","0","[[2,0,0],[0,0],[3]]","6","[[2,1,0],[3,0],[0]]","8","0","","","","","","6","","","","","","","","",""
"","","","","","single-stim-button","211","495595","0.0-2.0-34.5-1.5","6392555a9838cc65a9c829ef","D2","batch4","","627","tol_toboard","","","","tol_peg_1","627","627","0","[[2,1,0],[0,0],[3]]","6","[[2,1,0],[3,0],[0]]","8","0","","","","","","6","","","","","","","","",""
"","","","","","single-stim-button","212","497457","0.0-2.0-34.6-0.6","6392555a9838cc65a9c829ef","D2","batch4","","1860","tol_tohand","","","","tol_peg_3","1860","1860","0","[[2,1,0],[0,0],[0]]","7","[[2,1,0],[3,0],[0]]","8","0","","","","","","6","","","","","","","","",""
"","","","","","single-stim-button","213","498265","0.0-2.0-34.6-1.6","6392555a9838cc65a9c829ef","D2","batch4","","807","tol_toboard","","","","tol_peg_2","807","807","0","[[2,1,0],[3,0],[0]]","7","[[2,1,0],[3,0],[0]]","8","0","","","","","","6","","","","","","","","",""
"","","","","","poldrack-single-stim","214","499267","0.0-2.0-35.0","6392555a9838cc65a9c829ef","D2","batch4","","-1","tol_feedback","","","true","","1000","1000","500","","","","","","-1","none","true","25704","32887","","","","","","","","","",""
"","","","","","html-button-response","215","499973","0.0-2.0-36.0","6392555a9838cc65a9c829ef","D2","batch4","","703.8999999761581","tol_trial_num","<div class = centerbox><p class = center-block-text>problem <strong>10</strong> out of 25 problems</p></div>","0","","","","","","","","","","","","","","","","","","","","","","","","",""
"","","","","","single-stim-button","216","504923","0.0-2.0-37.0-0.0","6392555a9838cc65a9c829ef","D2","batch4","","4948","tol_tohand","","","","tol_peg_2","4948","4948","0","[[3,0,0],[0,0],[2]]","1","[[3,0,0],[2,1],[0]]","9","0","","","","","","3","","","","","","","","",""
"","","","","","single-stim-button","217","505536","0.0-2.0-37.0-1.0","6392555a9838cc65a9c829ef","D2","batch4","","611","tol_toboard","","","","tol_peg_1","611","611","0","[[3,1,0],[0,0],[2]]","1","[[3,0,0],[2,1],[0]]","9","0","","","","","","3","","","","","","","","",""
"","","","","","single-stim-button","218","506157","0.0-2.0-37.1-0.1","6392555a9838cc65a9c829ef","D2","batch4","","619","tol_tohand","","","","tol_peg_3","619","619","0","[[3,1,0],[0,0],[0]]","2","[[3,0,0],[2,1],[0]]","9","0","","","","","","3","","","","","","","","",""
"","","","","","single-stim-button","219","506819","0.0-2.0-37.1-1.1","6392555a9838cc65a9c829ef","D2","batch4","","660","tol_toboard","","","","tol_peg_2","660","660","0","[[3,1,0],[2,0],[0]]","2","[[3,0,0],[2,1],[0]]","9","0","","","","","","3","","","","","","","","",""
"","","","","","single-stim-button","220","508134","0.0-2.0-37.2-0.2","6392555a9838cc65a9c829ef","D2","batch4","","1313","tol_tohand","","","","tol_peg_1","1313","1313","0","[[3,0,0],[2,0],[0]]","3","[[3,0,0],[2,1],[0]]","9","0","","","","","","3","","","","","","","","",""
"","","","","","single-stim-button","221","508811","0.0-2.0-37.2-1.2","6392555a9838cc65a9c829ef","D2","batch4","","675","tol_toboard","","","","tol_peg_2","675","675","0","[[3,0,0],[2,1],[0]]","3","[[3,0,0],[2,1],[0]]","9","0","","","","","","3","","","","","","","","",""
"","","","","","poldrack-single-stim","222","509818","0.0-2.0-38.0","6392555a9838cc65a9c829ef","D2","batch4","","-1","tol_feedback","","","true","","1000","1000","500","","","","","","-1","none","true","4948","6880","","","","","","","","","",""
"","","","","","html-button-response","223","510681","0.0-2.0-39.0","6392555a9838cc65a9c829ef","D2","batch4","","860","tol_trial_num","<div class = centerbox><p class = center-block-text>problem <strong>11</strong> out of 25 problems</p></div>","0","","","","","","","","","","","","","","","","","","","","","","","","",""
"","","","","","single-stim-button","224","524471","0.0-2.0-40.0-0.0","6392555a9838cc65a9c829ef","D2","batch4","","13788","tol_tohand","","","","tol_peg_1","13788","13788","0","[[1,0,0],[3,0],[0]]","1","[[2,0,0],[1,3],[0]]","10","0","","","","","","6","","","","","","","","",""
"","","","","","single-stim-button","225","525197","0.0-2.0-40.0-1.0","6392555a9838cc65a9c829ef","D2","batch4","","723","tol_toboard","","","","tol_peg_2","723","723","0","[[1,0,0],[3,2],[0]]","1","[[2,0,0],[1,3],[0]]","10","0","","","","","","6","","","","","","","","",""
"","","","","","single-stim-button","226","525738","0.0-2.0-40.1-0.1","6392555a9838cc65a9c829ef","D2","batch4","","538","tol_tohand","","","","tol_peg_1","538","538","0","[[0,0,0],[3,2],[0]]","2","[[2,0,0],[1,3],[0]]","10","0","","","","","","6","","","","","","","","",""
"","","","","","single-stim-button","227","526437","0.0-2.0-40.1-1.1","6392555a9838cc65a9c829ef","D2","batch4","","697","tol_toboard","","","","tol_peg_3","697","697","0","[[0,0,0],[3,2],[1]]","2","[[2,0,0],[1,3],[0]]","10","0","","","","","","6","","","","","","","","",""
"","","","","","single-stim-button","228","527107","0.0-2.0-40.2-0.2","6392555a9838cc65a9c829ef","D2","batch4","","668","tol_tohand","","","","tol_peg_2","668","668","0","[[0,0,0],[3,0],[1]]","3","[[2,0,0],[1,3],[0]]","10","0","","","","","","6","","","","","","","","",""
"","","","","","single-stim-button","229","527802","0.0-2.0-40.2-1.2","6392555a9838cc65a9c829ef","D2","batch4","","693","tol_toboard","","","","tol_peg_1","693","693","0","[[2,0,0],[3,0],[1]]","3","[[2,0,0],[1,3],[0]]","10","0","","","","","","6","","","","","","","","",""
"","","","","","single-stim-button","230","528778","0.0-2.0-40.3-0.3","6392555a9838cc65a9c829ef","D2","batch4","","973","tol_tohand","","","","tol_peg_2","973","973","0","[[2,0,0],[0,0],[1]]","4","[[2,0,0],[1,3],[0]]","10","0","","","","","","6","","","","","","","","",""
"","","","","","single-stim-button","231","529334","0.0-2.0-40.3-1.3","6392555a9838cc65a9c829ef","D2","batch4","","555","tol_toboard","","","","tol_peg_1","555","555","0","[[2,3,0],[0,0],[1]]","4","[[2,0,0],[1,3],[0]]","10","0","","","","","","6","","","","","","","","",""
"","","","","","single-stim-button","232","530172","0.0-2.0-40.4-0.4","6392555a9838cc65a9c829ef","D2","batch4","","836","tol_tohand","","","","tol_peg_3","836","836","0","[[2,3,0],[0,0],[0]]","5","[[2,0,0],[1,3],[0]]","10","0","","","","","","6","","","","","","","","",""
"","","","","","single-stim-button","233","530696","0.0-2.0-40.4-1.4","6392555a9838cc65a9c829ef","D2","batch4","","522","tol_toboard","","","","tol_peg_2","522","522","0","[[2,3,0],[1,0],[0]]","5","[[2,0,0],[1,3],[0]]","10","0","","","","","","6","","","","","","","","",""
"","","","","","single-stim-button","234","531398","0.0-2.0-40.5-0.5","6392555a9838cc65a9c829ef","D2","batch4","","700","tol_tohand","","","","tol_peg_1","700","700","0","[[2,0,0],[1,0],[0]]","6","[[2,0,0],[1,3],[0]]","10","0","","","","","","6","","","","","","","","",""
"","","","","","single-stim-button","235","532060","0.0-2.0-40.5-1.5","6392555a9838cc65a9c829ef","D2","batch4","","661","tol_toboard","","","","tol_peg_2","661","661","0","[[2,0,0],[1,3],[0]]","6","[[2,0,0],[1,3],[0]]","10","0","","","","","","6","","","","","","","","",""
"","","","","","poldrack-single-stim","236","533064","0.0-2.0-41.0","6392555a9838cc65a9c829ef","D2","batch4","","-1","tol_feedback","","","true","","1000","1000","500","","","","","","-1","none","true","13788","17503","","","","","","","","","",""
"","","","","","html-button-response","237","533810","0.0-2.0-42.0","6392555a9838cc65a9c829ef","D2","batch4","","744.6000000238419","tol_trial_num","<div class = centerbox><p class = center-block-text>problem <strong>12</strong> out of 25 problems</p></div>","0","","","","","","","","","","","","","","","","","","","","","","","","",""
"","","","","","single-stim-button","238","536761","0.0-2.0-43.0-0.0","6392555a9838cc65a9c829ef","D2","batch4","","2949","tol_tohand","","","","tol_peg_1","2949","2949","0","[[1,0,0],[3,0],[0]]","1","[[2,3,0],[0,0],[1]]","11","0","","","","","","4","","","","","","","","",""
"","","","","","single-stim-button","239","537446","0.0-2.0-43.0-1.0","6392555a9838cc65a9c829ef","D2","batch4","","683","tol_toboard","","","","tol_peg_2","683","683","0","[[1,0,0],[3,2],[0]]","1","[[2,3,0],[0,0],[1]]","11","0","","","","","","4","","","","","","","","",""
"","","","","","single-stim-button","240","538011","0.0-2.0-43.1-0.1","6392555a9838cc65a9c829ef","D2","batch4","","563","tol_tohand","","","","tol_peg_1","563","563","0","[[0,0,0],[3,2],[0]]","2","[[2,3,0],[0,0],[1]]","11","0","","","","","","4","","","","","","","","",""
"","","","","","single-stim-button","241","539051","0.0-2.0-43.1-1.1","6392555a9838cc65a9c829ef","D2","batch4","","1039","tol_toboard","","","","tol_peg_3","1039","1039","0","[[0,0,0],[3,2],[1]]","2","[[2,3,0],[0,0],[1]]","11","0","","","","","","4","","","","","","","","",""
"","","","","","single-stim-button","242","539745","0.0-2.0-43.2-0.2","6392555a9838cc65a9c829ef","D2","batch4","","692","tol_tohand","","","","tol_peg_2","692","692","0","[[0,0,0],[3,0],[1]]","3","[[2,3,0],[0,0],[1]]","11","0","","","","","","4","","","","","","","","",""
"","","","","","single-stim-button","243","540373","0.0-2.0-43.2-1.2","6392555a9838cc65a9c829ef","D2","batch4","","627","tol_toboard","","","","tol_peg_1","627","627","0","[[2,0,0],[3,0],[1]]","3","[[2,3,0],[0,0],[1]]","11","0","","","","","","4","","","","","","","","",""
"","","","","","single-stim-button","244","541011","0.0-2.0-43.3-0.3","6392555a9838cc65a9c829ef","D2","batch4","","636","tol_tohand","","","","tol_peg_2","636","636","0","[[2,0,0],[0,0],[1]]","4","[[2,3,0],[0,0],[1]]","11","0","","","","","","4","","","","","","","","",""
"","","","","","single-stim-button","245","541592","0.0-2.0-43.3-1.3","6392555a9838cc65a9c829ef","D2","batch4","","579","tol_toboard","","","","tol_peg_1","579","579","0","[[2,3,0],[0,0],[1]]","4","[[2,3,0],[0,0],[1]]","11","0","","","","","","4","","","","","","","","",""
"","","","","","poldrack-single-stim","246","542598","0.0-2.0-44.0","6392555a9838cc65a9c829ef","D2","batch4","","-1","tol_feedback","","","true","","1000","1000","500","","","","","","-1","none","true","2949","4840","","","","","","","","","",""
"","","","","","html-button-response","247","543479","0.0-2.0-45.0","6392555a9838cc65a9c829ef","D2","batch4","","878.2000000476837","tol_trial_num","<div class = centerbox><p class = center-block-text>problem <strong>13</strong> out of 25 problems</p></div>","0","","","","","","","","","","","","","","","","","","","","","","","","",""
"","","","","","single-stim-button","248","545729","0.0-2.0-46.0-0.0","6392555a9838cc65a9c829ef","D2","batch4","","2248","tol_tohand","","","","tol_peg_1","2248","2248","0","[[1,0,0],[3,0],[0]]","1","[[0,0,0],[2,3],[1]]","12","0","","","","","","4","","","","","","","","",""
"","","","","","single-stim-button","249","546333","0.0-2.0-46.0-1.0","6392555a9838cc65a9c829ef","D2","batch4","","603","tol_toboard","","","","tol_peg_2","603","603","0","[[1,0,0],[3,2],[0]]","1","[[0,0,0],[2,3],[1]]","12","0","","","","","","4","","","","","","","","",""
"","","","","","single-stim-button","250","546883","0.0-2.0-46.1-0.1","6392555a9838cc65a9c829ef","D2","batch4","","548","tol_tohand","","","","tol_peg_1","548","548","0","[[0,0,0],[3,2],[0]]","2","[[0,0,0],[2,3],[1]]","12","0","","","","","","4","","","","","","","","",""
"","","","","","single-stim-button","251","547729","0.0-2.0-46.1-1.1","6392555a9838cc65a9c829ef","D2","batch4","","844","tol_toboard","","","","tol_peg_3","844","844","0","[[0,0,0],[3,2],[1]]","2","[[0,0,0],[2,3],[1]]","12","0","","","","","","4","","","","","","","","",""
"","","","","","single-stim-button","252","549003","0.0-2.0-46.2-0.2","6392555a9838cc65a9c829ef","D2","batch4","","1272","tol_tohand","","","","tol_peg_2","1272","1272","0","[[0,0,0],[3,0],[1]]","3","[[0,0,0],[2,3],[1]]","12","0","","","","","","4","","","","","","","","",""
"","","","","","single-stim-button","253","549794","0.0-2.0-46.2-1.2","6392555a9838cc65a9c829ef","D2","batch4","","789","tol_toboard","","","","tol_peg_1","789","789","0","[[2,0,0],[3,0],[1]]","3","[[0,0,0],[2,3],[1]]","12","0","","","","","","4","","","","","","","","",""
"","","","","","single-stim-button","254","554092","0.0-2.0-46.3-0.3","6392555a9838cc65a9c829ef","D2","batch4","","4296","tol_tohand","","","","tol_peg_3","4296","4296","0","[[2,0,0],[3,0],[0]]","4","[[0,0,0],[2,3],[1]]","12","0","","","","","","4","","","","","","","","",""
"","","","","","single-stim-button","255","554745","0.0-2.0-46.3-1.3","6392555a9838cc65a9c829ef","D2","batch4","","651","tol_toboard","","","","tol_peg_1","651","651","0","[[2,1,0],[3,0],[0]]","4","[[0,0,0],[2,3],[1]]","12","0","","","","","","4","","","","","","","","",""
"","","","","","single-stim-button","256","555277","0.0-2.0-46.4-0.4","6392555a9838cc65a9c829ef","D2","batch4","","530","tol_tohand","","","","tol_peg_2","530","530","0","[[2,1,0],[0,0],[0]]","5","[[0,0,0],[2,3],[1]]","12","0","","","","","","4","","","","","","","","",""
"","","","","","single-stim-button","257","556028","0.0-2.0-46.4-1.4","6392555a9838cc65a9c829ef","D2","batch4","","749","tol_toboard","","","","tol_peg_3","749","749","0","[[2,1,0],[0,0],[3]]","5","[[0,0,0],[2,3],[1]]","12","0","","","","","","4","","","","","","","","",""
"","","","","","single-stim-button","258","556906","0.0-2.0-46.5-0.5","6392555a9838cc65a9c829ef","D2","batch4","","875","tol_tohand","","","","tol_peg_1","875","875","0","[[2,0,0],[0,0],[3]]","6","[[0,0,0],[2,3],[1]]","12","0","","","","","","4","","","","","","","","",""
"","","","","","single-stim-button","259","557721","0.0-2.0-46.5-1.5","6392555a9838cc65a9c829ef","D2","batch4","","813","tol_toboard","","","","tol_peg_2","813","813","0","[[2,0,0],[1,0],[3]]","6","[[0,0,0],[2,3],[1]]","12","0","","","","","","4","","","","","","","","",""
"","","","","","single-stim-button","260","558875","0.0-2.0-46.6-0.6","6392555a9838cc65a9c829ef","D2","batch4","","1150","tol_tohand","","","","tol_peg_3","1150","1150","0","[[2,0,0],[1,0],[0]]","7","[[0,0,0],[2,3],[1]]","12","0","","","","","","4","","","","","","","","",""
"","","","","","single-stim-button","261","560488","0.0-2.0-46.6-1.6","6392555a9838cc65a9c829ef","D2","batch4","","1611","tol_toboard","","","","tol_peg_2","1611","1611","0","[[2,0,0],[1,3],[0]]","7","[[0,0,0],[2,3],[1]]","12","0","","","","","","4","","","","","","","","",""
"","","","","","single-stim-button","262","561157","0.0-2.0-46.7-0.7","6392555a9838cc65a9c829ef","D2","batch4","","667","tol_tohand","","","","tol_peg_1","667","667","0","[[0,0,0],[1,3],[0]]","8","[[0,0,0],[2,3],[1]]","12","0","","","","","","4","","","","","","","","",""
"","","","","","single-stim-button","263","561875","0.0-2.0-46.7-1.7","6392555a9838cc65a9c829ef","D2","batch4","","716","tol_toboard","","","","tol_peg_3","716","716","0","[[0,0,0],[1,3],[2]]","8","[[0,0,0],[2,3],[1]]","12","0","","","","","","4","","","","","","","","",""
"","","","","","single-stim-button","264","562698","0.0-2.0-46.8-0.8","6392555a9838cc65a9c829ef","D2","batch4","","820","tol_tohand","","","","tol_peg_2","820","820","0","[[0,0,0],[1,0],[2]]","9","[[0,0,0],[2,3],[1]]","12","0","","","","","","4","","","","","","","","",""
"","","","","","single-stim-button","265","563537","0.0-2.0-46.8-1.8","6392555a9838cc65a9c829ef","D2","batch4","","836","tol_toboard","","","","tol_peg_1","836","836","0","[[3,0,0],[1,0],[2]]","9","[[0,0,0],[2,3],[1]]","12","0","","","","","","4","","","","","","","","",""
"","","","","","single-stim-button","266","564317","0.0-2.0-46.9-0.9","6392555a9838cc65a9c829ef","D2","batch4","","779","tol_tohand","","","","tol_peg_2","779","779","0","[[3,0,0],[0,0],[2]]","10","[[0,0,0],[2,3],[1]]","12","0","","","","","","4","","","","","","","","",""
"","","","","","single-stim-button","267","564955","0.0-2.0-46.9-1.9","6392555a9838cc65a9c829ef","D2","batch4","","638","tol_toboard","","","","tol_peg_1","638","638","0","[[3,1,0],[0,0],[2]]","10","[[0,0,0],[2,3],[1]]","12","0","","","","","","4","","","","","","","","",""
"","","","","","single-stim-button","268","565648","0.0-2.0-46.10-0.10","6392555a9838cc65a9c829ef","D2","batch4","","692","tol_tohand","","","","tol_peg_3","692","692","0","[[3,1,0],[0,0],[0]]","11","[[0,0,0],[2,3],[1]]","12","0","","","","","","4","","","","","","","","",""
"","","","","","single-stim-button","269","566407","0.0-2.0-46.10-1.10","6392555a9838cc65a9c829ef","D2","batch4","","757","tol_toboard","","","","tol_peg_2","757","757","0","[[3,1,0],[2,0],[0]]","11","[[0,0,0],[2,3],[1]]","12","0","","","","","","4","","","","","","","","",""
"","","","","","single-stim-button","270","567174","0.0-2.0-46.11-0.11","6392555a9838cc65a9c829ef","D2","batch4","","765","tol_tohand","","","","tol_peg_1","765","765","0","[[3,0,0],[2,0],[0]]","12","[[0,0,0],[2,3],[1]]","12","0","","","","","","4","","","","","","","","",""
"","","","","","single-stim-button","271","567891","0.0-2.0-46.11-1.11","6392555a9838cc65a9c829ef","D2","batch4","","716","tol_toboard","","","","tol_peg_3","716","716","0","[[3,0,0],[2,0],[1]]","12","[[0,0,0],[2,3],[1]]","12","0","","","","","","4","","","","","","","","",""
"","","","","","single-stim-button","272","569230","0.0-2.0-46.12-0.12","6392555a9838cc65a9c829ef","D2","batch4","","1337","tol_tohand","","","","tol_peg_1","1337","1337","0","[[0,0,0],[2,0],[1]]","13","[[0,0,0],[2,3],[1]]","12","0","","","","","","4","","","","","","","","",""
"","","","","","single-stim-button","273","569834","0.0-2.0-46.12-1.12","6392555a9838cc65a9c829ef","D2","batch4","","603","tol_toboard","","","","tol_peg_2","603","603","0","[[0,0,0],[2,3],[1]]","13","[[0,0,0],[2,3],[1]]","12","0","","","","","","4","","","","","","","","",""
"","","","","","poldrack-single-stim","274","570842","0.0-2.0-47.0","6392555a9838cc65a9c829ef","D2","batch4","","-1","tol_feedback","","","true","","1000","1000","500","","","","","","-1","none","true","2248","15979","","","","","","","","","",""
"","","","","","html-button-response","275","580105","0.0-2.0-48.0","6392555a9838cc65a9c829ef","D2","batch4","","9260.899999976158","attention_check","<p class = block-text>How many balls are in your board<br></p>","1","true","","","","","","","","","","","","","","","","","","","","","","","",""
"","","","","","html-button-response","276","608665","0.0-2.0-49.0","6392555a9838cc65a9c829ef","D2","batch4","","28559.399999976158","tol_trial_num","<div class = centerbox><p class = center-block-text>problem <strong>14</strong> out of 25 problems</p></div>","0","","","","","","","","","","","","","","","","","","","","","","","","",""
"","","","","","single-stim-button","277","637917","0.0-2.0-50.0-0.0","6392555a9838cc65a9c829ef","D2","batch4","","29250","tol_tohand","","","","tol_peg_1","29250","29250","0","[[2,0,0],[3,0],[0]]","1","[[1,2,0],[3,0],[0]]","13","0","","","","","","4","","","","","","","","",""
"","","","","","single-stim-button","278","639319","0.0-2.0-50.0-1.0","6392555a9838cc65a9c829ef","D2","batch4","","1400","tol_toboard","","","","tol_peg_3","1400","1400","0","[[2,0,0],[3,0],[1]]","1","[[1,2,0],[3,0],[0]]","13","0","","","","","","4","","","","","","","","",""
"","","","","","single-stim-button","279","640005","0.0-2.0-50.1-0.1","6392555a9838cc65a9c829ef","D2","batch4","","684","tol_tohand","","","","tol_peg_1","684","684","0","[[0,0,0],[3,0],[1]]","2","[[1,2,0],[3,0],[0]]","13","0","","","","","","4","","","","","","","","",""
"","","","","","single-stim-button","280","640561","0.0-2.0-50.1-1.1","6392555a9838cc65a9c829ef","D2","batch4","","554","tol_toboard","","","","tol_peg_2","554","554","0","[[0,0,0],[3,2],[1]]","2","[[1,2,0],[3,0],[0]]","13","0","","","","","","4","","","","","","","","",""
"","","","","","single-stim-button","281","641295","0.0-2.0-50.2-0.2","6392555a9838cc65a9c829ef","D2","batch4","","732","tol_tohand","","","","tol_peg_3","732","732","0","[[0,0,0],[3,2],[0]]","3","[[1,2,0],[3,0],[0]]","13","0","","","","","","4","","","","","","","","",""
"","","","","","single-stim-button","282","642125","0.0-2.0-50.2-1.2","6392555a9838cc65a9c829ef","D2","batch4","","828","tol_toboard","","","","tol_peg_1","828","828","0","[[1,0,0],[3,2],[0]]","3","[[1,2,0],[3,0],[0]]","13","0","","","","","","4","","","","","","","","",""
"","","","","","single-stim-button","283","642891","0.0-2.0-50.3-0.3","6392555a9838cc65a9c829ef","D2","batch4","","764","tol_tohand","","","","tol_peg_2","764","764","0","[[1,0,0],[3,0],[0]]","4","[[1,2,0],[3,0],[0]]","13","0","","","","","","4","","","","","","","","",""
"","","","","","single-stim-button","284","643496","0.0-2.0-50.3-1.3","6392555a9838cc65a9c829ef","D2","batch4","","603","tol_toboard","","","","tol_peg_1","603","603","0","[[1,2,0],[3,0],[0]]","4","[[1,2,0],[3,0],[0]]","13","0","","","","","","4","","","","","","","","",""
"","","","","","poldrack-single-stim","285","644504","0.0-2.0-51.0","6392555a9838cc65a9c829ef","D2","batch4","","-1","tol_feedback","","","true","","1000","1000","500","","","","","","-1","none","true","29250","31430","","","","","","","","","",""
"","","","","","html-button-response","286","645575","0.0-2.0-52.0","6392555a9838cc65a9c829ef","D2","batch4","","1068.2999999523163","tol_trial_num","<div class = centerbox><p class = center-block-text>problem <strong>15</strong> out of 25 problems</p></div>","0","","","","","","","","","","","","","","","","","","","","","","","","",""
"","","","","","single-stim-button","287","676993","0.0-2.0-53.0-0.0","6392555a9838cc65a9c829ef","D2","batch4","","31416","tol_tohand","","","","tol_peg_1","31416","31416","0","[[1,0,0],[3,0],[0]]","1","[[2,0,0],[3,0],[1]]","14","0","","","","","","3","","","","","","","","",""
"","","","","","single-stim-button","288","677735","0.0-2.0-53.0-1.0","6392555a9838cc65a9c829ef","D2","batch4","","740","tol_toboard","","","","tol_peg_2","740","740","0","[[1,0,0],[3,2],[0]]","1","[[2,0,0],[3,0],[1]]","14","0","","","","","","3","","","","","","","","",""
"","","","","","single-stim-button","289","678307","0.0-2.0-53.1-0.1","6392555a9838cc65a9c829ef","D2","batch4","","570","tol_tohand","","","","tol_peg_1","570","570","0","[[0,0,0],[3,2],[0]]","2","[[2,0,0],[3,0],[1]]","14","0","","","","","","3","","","","","","","","",""
"","","","","","single-stim-button","290","679065","0.0-2.0-53.1-1.1","6392555a9838cc65a9c829ef","D2","batch4","","755","tol_toboard","","","","tol_peg_3","755","755","0","[[0,0,0],[3,2],[1]]","2","[[2,0,0],[3,0],[1]]","14","0","","","","","","3","","","","","","","","",""
"","","","","","single-stim-button","291","679751","0.0-2.0-53.2-0.2","6392555a9838cc65a9c829ef","D2","batch4","","683","tol_tohand","","","","tol_peg_2","683","683","0","[[0,0,0],[3,0],[1]]","3","[[2,0,0],[3,0],[1]]","14","0","","","","","","3","","","","","","","","",""
"","","","","","single-stim-button","292","680404","0.0-2.0-53.2-1.2","6392555a9838cc65a9c829ef","D2","batch4","","651","tol_toboard","","","","tol_peg_1","651","651","0","[[2,0,0],[3,0],[1]]","3","[[2,0,0],[3,0],[1]]","14","0","","","","","","3","","","","","","","","",""
"","","","","","poldrack-single-stim","293","681406","0.0-2.0-54.0","6392555a9838cc65a9c829ef","D2","batch4","","-1","tol_feedback","","","true","","1000","1000","500","","","","","","-1","none","true","31416","32669","","","","","","","","","",""
"","","","","","html-button-response","294","682363","0.0-2.0-55.0","6392555a9838cc65a9c829ef","D2","batch4","","954.8000000715256","tol_trial_num","<div class = centerbox><p class = center-block-text>problem <strong>16</strong> out of 25 problems</p></div>","0","","","","","","","","","","","","","","","","","","","","","","","","",""
"","","","","","single-stim-button","295","689502","0.0-2.0-56.0-0.0","6392555a9838cc65a9c829ef","D2","batch4","","7137","tol_tohand","","","","tol_peg_2","7137","7137","0","[[0,0,0],[2,0],[1]]","1","[[2,3,0],[1,0],[0]]","15","0","","","","","","7","","","","","","","","",""
"","","","","","single-stim-button","296","690090","0.0-2.0-56.0-1.0","6392555a9838cc65a9c829ef","D2","batch4","","587","tol_toboard","","","","tol_peg_1","587","587","0","[[3,0,0],[2,0],[1]]","1","[[2,3,0],[1,0],[0]]","15","0","","","","","","7","","","","","","","","",""
"","","","","","single-stim-button","297","690985","0.0-2.0-56.1-0.1","6392555a9838cc65a9c829ef","D2","batch4","","892","tol_tohand","","","","tol_peg_3","892","892","0","[[3,0,0],[2,0],[0]]","2","[[2,3,0],[1,0],[0]]","15","0","","","","","","7","","","","","","","","",""
"","","","","","single-stim-button","298","691589","0.0-2.0-56.1-1.1","6392555a9838cc65a9c829ef","D2","batch4","","602","tol_toboard","","","","tol_peg_2","602","602","0","[[3,0,0],[2,1],[0]]","2","[[2,3,0],[1,0],[0]]","15","0","","","","","","7","","","","","","","","",""
"","","","","","single-stim-button","299","692316","0.0-2.0-56.2-0.2","6392555a9838cc65a9c829ef","D2","batch4","","725","tol_tohand","","","","tol_peg_1","725","725","0","[[0,0,0],[2,1],[0]]","3","[[2,3,0],[1,0],[0]]","15","0","","","","","","7","","","","","","","","",""
"","","","","","single-stim-button","300","693129","0.0-2.0-56.2-1.2","6392555a9838cc65a9c829ef","D2","batch4","","811","tol_toboard","","","","tol_peg_3","811","811","0","[[0,0,0],[2,1],[3]]","3","[[2,3,0],[1,0],[0]]","15","0","","","","","","7","","","","","","","","",""
"","","","","","single-stim-button","301","694007","0.0-2.0-56.3-0.3","6392555a9838cc65a9c829ef","D2","batch4","","876","tol_tohand","","","","tol_peg_2","876","876","0","[[0,0,0],[2,0],[3]]","4","[[2,3,0],[1,0],[0]]","15","0","","","","","","7","","","","","","","","",""
"","","","","","single-stim-button","302","694686","0.0-2.0-56.3-1.3","6392555a9838cc65a9c829ef","D2","batch4","","677","tol_toboard","","","","tol_peg_1","677","677","0","[[1,0,0],[2,0],[3]]","4","[[2,3,0],[1,0],[0]]","15","0","","","","","","7","","","","","","","","",""
"","","","","","single-stim-button","303","695992","0.0-2.0-56.4-0.4","6392555a9838cc65a9c829ef","D2","batch4","","1304","tol_tohand","","","","tol_peg_2","1304","1304","0","[[1,0,0],[0,0],[3]]","5","[[2,3,0],[1,0],[0]]","15","0","","","","","","7","","","","","","","","",""
"","","","","","single-stim-button","304","696669","0.0-2.0-56.4-1.4","6392555a9838cc65a9c829ef","D2","batch4","","675","tol_toboard","","","","tol_peg_1","675","675","0","[[1,2,0],[0,0],[3]]","5","[[2,3,0],[1,0],[0]]","15","0","","","","","","7","","","","","","","","",""
"","","","","","single-stim-button","305","699184","0.0-2.0-56.5-0.5","6392555a9838cc65a9c829ef","D2","batch4","","2514","tol_tohand","","","","tol_peg_3","2514","2514","0","[[1,2,0],[0,0],[0]]","6","[[2,3,0],[1,0],[0]]","15","0","","","","","","7","","","","","","","","",""
"","","","","","single-stim-button","306","699910","0.0-2.0-56.5-1.5","6392555a9838cc65a9c829ef","D2","batch4","","725","tol_toboard","","","","tol_peg_2","725","725","0","[[1,2,0],[3,0],[0]]","6","[[2,3,0],[1,0],[0]]","15","0","","","","","","7","","","","","","","","",""
"","","","","","single-stim-button","307","700620","0.0-2.0-56.6-0.6","6392555a9838cc65a9c829ef","D2","batch4","","708","tol_tohand","","","","tol_peg_1","708","708","0","[[1,0,0],[3,0],[0]]","7","[[2,3,0],[1,0],[0]]","15","0","","","","","","7","","","","","","","","",""
"","","","","","single-stim-button","308","701418","0.0-2.0-56.6-1.6","6392555a9838cc65a9c829ef","D2","batch4","","796","tol_toboard","","","","tol_peg_2","796","796","0","[[1,0,0],[3,2],[0]]","7","[[2,3,0],[1,0],[0]]","15","0","","","","","","7","","","","","","","","",""
"","","","","","single-stim-button","309","702047","0.0-2.0-56.7-0.7","6392555a9838cc65a9c829ef","D2","batch4","","627","tol_tohand","","","","tol_peg_1","627","627","0","[[0,0,0],[3,2],[0]]","8","[[2,3,0],[1,0],[0]]","15","0","","","","","","7","","","","","","","","",""
"","","","","","single-stim-button","310","703634","0.0-2.0-56.7-1.7","6392555a9838cc65a9c829ef","D2","batch4","","1585","tol_toboard","","","","tol_peg_3","1585","1585","0","[[0,0,0],[3,2],[1]]","8","[[2,3,0],[1,0],[0]]","15","0","","","","","","7","","","","","","","","",""
"","","","","","single-stim-button","311","704329","0.0-2.0-56.8-0.8","6392555a9838cc65a9c829ef","D2","batch4","","693","tol_tohand","","","","tol_peg_2","693","693","0","[[0,0,0],[3,0],[1]]","9","[[2,3,0],[1,0],[0]]","15","0","","","","","","7","","","","","","","","",""
"","","","","","single-stim-button","312","704982","0.0-2.0-56.8-1.8","6392555a9838cc65a9c829ef","D2","batch4","","651","tol_toboard","","","","tol_peg_1","651","651","0","[[2,0,0],[3,0],[1]]","9","[[2,3,0],[1,0],[0]]","15","0","","","","","","7","","","","","","","","",""
"","","","","","single-stim-button","313","705908","0.0-2.0-56.9-0.9","6392555a9838cc65a9c829ef","D2","batch4","","924","tol_tohand","","","","tol_peg_2","924","924","0","[[2,0,0],[0,0],[1]]","10","[[2,3,0],[1,0],[0]]","15","0","","","","","","7","","","","","","","","",""
"","","","","","single-stim-button","314","706521","0.0-2.0-56.9-1.9","6392555a9838cc65a9c829ef","D2","batch4","","611","tol_toboard","","","","tol_peg_1","611","611","0","[[2,3,0],[0,0],[1]]","10","[[2,3,0],[1,0],[0]]","15","0","","","","","","7","","","","","","","","",""
"","","","","","single-stim-button","315","707199","0.0-2.0-56.10-0.10","6392555a9838cc65a9c829ef","D2","batch4","","676","tol_tohand","","","","tol_peg_3","676","676","0","[[2,3,0],[0,0],[0]]","11","[[2,3,0],[1,0],[0]]","15","0","","","","","","7","","","","","","","","",""
"","","","","","single-stim-button","316","707909","0.0-2.0-56.10-1.10","6392555a9838cc65a9c829ef","D2","batch4","","708","tol_toboard","","","","tol_peg_2","708","708","0","[[2,3,0],[1,0],[0]]","11","[[2,3,0],[1,0],[0]]","15","0","","","","","","7","","","","","","","","",""
"","","","","","poldrack-single-stim","317","708915","0.0-2.0-57.0","6392555a9838cc65a9c829ef","D2","batch4","","-1","tol_feedback","","","true","","1000","1000","500","","","","","","-1","none","true","7137","17076","","","","","","","","","",""
"","","","","","html-button-response","318","709812","0.0-2.0-58.0","6392555a9838cc65a9c829ef","D2","batch4","","894.1000000238419","tol_trial_num","<div class = centerbox><p class = center-block-text>problem <strong>17</strong> out of 25 problems</p></div>","0","","","","","","","","","","","","","","","","","","","","","","","","",""
"","","","","","single-stim-button","319","715416","0.0-2.0-59.0-0.0","6392555a9838cc65a9c829ef","D2","batch4","","5602","tol_tohand","","","","tol_peg_2","5602","5602","0","[[1,2,0],[0,0],[0]]","1","[[3,1,0],[2,0],[0]]","16","0","","","","","","5","","","","","","","","",""
"","","","","","single-stim-button","320","716149","0.0-2.0-59.0-1.0","6392555a9838cc65a9c829ef","D2","batch4","","731","tol_toboard","","","","tol_peg_3","731","731","0","[[1,2,0],[0,0],[3]]","1","[[3,1,0],[2,0],[0]]","16","0","","","","","","5","","","","","","","","",""
"","","","","","single-stim-button","321","716860","0.0-2.0-59.1-0.1","6392555a9838cc65a9c829ef","D2","batch4","","708","tol_tohand","","","","tol_peg_1","708","708","0","[[1,0,0],[0,0],[3]]","2","[[3,1,0],[2,0],[0]]","16","0","","","","","","5","","","","","","","","",""
"","","","","","single-stim-button","322","717592","0.0-2.0-59.1-1.1","6392555a9838cc65a9c829ef","D2","batch4","","730","tol_toboard","","","","tol_peg_2","730","730","0","[[1,0,0],[2,0],[3]]","2","[[3,1,0],[2,0],[0]]","16","0","","","","","","5","","","","","","","","",""
"","","","","","single-stim-button","323","718375","0.0-2.0-59.2-0.2","6392555a9838cc65a9c829ef","D2","batch4","","781","tol_tohand","","","","tol_peg_1","781","781","0","[[0,0,0],[2,0],[3]]","3","[[3,1,0],[2,0],[0]]","16","0","","","","","","5","","","","","","","","",""
"","","","","","single-stim-button","324","718970","0.0-2.0-59.2-1.2","6392555a9838cc65a9c829ef","D2","batch4","","593","tol_toboard","","","","tol_peg_2","593","593","0","[[0,0,0],[2,1],[3]]","3","[[3,1,0],[2,0],[0]]","16","0","","","","","","5","","","","","","","","",""
"","","","","","single-stim-button","325","719843","0.0-2.0-59.3-0.3","6392555a9838cc65a9c829ef","D2","batch4","","872","tol_tohand","","","","tol_peg_3","872","872","0","[[0,0,0],[2,1],[0]]","4","[[3,1,0],[2,0],[0]]","16","0","","","","","","5","","","","","","","","",""
"","","","","","single-stim-button","326","721173","0.0-2.0-59.3-1.3","6392555a9838cc65a9c829ef","D2","batch4","","1328","tol_toboard","","","","tol_peg_1","1328","1328","0","[[3,0,0],[2,1],[0]]","4","[[3,1,0],[2,0],[0]]","16","0","","","","","","5","","","","","","","","",""
"","","","","","single-stim-button","327","721874","0.0-2.0-59.4-0.4","6392555a9838cc65a9c829ef","D2","batch4","","699","tol_tohand","","","","tol_peg_2","699","699","0","[[3,0,0],[2,0],[0]]","5","[[3,1,0],[2,0],[0]]","16","0","","","","","","5","","","","","","","","",""
"","","","","","single-stim-button","328","722503","0.0-2.0-59.4-1.4","6392555a9838cc65a9c829ef","D2","batch4","","627","tol_toboard","","","","tol_peg_1","627","627","0","[[3,1,0],[2,0],[0]]","5","[[3,1,0],[2,0],[0]]","16","0","","","","","","5","","","","","","","","",""
"","","","","","poldrack-single-stim","329","723505","0.0-2.0-60.0","6392555a9838cc65a9c829ef","D2","batch4","","-1","tol_feedback","","","true","","1000","1000","500","","","","","","-1","none","true","5602","8662","","","","","","","","","",""
"","","","","","html-button-response","330","724615","0.0-2.0-61.0","6392555a9838cc65a9c829ef","D2","batch4","","1108.7000000476837","tol_trial_num","<div class = centerbox><p class = center-block-text>problem <strong>18</strong> out of 25 problems</p></div>","0","","","","","","","","","","","","","","","","","","","","","","","","",""
"","","","","","single-stim-button","331","731784","0.0-2.0-62.0-0.0","6392555a9838cc65a9c829ef","D2","batch4","","7167","tol_tohand","","","","tol_peg_2","7167","7167","0","[[1,2,0],[0,0],[0]]","1","[[3,0,0],[2,0],[1]]","17","0","","","","","","5","","","","","","","","",""
"","","","","","single-stim-button","332","732510","0.0-2.0-62.0-1.0","6392555a9838cc65a9c829ef","D2","batch4","","724","tol_toboard","","","","tol_peg_3","724","724","0","[[1,2,0],[0,0],[3]]","1","[[3,0,0],[2,0],[1]]","17","0","","","","","","5","","","","","","","","",""
"","","","","","single-stim-button","333","733340","0.0-2.0-62.1-0.1","6392555a9838cc65a9c829ef","D2","batch4","","829","tol_tohand","","","","tol_peg_1","829","829","0","[[1,0,0],[0,0],[3]]","2","[[3,0,0],[2,0],[1]]","17","0","","","","","","5","","","","","","","","",""
"","","","","","single-stim-button","334","734009","0.0-2.0-62.1-1.1","6392555a9838cc65a9c829ef","D2","batch4","","667","tol_toboard","","","","tol_peg_2","667","667","0","[[1,0,0],[2,0],[3]]","2","[[3,0,0],[2,0],[1]]","17","0","","","","","","5","","","","","","","","",""
"","","","","","single-stim-button","335","734848","0.0-2.0-62.2-0.2","6392555a9838cc65a9c829ef","D2","batch4","","836","tol_tohand","","","","tol_peg_1","836","836","0","[[0,0,0],[2,0],[3]]","3","[[3,0,0],[2,0],[1]]","17","0","","","","","","5","","","","","","","","",""
"","","","","","single-stim-button","336","735436","0.0-2.0-62.2-1.2","6392555a9838cc65a9c829ef","D2","batch4","","587","tol_toboard","","","","tol_peg_2","587","587","0","[[0,0,0],[2,1],[3]]","3","[[3,0,0],[2,0],[1]]","17","0","","","","","","5","","","","","","","","",""
"","","","","","single-stim-button","337","736121","0.0-2.0-62.3-0.3","6392555a9838cc65a9c829ef","D2","batch4","","683","tol_tohand","","","","tol_peg_3","683","683","0","[[0,0,0],[2,1],[0]]","4","[[3,0,0],[2,0],[1]]","17","0","","","","","","5","","","","","","","","",""
"","","","","","single-stim-button","338","736719","0.0-2.0-62.3-1.3","6392555a9838cc65a9c829ef","D2","batch4","","596","tol_toboard","","","","tol_peg_1","596","596","0","[[3,0,0],[2,1],[0]]","4","[[3,0,0],[2,0],[1]]","17","0","","","","","","5","","","","","","","","",""
"","","","","","single-stim-button","339","737461","0.0-2.0-62.4-0.4","6392555a9838cc65a9c829ef","D2","batch4","","740","tol_tohand","","","","tol_peg_2","740","740","0","[[3,0,0],[2,0],[0]]","5","[[3,0,0],[2,0],[1]]","17","0","","","","","","5","","","","","","","","",""
"","","","","","single-stim-button","340","738517","0.0-2.0-62.4-1.4","6392555a9838cc65a9c829ef","D2","batch4","","1054","tol_toboard","","","","tol_peg_3","1054","1054","0","[[3,0,0],[2,0],[1]]","5","[[3,0,0],[2,0],[1]]","17","0","","","","","","5","","","","","","","","",""
"","","","","","poldrack-single-stim","341","739523","0.0-2.0-63.0","6392555a9838cc65a9c829ef","D2","batch4","","-1","tol_feedback","","","true","","1000","1000","500","","","","","","-1","none","true","7167","10255","","","","","","","","","",""
"","","","","","html-button-response","342","740299","0.0-2.0-64.0","6392555a9838cc65a9c829ef","D2","batch4","","773.3999999761581","tol_trial_num","<div class = centerbox><p class = center-block-text>problem <strong>19</strong> out of 25 problems</p></div>","0","","","","","","","","","","","","","","","","","","","","","","","","",""
"","","","","","single-stim-button","343","761368","0.0-2.0-65.0-0.0","6392555a9838cc65a9c829ef","D2","batch4","","21067","tol_tohand","","","","tol_peg_1","21067","21067","0","[[1,0,0],[3,0],[0]]","1","[[0,0,0],[1,2],[3]]","18","0","","","","","","7","","","","","","","","",""
"","","","","","single-stim-button","344","762022","0.0-2.0-65.0-1.0","6392555a9838cc65a9c829ef","D2","batch4","","651","tol_toboard","","","","tol_peg_2","651","651","0","[[1,0,0],[3,2],[0]]","1","[[0,0,0],[1,2],[3]]","18","0","","","","","","7","","","","","","","","",""
"","","","","","single-stim-button","345","762603","0.0-2.0-65.1-0.1","6392555a9838cc65a9c829ef","D2","batch4","","578","tol_tohand","","","","tol_peg_1","578","578","0","[[0,0,0],[3,2],[0]]","2","[[0,0,0],[1,2],[3]]","18","0","","","","","","7","","","","","","","","",""
"","","","","","single-stim-button","346","763794","0.0-2.0-65.1-1.1","6392555a9838cc65a9c829ef","D2","batch4","","1189","tol_toboard","","","","tol_peg_3","1189","1189","0","[[0,0,0],[3,2],[1]]","2","[[0,0,0],[1,2],[3]]","18","0","","","","","","7","","","","","","","","",""
"","","","","","single-stim-button","347","764505","0.0-2.0-65.2-0.2","6392555a9838cc65a9c829ef","D2","batch4","","709","tol_tohand","","","","tol_peg_2","709","709","0","[[0,0,0],[3,0],[1]]","3","[[0,0,0],[1,2],[3]]","18","0","","","","","","7","","","","","","","","",""
"","","","","","single-stim-button","348","765143","0.0-2.0-65.2-1.2","6392555a9838cc65a9c829ef","D2","batch4","","635","tol_toboard","","","","tol_peg_1","635","635","0","[[2,0,0],[3,0],[1]]","3","[[0,0,0],[1,2],[3]]","18","0","","","","","","7","","","","","","","","",""
"","","","","","single-stim-button","349","765706","0.0-2.0-65.3-0.3","6392555a9838cc65a9c829ef","D2","batch4","","561","tol_tohand","","","","tol_peg_2","561","561","0","[[2,0,0],[0,0],[1]]","4","[[0,0,0],[1,2],[3]]","18","0","","","","","","7","","","","","","","","",""
"","","","","","single-stim-button","350","766255","0.0-2.0-65.3-1.3","6392555a9838cc65a9c829ef","D2","batch4","","547","tol_toboard","","","","tol_peg_1","547","547","0","[[2,3,0],[0,0],[1]]","4","[[0,0,0],[1,2],[3]]","18","0","","","","","","7","","","","","","","","",""
"","","","","","single-stim-button","351","766997","0.0-2.0-65.4-0.4","6392555a9838cc65a9c829ef","D2","batch4","","739","tol_tohand","","","","tol_peg_3","739","739","0","[[2,3,0],[0,0],[0]]","5","[[0,0,0],[1,2],[3]]","18","0","","","","","","7","","","","","","","","",""
"","","","","","single-stim-button","352","767715","0.0-2.0-65.4-1.4","6392555a9838cc65a9c829ef","D2","batch4","","715","tol_toboard","","","","tol_peg_2","715","715","0","[[2,3,0],[1,0],[0]]","5","[[0,0,0],[1,2],[3]]","18","0","","","","","","7","","","","","","","","",""
"","","","","","single-stim-button","353","768673","0.0-2.0-65.5-0.5","6392555a9838cc65a9c829ef","D2","batch4","","956","tol_tohand","","","","tol_peg_1","956","956","0","[[2,0,0],[1,0],[0]]","6","[[0,0,0],[1,2],[3]]","18","0","","","","","","7","","","","","","","","",""
"","","","","","single-stim-button","354","769391","0.0-2.0-65.5-1.5","6392555a9838cc65a9c829ef","D2","batch4","","715","tol_toboard","","","","tol_peg_3","715","715","0","[[2,0,0],[1,0],[3]]","6","[[0,0,0],[1,2],[3]]","18","0","","","","","","7","","","","","","","","",""
