"success","timeout","failed_images","failed_audio","failed_video","trial_type","trial_index","time_elapsed","internal_node_id","subject_id","study_id","session_id","view_history","rt","task","stimulus","response","correct","mouse_click","stim_duration","block_duration","timing_post_trial","current_position","tol_num_moves_made","tol_target","tol_problem_id","tol_rt","key_press","possible_responses","tol_correct","preplanning","tol_rt_per_trial","tol_min_moves","item","answer","spm_correct","spm_rt","fiar_detect_rt","fiar_detect_correct","total_correct_fiar_detect","post_trial_gap","choices"
"true","false","[]","[]","[]","preload","0","47070","0.0-0.0","639618dc4a68e64c6956c39c","E1","batch5","","","","","","","","","","","","","","","","","","","","","","","","","","","","","",""
"true","","","","","fullscreen","1","53293","0.0-1.0-0.0","639618dc4a68e64c6956c39c","E1","batch5","","","","","","","","","","","","","","","","","","","","","","","","","","","","","",""
"true","","","","","fullscreen","2","56273","0.0-2.0-0.0","639618dc4a68e64c6956c39c","E1","batch5","","","","","","","","","","","","","","","","","","","","","","","","","","","","","",""
"","","","","","instructions","3","107578","0.0-2.0-1.0-0.0-0.0","639618dc4a68e64c6956c39c","E1","batch5","[{""page_index"":0,""viewing_time"":12852.5},{""page_index"":1,""viewing_time"":6482.5},{""page_index"":2,""viewing_time"":7934.099999904633},{""page_index"":3,""viewing_time"":4830.600000143051},{""page_index"":4,""viewing_time"":3652.5},{""page_index"":5,""viewing_time"":2713.7999999523163},{""page_index"":4,""viewing_time"":3117.2999999523163},{""page_index"":5,""viewing_time"":7469.5},{""page_index"":6,""viewing_time"":2249.2999999523163}]","51303.39999985695","tol-instructions","","","","","","","","","","","","","","","","","","","","","","","","","","",""
"","","","","","html-button-response","4","109078","0.0-2.0-1.0-1.0-0.0","639618dc4a68e64c6956c39c","E1","batch5","","1495","tol_enter_quiz","<p class=block-text> Let's answer a few questions <br>","0","","","","","","","","","","","","","","","","","","","","","","","","",""
"","","","","","html-button-response","5","114229","0.0-2.0-1.0-1.0-1.0","639618dc4a68e64c6956c39c","E1","batch5","","5145.900000095367","tol_quiz","<p class = block-text>True or False: You can only move the ball on top of a peg. <br></p>","1","false","","","","","","","","","","","","","","","","","","","","","","","",""
"","","","","","html-button-response","6","115879","0.0-2.0-1.0-1.0-2.0","639618dc4a68e64c6956c39c","E1","batch5","","1640.9000000953674","tol_quiz_feedback","<p class = block-text>Incorrect. Remember, you can only move the ball on top of a peg.</p>","0","","","","","","","","","","","","","","","","","","","","","","","","",""
"","","","","","html-button-response","7","117674","0.0-2.0-1.0-1.0-3.0","639618dc4a68e64c6956c39c","E1","batch5","","1789.3999998569489","tol_quiz","<p class = block-text>True or False: You should try to match your board with the target board with fewest moves possible. <br></p>","0","true","","","","","","","","","","","","","","","","","","","","","","","",""
"","","","","","html-button-response","8","118880","0.0-2.0-1.0-1.0-4.0","639618dc4a68e64c6956c39c","E1","batch5","","1202.7999999523163","tol_quiz_feedback","<p class = block-text>Correct! </p>","0","","","","","","","","","","","","","","","","","","","","","","","","",""
"","","","","","html-button-response","9","120553","0.0-2.0-1.0-2.0-0.0","639618dc4a68e64c6956c39c","E1","batch5","","1665.2999999523163","","<p class = block-text>You made too many incorrect choices.</p><p class = block-text>You will now repeat the instructions and quiz</p>","0","","","","","","","","","","","","","","","","","","","","","","","","",""
"","","","","","instructions","10","137861","0.0-2.0-1.1-0.1-0.1","639618dc4a68e64c6956c39c","E1","batch5","[{""page_index"":0,""viewing_time"":3567.9000000953674},{""page_index"":1,""viewing_time"":2767.899999856949},{""page_index"":2,""viewing_time"":2152},{""page_index"":3,""viewing_time"":3564.100000143051},{""page_index"":4,""viewing_time"":2051.7000000476837},{""page_index"":5,""viewing_time"":1514.7999999523163},{""page_index"":6,""viewing_time"":1685.2000000476837}]","17304.299999952316","tol-instructions","","","","","","","","","","","","","","","","","","","","","","","","","","",""
"","","","","","html-button-response","11","139174","0.0-2.0-1.1-1.1-0.1","639618dc4a68e64c6956c39c","E1","batch5","","1310.9000000953674","tol_enter_quiz","<p class=block-text> Let's answer a few questions <br>","0","","","","","","","","","","","","","","","","","","","","","","","","",""
"","","","","","html-button-response","12","140649","0.0-2.0-1.1-1.1-1.1","639618dc4a68e64c6956c39c","E1","batch5","","1471.7000000476837","tol_quiz","<p class = block-text>True or False: You can only move the ball on top of a peg. <br></p>","0","true","","","","","","","","","","","","","","","","","","","","","","","",""
"","","","","","html-button-response","13","141659","0.0-2.0-1.1-1.1-2.1","639618dc4a68e64c6956c39c","E1","batch5","","1005.4000000953674","tol_quiz_feedback","<p class = block-text>Correct! You can only move the ball on top of a peg.</p>","0","","","","","","","","","","","","","","","","","","","","","","","","",""
"","","","","","html-button-response","14","142875","0.0-2.0-1.1-1.1-3.1","639618dc4a68e64c6956c39c","E1","batch5","","1214.2000000476837","tol_quiz","<p class = block-text>True or False: You should try to match your board with the target board with fewest moves possible. <br></p>","0","true","","","","","","","","","","","","","","","","","","","","","","","",""
"","","","","","html-button-response","15","143879","0.0-2.0-1.1-1.1-4.1","639618dc4a68e64c6956c39c","E1","batch5","","1000.5","tol_quiz_feedback","<p class = block-text>Correct! </p>","0","","","","","","","","","","","","","","","","","","","","","","","","",""
"","","","","","html-button-response","16","145878","0.0-2.0-2.0","639618dc4a68e64c6956c39c","E1","batch5","","1995.0999999046326","","<p class=block-text> Now that you've understood the game, let's practice a few easier examples before we start!<br> <br>","0","","","","","","","","","","","","","","","","","","","","","","","","",""
"","","","","","single-stim-button","17","148299","0.0-2.0-3.0-0.0","639618dc4a68e64c6956c39c","E1","batch5","","2413","tol_practice","","","","tol_peg_2","2413","2413","0","[[1,2,0],[0,0],[0]]","1","[[1,2,0],[0,0],[3]]","practice","2413","","","","","","","","","","","","","","",""
"","","","","","single-stim-button","18","156526","0.0-2.0-3.0-1.0","639618dc4a68e64c6956c39c","E1","batch5","","8220","tol_practice","","","","tol_peg_3","8220","8220","0","[[1,2,0],[0,0],[3]]","1","[[1,2,0],[0,0],[3]]","practice","8220","","","","","","","","","","","","","","",""
"","","","","","poldrack-single-stim","19","157545","0.0-2.0-4.0","639618dc4a68e64c6956c39c","E1","batch5","","-1","tol_feedback","","","true","","1000","1000","500","","","","","","-1","none","true","","0","","","","","","","","","",""
"","","","","","single-stim-button","20","164395","0.0-2.0-5.0-0.0","639618dc4a68e64c6956c39c","E1","batch5","","6846","tol_practice","","","","tol_peg_1","6846","6846","0","[[1,0,0],[3,0],[0]]","2","[[0,0,0],[3,1],[2]]","practice","6846","","","","","","","","","","","","","","",""
"","","","","","single-stim-button","21","165960","0.0-2.0-5.0-1.0","639618dc4a68e64c6956c39c","E1","batch5","","1561","tol_practice","","","","tol_peg_3","1561","1561","0","[[1,0,0],[3,0],[2]]","2","[[0,0,0],[3,1],[2]]","practice","1561","","","","","","","","","","","","","","",""
"","","","","","single-stim-button","22","167860","0.0-2.0-5.1-0.1","639618dc4a68e64c6956c39c","E1","batch5","","1897","tol_practice","","","","tol_peg_1","1897","1897","0","[[0,0,0],[3,0],[2]]","3","[[0,0,0],[3,1],[2]]","practice","1897","","","","","","","","","","","","","","",""
"","","","","","single-stim-button","23","169026","0.0-2.0-5.1-1.1","639618dc4a68e64c6956c39c","E1","batch5","","1163","tol_practice","","","","tol_peg_2","1163","1163","0","[[0,0,0],[3,1],[2]]","3","[[0,0,0],[3,1],[2]]","practice","1163","","","","","","","","","","","","","","",""
"","","","","","poldrack-single-stim","24","170041","0.0-2.0-6.0","639618dc4a68e64c6956c39c","E1","batch5","","-1","tol_feedback","","","true","","1000","1000","500","","","","","","-1","none","true","","0","","","","","","","","","",""
"","","","","","single-stim-button","25","174959","0.0-2.0-7.0-0.0","639618dc4a68e64c6956c39c","E1","batch5","","4915","tol_practice","","","","tol_peg_2","4915","4915","0","[[1,2,0],[0,0],[0]]","4","[[1,0,0],[2,0],[3]]","practice","4915","","","","","","","","","","","","","","",""
"","","","","","single-stim-button","26","176160","0.0-2.0-7.0-1.0","639618dc4a68e64c6956c39c","E1","batch5","","1197","tol_practice","","","","tol_peg_3","1197","1197","0","[[1,2,0],[0,0],[3]]","4","[[1,0,0],[2,0],[3]]","practice","1197","","","","","","","","","","","","","","",""
"","","","","","single-stim-button","27","177409","0.0-2.0-7.1-0.1","639618dc4a68e64c6956c39c","E1","batch5","","1246","tol_practice","","","","tol_peg_1","1246","1246","0","[[1,0,0],[0,0],[3]]","5","[[1,0,0],[2,0],[3]]","practice","1246","","","","","","","","","","","","","","",""
"","","","","","single-stim-button","28","178826","0.0-2.0-7.1-1.1","639618dc4a68e64c6956c39c","E1","batch5","","1413","tol_practice","","","","tol_peg_2","1413","1413","0","[[1,0,0],[2,0],[3]]","5","[[1,0,0],[2,0],[3]]","practice","1413","","","","","","","","","","","","","","",""
"","","","","","poldrack-single-stim","29","179839","0.0-2.0-8.0","639618dc4a68e64c6956c39c","E1","batch5","","-1","tol_feedback","","","true","","1000","1000","500","","","","","","-1","none","true","","0","","","","","","","","","",""
"","","","","","html-button-response","30","182058","0.0-2.0-9.0","639618dc4a68e64c6956c39c","E1","batch5","","2216.5","tol_instruction","<div class = centerbox><p class = center-block-text>Great job! You are done with practice trials<br>You are about to start official trials.<br> <br> Problem <strong>1</strong> out of 25 problems</p></div>","0","","","","","","","","","","","","","","","","","","","","","","","","",""
"","","","","","single-stim-button","31","189526","0.0-2.0-10.0-0.0","639618dc4a68e64c6956c39c","E1","batch5","","6450","tol_tohand","","","","tol_peg_2","6450","6450","0","[[1,2,0],[0,0],[0]]","1","[[1,3,0],[2,0],[0]]","0","0","","","","","","3","","","","","","","","",""
"","","","","","single-stim-button","32","193960","0.0-2.0-10.0-1.0","639618dc4a68e64c6956c39c","E1","batch5","","4430","tol_toboard","","","","tol_peg_3","4430","4430","0","[[1,2,0],[0,0],[3]]","1","[[1,3,0],[2,0],[0]]","0","0","","","","","","3","","","","","","","","",""
"","","","","","single-stim-button","33","195409","0.0-2.0-10.1-0.1","639618dc4a68e64c6956c39c","E1","batch5","","1444","tol_tohand","","","","tol_peg_1","1444","1444","0","[[1,0,0],[0,0],[3]]","2","[[1,3,0],[2,0],[0]]","0","0","","","","","","3","","","","","","","","",""
"","","","","","single-stim-button","34","197561","0.0-2.0-10.1-1.1","639618dc4a68e64c6956c39c","E1","batch5","","2150","tol_toboard","","","","tol_peg_2","2150","2150","0","[[1,0,0],[2,0],[3]]","2","[[1,3,0],[2,0],[0]]","0","0","","","","","","3","","","","","","","","",""
"","","","","","single-stim-button","35","199562","0.0-2.0-10.2-0.2","639618dc4a68e64c6956c39c","E1","batch5","","1998","tol_tohand","","","","tol_peg_3","1998","1998","0","[[1,0,0],[2,0],[0]]","3","[[1,3,0],[2,0],[0]]","0","0","","","","","","3","","","","","","","","",""
"","","","","","single-stim-button","36","201743","0.0-2.0-10.2-1.2","639618dc4a68e64c6956c39c","E1","batch5","","2179","tol_toboard","","","","tol_peg_1","2179","2179","0","[[1,3,0],[2,0],[0]]","3","[[1,3,0],[2,0],[0]]","0","0","","","","","","3","","","","","","","","",""
"","","","","","poldrack-single-stim","37","202756","0.0-2.0-11.0","639618dc4a68e64c6956c39c","E1","batch5","","-1","tol_feedback","","","true","","1000","1000","500","","","","","","-1","none","true","6450","9892","","","","","","","","","",""
"","","","","","html-button-response","38","205694","0.0-2.0-12.0","639618dc4a68e64c6956c39c","E1","batch5","","2935.0999999046326","tol_trial_num","<div class = centerbox><p class = center-block-text>problem <strong>2</strong> out of 25 problems</p></div>","0","","","","","","","","","","","","","","","","","","","","","","","","",""
"","","","","","single-stim-button","39","215209","0.0-2.0-13.0-0.0","639618dc4a68e64c6956c39c","E1","batch5","","9512","tol_tohand","","","","tol_peg_1","9512","9512","0","[[1,0,0],[3,0],[0]]","1","[[2,1,3],[0,0],[0]]","1","0","","","","","","5","","","","","","","","",""
"","","","","","single-stim-button","40","218027","0.0-2.0-13.0-1.0","639618dc4a68e64c6956c39c","E1","batch5","","2814","tol_toboard","","","","tol_peg_3","2814","2814","0","[[1,0,0],[3,0],[2]]","1","[[2,1,3],[0,0],[0]]","1","0","","","","","","5","","","","","","","","",""
"","","","","","single-stim-button","41","225377","0.0-2.0-13.1-0.1","639618dc4a68e64c6956c39c","E1","batch5","","7348","tol_tohand","","","","tol_peg_2","7348","7348","0","[[1,0,0],[0,0],[2]]","2","[[2,1,3],[0,0],[0]]","1","0","","","","","","5","","","","","","","","",""
"","","","","","single-stim-button","42","233908","0.0-2.0-13.1-1.1","639618dc4a68e64c6956c39c","E1","batch5","","8527","tol_toboard","","","","tol_peg_2","8527","8527","0","[[1,0,0],[3,0],[2]]","2","[[2,1,3],[0,0],[0]]","1","0","","","","","","5","","","","","","","","",""
"","","","","","single-stim-button","43","238310","0.0-2.0-13.2-0.2","639618dc4a68e64c6956c39c","E1","batch5","","4398","tol_tohand","","","","tol_peg_3","4398","4398","0","[[1,0,0],[3,0],[0]]","3","[[2,1,3],[0,0],[0]]","1","0","","","","","","5","","","","","","","","",""
"","","","","","single-stim-button","44","241508","0.0-2.0-13.2-1.2","639618dc4a68e64c6956c39c","E1","batch5","","3194","tol_toboard","","","","tol_peg_1","3194","3194","0","[[1,2,0],[3,0],[0]]","3","[[2,1,3],[0,0],[0]]","1","0","","","","","","5","","","","","","","","",""
"","","","","","single-stim-button","45","252476","0.0-2.0-13.3-0.3","639618dc4a68e64c6956c39c","E1","batch5","","10966","tol_tohand","","","","tol_peg_1","10966","10966","0","[[1,0,0],[3,0],[0]]","4","[[2,1,3],[0,0],[0]]","1","0","","","","","","5","","","","","","","","",""
"","","","","","single-stim-button","46","254257","0.0-2.0-13.3-1.3","639618dc4a68e64c6956c39c","E1","batch5","","1777","tol_toboard","","","","tol_peg_2","1777","1777","0","[[1,0,0],[3,2],[0]]","4","[[2,1,3],[0,0],[0]]","1","0","","","","","","5","","","","","","","","",""
"","","","","","single-stim-button","47","256942","0.0-2.0-13.4-0.4","639618dc4a68e64c6956c39c","E1","batch5","","2682","tol_tohand","","","","tol_peg_1","2682","2682","0","[[0,0,0],[3,2],[0]]","5","[[2,1,3],[0,0],[0]]","1","0","","","","","","5","","","","","","","","",""
"","","","","","single-stim-button","48","258641","0.0-2.0-13.4-1.4","639618dc4a68e64c6956c39c","E1","batch5","","1697","tol_toboard","","","","tol_peg_3","1697","1697","0","[[0,0,0],[3,2],[1]]","5","[[2,1,3],[0,0],[0]]","1","0","","","","","","5","","","","","","","","",""
"","","","","","single-stim-button","49","260507","0.0-2.0-13.5-0.5","639618dc4a68e64c6956c39c","E1","batch5","","1863","tol_tohand","","","","tol_peg_2","1863","1863","0","[[0,0,0],[3,0],[1]]","6","[[2,1,3],[0,0],[0]]","1","0","","","","","","5","","","","","","","","",""
"","","","","","single-stim-button","50","261958","0.0-2.0-13.5-1.5","639618dc4a68e64c6956c39c","E1","batch5","","1448","tol_toboard","","","","tol_peg_1","1448","1448","0","[[2,0,0],[3,0],[1]]","6","[[2,1,3],[0,0],[0]]","1","0","","","","","","5","","","","","","","","",""
"","","","","","single-stim-button","51","263175","0.0-2.0-13.6-0.6","639618dc4a68e64c6956c39c","E1","batch5","","1215","tol_tohand","","","","tol_peg_3","1215","1215","0","[[2,0,0],[3,0],[0]]","7","[[2,1,3],[0,0],[0]]","1","0","","","","","","5","","","","","","","","",""
"","","","","","single-stim-button","52","264368","0.0-2.0-13.6-1.6","639618dc4a68e64c6956c39c","E1","batch5","","1190","tol_toboard","","","","tol_peg_1","1190","1190","0","[[2,1,0],[3,0],[0]]","7","[[2,1,3],[0,0],[0]]","1","0","","","","","","5","","","","","","","","",""
"","","","","","single-stim-button","53","265412","0.0-2.0-13.7-0.7","639618dc4a68e64c6956c39c","E1","batch5","","1040","tol_tohand","","","","tol_peg_2","1040","1040","0","[[2,1,0],[0,0],[0]]","8","[[2,1,3],[0,0],[0]]","1","0","","","","","","5","","","","","","","","",""
"","","","","","single-stim-button","54","266793","0.0-2.0-13.7-1.7","639618dc4a68e64c6956c39c","E1","batch5","","1377","tol_toboard","","","","tol_peg_1","1377","1377","0","[[2,1,3],[0,0],[0]]","8","[[2,1,3],[0,0],[0]]","1","0","","","","","","5","","","","","","","","",""
"","","","","","poldrack-single-stim","55","267806","0.0-2.0-14.0","639618dc4a68e64c6956c39c","E1","batch5","","-1","tol_feedback","","","true","","1000","1000","500","","","","","","-1","none","true","9512","39024","","","","","","","","","",""
"","","","","","html-button-response","56","269324","0.0-2.0-15.0","639618dc4a68e64c6956c39c","E1","batch5","","1514.9000000953674","tol_trial_num","<div class = centerbox><p class = center-block-text>problem <strong>3</strong> out of 25 problems</p></div>","0","","","","","","","","","","","","","","","","","","","","","","","","",""
"","","","","","single-stim-button","57","278425","0.0-2.0-16.0-0.0","639618dc4a68e64c6956c39c","E1","batch5","","9095","tol_tohand","","","","tol_peg_1","9095","9095","0","[[2,0,0],[0,0],[1]]","1","[[1,2,0],[3,0],[0]]","2","0","","","","","","4","","","","","","","","",""
"","","","","","single-stim-button","58","279958","0.0-2.0-16.0-1.0","639618dc4a68e64c6956c39c","E1","batch5","","1531","tol_toboard","","","","tol_peg_2","1531","1531","0","[[2,0,0],[3,0],[1]]","1","[[1,2,0],[3,0],[0]]","2","0","","","","","","4","","","","","","","","",""
"","","","","","single-stim-button","59","283574","0.0-2.0-16.1-0.1","639618dc4a68e64c6956c39c","E1","batch5","","3613","tol_tohand","","","","tol_peg_1","3613","3613","0","[[0,0,0],[3,0],[1]]","2","[[1,2,0],[3,0],[0]]","2","0","","","","","","4","","","","","","","","",""
"","","","","","single-stim-button","60","284840","0.0-2.0-16.1-1.1","639618dc4a68e64c6956c39c","E1","batch5","","1264","tol_toboard","","","","tol_peg_2","1264","1264","0","[[0,0,0],[3,2],[1]]","2","[[1,2,0],[3,0],[0]]","2","0","","","","","","4","","","","","","","","",""
"","","","","","single-stim-button","61","286929","0.0-2.0-16.2-0.2","639618dc4a68e64c6956c39c","E1","batch5","","2084","tol_tohand","","","","tol_peg_3","2084","2084","0","[[0,0,0],[3,2],[0]]","3","[[1,2,0],[3,0],[0]]","2","0","","","","","","4","","","","","","","","",""
"","","","","","single-stim-button","62","288681","0.0-2.0-16.2-1.2","639618dc4a68e64c6956c39c","E1","batch5","","1750","tol_toboard","","","","tol_peg_1","1750","1750","0","[[1,0,0],[3,2],[0]]","3","[[1,2,0],[3,0],[0]]","2","0","","","","","","4","","","","","","","","",""
"","","","","","single-stim-button","63","290037","0.0-2.0-16.3-0.3","639618dc4a68e64c6956c39c","E1","batch5","","1353","tol_tohand","","","","tol_peg_2","1353","1353","0","[[1,0,0],[3,0],[0]]","4","[[1,2,0],[3,0],[0]]","2","0","","","","","","4","","","","","","","","",""
"","","","","","single-stim-button","64","291242","0.0-2.0-16.3-1.3","639618dc4a68e64c6956c39c","E1","batch5","","1203","tol_toboard","","","","tol_peg_1","1203","1203","0","[[1,2,0],[3,0],[0]]","4","[[1,2,0],[3,0],[0]]","2","0","","","","","","4","","","","","","","","",""
"","","","","","poldrack-single-stim","65","292249","0.0-2.0-17.0","639618dc4a68e64c6956c39c","E1","batch5","","-1","tol_feedback","","","true","","1000","1000","500","","","","","","-1","none","true","9095","16145","","","","","","","","","",""
"","","","","","html-button-response","66","293812","0.0-2.0-18.0","639618dc4a68e64c6956c39c","E1","batch5","","1561","tol_trial_num","<div class = centerbox><p class = center-block-text>problem <strong>4</strong> out of 25 problems</p></div>","0","","","","","","","","","","","","","","","","","","","","","","","","",""
"","","","","","single-stim-button","67","303926","0.0-2.0-19.0-0.0","639618dc4a68e64c6956c39c","E1","batch5","","10107","tol_tohand","","","","tol_peg_2","10107","10107","0","[[3,0,0],[2,0],[0]]","1","[[3,0,0],[1,0],[2]]","3","0","","","","","","3","","","","","","","","",""
"","","","","","single-stim-button","68","305075","0.0-2.0-19.0-1.0","639618dc4a68e64c6956c39c","E1","batch5","","1147","tol_toboard","","","","tol_peg_1","1147","1147","0","[[3,1,0],[2,0],[0]]","1","[[3,0,0],[1,0],[2]]","3","0","","","","","","3","","","","","","","","",""
"","","","","","single-stim-button","69","306540","0.0-2.0-19.1-0.1","639618dc4a68e64c6956c39c","E1","batch5","","1462","tol_tohand","","","","tol_peg_2","1462","1462","0","[[3,1,0],[0,0],[0]]","2","[[3,0,0],[1,0],[2]]","3","0","","","","","","3","","","","","","","","",""
"","","","","","single-stim-button","70","307791","0.0-2.0-19.1-1.1","639618dc4a68e64c6956c39c","E1","batch5","","1248","tol_toboard","","","","tol_peg_3","1248","1248","0","[[3,1,0],[0,0],[2]]","2","[[3,0,0],[1,0],[2]]","3","0","","","","","","3","","","","","","","","",""
"","","","","","single-stim-button","71","308974","0.0-2.0-19.2-0.2","639618dc4a68e64c6956c39c","E1","batch5","","1180","tol_tohand","","","","tol_peg_1","1180","1180","0","[[3,0,0],[0,0],[2]]","3","[[3,0,0],[1,0],[2]]","3","0","","","","","","3","","","","","","","","",""
"","","","","","single-stim-button","72","310208","0.0-2.0-19.2-1.2","639618dc4a68e64c6956c39c","E1","batch5","","1231","tol_toboard","","","","tol_peg_2","1231","1231","0","[[3,0,0],[1,0],[2]]","3","[[3,0,0],[1,0],[2]]","3","0","","","","","","3","","","","","","","","",""
"","","","","","poldrack-single-stim","73","311228","0.0-2.0-20.0","639618dc4a68e64c6956c39c","E1","batch5","","-1","tol_feedback","","","true","","1000","1000","500","","","","","","-1","none","true","10107","12749","","","","","","","","","",""
"","","","","","html-button-response","74","312927","0.0-2.0-21.0","639618dc4a68e64c6956c39c","E1","batch5","","1696.8000001907349","tol_trial_num","<div class = centerbox><p class = center-block-text>problem <strong>5</strong> out of 25 problems</p></div>","0","","","","","","","","","","","","","","","","","","","","","","","","",""
"","","","","","single-stim-button","75","331758","0.0-2.0-22.0-0.0","639618dc4a68e64c6956c39c","E1","batch5","","18827","tol_tohand","","","","tol_peg_3","18827","18827","0","[[1,0,0],[2,0],[0]]","1","[[0,0,0],[1,2],[3]]","4","0","","","","","","7","","","","","","","","",""
"","","","","","single-stim-button","76","337757","0.0-2.0-22.0-1.0","639618dc4a68e64c6956c39c","E1","batch5","","5996","tol_toboard","","","","tol_peg_1","5996","5996","0","[[1,3,0],[2,0],[0]]","1","[[0,0,0],[1,2],[3]]","4","0","","","","","","7","","","","","","","","",""
"","","","","","single-stim-button","77","338992","0.0-2.0-22.1-0.1","639618dc4a68e64c6956c39c","E1","batch5","","1231","tol_tohand","","","","tol_peg_2","1231","1231","0","[[1,3,0],[0,0],[0]]","2","[[0,0,0],[1,2],[3]]","4","0","","","","","","7","","","","","","","","",""
"","","","","","single-stim-button","78","340253","0.0-2.0-22.1-1.1","639618dc4a68e64c6956c39c","E1","batch5","","1259","tol_toboard","","","","tol_peg_3","1259","1259","0","[[1,3,0],[0,0],[2]]","2","[[0,0,0],[1,2],[3]]","4","0","","","","","","7","","","","","","","","",""
"","","","","","single-stim-button","79","345548","0.0-2.0-22.2-0.2","639618dc4a68e64c6956c39c","E1","batch5","","5293","tol_tohand","","","","tol_peg_1","5293","5293","0","[[1,0,0],[0,0],[2]]","3","[[0,0,0],[1,2],[3]]","4","0","","","","","","7","","","","","","","","",""
"","","","","","single-stim-button","80","349041","0.0-2.0-22.2-1.2","639618dc4a68e64c6956c39c","E1","batch5","","3490","tol_toboard","","","","tol_peg_1","3490","3490","0","[[1,3,0],[0,0],[2]]","3","[[0,0,0],[1,2],[3]]","4","0","","","","","","7","","","","","","","","",""
"","","","","","single-stim-button","81","354156","0.0-2.0-22.3-0.3","639618dc4a68e64c6956c39c","E1","batch5","","5112","tol_tohand","","","","tol_peg_3","5112","5112","0","[[1,3,0],[0,0],[0]]","4","[[0,0,0],[1,2],[3]]","4","0","","","","","","7","","","","","","","","",""
"","","","","","single-stim-button","82","355426","0.0-2.0-22.3-1.3","639618dc4a68e64c6956c39c","E1","batch5","","1267","tol_toboard","","","","tol_peg_2","1267","1267","0","[[1,3,0],[2,0],[0]]","4","[[0,0,0],[1,2],[3]]","4","0","","","","","","7","","","","","","","","",""
"","","","","","single-stim-button","83","356889","0.0-2.0-22.4-0.4","639618dc4a68e64c6956c39c","E1","batch5","","1461","tol_tohand","","","","tol_peg_1","1461","1461","0","[[1,0,0],[2,0],[0]]","5","[[0,0,0],[1,2],[3]]","4","0","","","","","","7","","","","","","","","",""
"","","","","","single-stim-button","84","358604","0.0-2.0-22.4-1.4","639618dc4a68e64c6956c39c","E1","batch5","","1714","tol_toboard","","","","tol_peg_3","1714","1714","0","[[1,0,0],[2,0],[3]]","5","[[0,0,0],[1,2],[3]]","4","0","","","","","","7","","","","","","","","",""
"","","","","","single-stim-button","85","367974","0.0-2.0-22.5-0.5","639618dc4a68e64c6956c39c","E1","batch5","","9368","tol_tohand","","","","tol_peg_3","9368","9368","0","[[1,0,0],[2,0],[0]]","6","[[0,0,0],[1,2],[3]]","4","0","","","","","","7","","","","","","","","",""
"","","","","","single-stim-button","86","370958","0.0-2.0-22.5-1.5","639618dc4a68e64c6956c39c","E1","batch5","","2981","tol_toboard","","","","tol_peg_1","2981","2981","0","[[1,3,0],[2,0],[0]]","6","[[0,0,0],[1,2],[3]]","4","0","","","","","","7","","","","","","","","",""
"","","","","","single-stim-button","87","372476","0.0-2.0-22.6-0.6","639618dc4a68e64c6956c39c","E1","batch5","","1515","tol_tohand","","","","tol_peg_2","1515","1515","0","[[1,3,0],[0,0],[0]]","7","[[0,0,0],[1,2],[3]]","4","0","","","","","","7","","","","","","","","",""
"","","","","","single-stim-button","88","373676","0.0-2.0-22.6-1.6","639618dc4a68e64c6956c39c","E1","batch5","","1197","tol_toboard","","","","tol_peg_3","1197","1197","0","[[1,3,0],[0,0],[2]]","7","[[0,0,0],[1,2],[3]]","4","0","","","","","","7","","","","","","","","",""
"","","","","","single-stim-button","89","375104","0.0-2.0-22.7-0.7","639618dc4a68e64c6956c39c","E1","batch5","","1427","tol_tohand","","","","tol_peg_1","1427","1427","0","[[1,0,0],[0,0],[2]]","8","[[0,0,0],[1,2],[3]]","4","0","","","","","","7","","","","","","","","",""
"","","","","","single-stim-button","90","378007","0.0-2.0-22.7-1.7","639618dc4a68e64c6956c39c","E1","batch5","","2900","tol_toboard","","","","tol_peg_2","2900","2900","0","[[1,0,0],[3,0],[2]]","8","[[0,0,0],[1,2],[3]]","4","0","","","","","","7","","","","","","","","",""
"","","","","","single-stim-button","91","379024","0.0-2.0-22.8-0.8","639618dc4a68e64c6956c39c","E1","batch5","","1015","tol_tohand","","","","tol_peg_1","1015","1015","0","[[0,0,0],[3,0],[2]]","9","[[0,0,0],[1,2],[3]]","4","0","","","","","","7","","","","","","","","",""
"","","","","","single-stim-button","92","380141","0.0-2.0-22.8-1.8","639618dc4a68e64c6956c39c","E1","batch5","","1115","tol_toboard","","","","tol_peg_2","1115","1115","0","[[0,0,0],[3,1],[2]]","9","[[0,0,0],[1,2],[3]]","4","0","","","","","","7","","","","","","","","",""
"","","","","","single-stim-button","93","385303","0.0-2.0-22.9-0.9","639618dc4a68e64c6956c39c","E1","batch5","","5159","tol_tohand","","","","tol_peg_3","5159","5159","0","[[0,0,0],[3,1],[0]]","10","[[0,0,0],[1,2],[3]]","4","0","","","","","","7","","","","","","","","",""
"","","","","","single-stim-button","94","386623","0.0-2.0-22.9-1.9","639618dc4a68e64c6956c39c","E1","batch5","","1319","tol_toboard","","","","tol_peg_1","1319","1319","0","[[2,0,0],[3,1],[0]]","10","[[0,0,0],[1,2],[3]]","4","0","","","","","","7","","","","","","","","",""
"","","","","","single-stim-button","95","389658","0.0-2.0-22.10-0.10","639618dc4a68e64c6956c39c","E1","batch5","","3032","tol_tohand","","","","tol_peg_2","3032","3032","0","[[2,0,0],[3,0],[0]]","11","[[0,0,0],[1,2],[3]]","4","0","","","","","","7","","","","","","","","",""
"","","","","","single-stim-button","96","390890","0.0-2.0-22.10-1.10","639618dc4a68e64c6956c39c","E1","batch5","","1229","tol_toboard","","","","tol_peg_3","1229","1229","0","[[2,0,0],[3,0],[1]]","11","[[0,0,0],[1,2],[3]]","4","0","","","","","","7","","","","","","","","",""
"","","","","","single-stim-button","97","392841","0.0-2.0-22.11-0.11","639618dc4a68e64c6956c39c","E1","batch5","","1949","tol_tohand","","","","tol_peg_2","1949","1949","0","[[2,0,0],[0,0],[1]]","12","[[0,0,0],[1,2],[3]]","4","0","","","","","","7","","","","","","","","",""
"","","","","","single-stim-button","98","395192","0.0-2.0-22.11-1.11","639618dc4a68e64c6956c39c","E1","batch5","","2349","tol_toboard","","","","tol_peg_1","2349","2349","0","[[2,3,0],[0,0],[1]]","12","[[0,0,0],[1,2],[3]]","4","0","","","","","","7","","","","","","","","",""
"","","","","","single-stim-button","99","396388","0.0-2.0-22.12-0.12","639618dc4a68e64c6956c39c","E1","batch5","","1193","tol_tohand","","","","tol_peg_3","1193","1193","0","[[2,3,0],[0,0],[0]]","13","[[0,0,0],[1,2],[3]]","4","0","","","","","","7","","","","","","","","",""
"","","","","","single-stim-button","100","397506","0.0-2.0-22.12-1.12","639618dc4a68e64c6956c39c","E1","batch5","","1115","tol_toboard","","","","tol_peg_2","1115","1115","0","[[2,3,0],[1,0],[0]]","13","[[0,0,0],[1,2],[3]]","4","0","","","","","","7","","","","","","","","",""
"","","","","","single-stim-button","101","398966","0.0-2.0-22.13-0.13","639618dc4a68e64c6956c39c","E1","batch5","","1456","tol_tohand","","","","tol_peg_1","1456","1456","0","[[2,0,0],[1,0],[0]]","14","[[0,0,0],[1,2],[3]]","4","0","","","","","","7","","","","","","","","",""
"","","","","","single-stim-button","102","400425","0.0-2.0-22.13-1.13","639618dc4a68e64c6956c39c","E1","batch5","","1457","tol_toboard","","","","tol_peg_3","1457","1457","0","[[2,0,0],[1,0],[3]]","14","[[0,0,0],[1,2],[3]]","4","0","","","","","","7","","","","","","","","",""
"","","","","","single-stim-button","103","401575","0.0-2.0-22.14-0.14","639618dc4a68e64c6956c39c","E1","batch5","","1146","tol_tohand","","","","tol_peg_1","1146","1146","0","[[0,0,0],[1,0],[3]]","15","[[0,0,0],[1,2],[3]]","4","0","","","","","","7","","","","","","","","",""
"","","","","","single-stim-button","104","402723","0.0-2.0-22.14-1.14","639618dc4a68e64c6956c39c","E1","batch5","","1145","tol_toboard","","","","tol_peg_2","1145","1145","0","[[0,0,0],[1,2],[3]]","15","[[0,0,0],[1,2],[3]]","4","0","","","","","","7","","","","","","","","",""
"","","","","","poldrack-single-stim","105","403740","0.0-2.0-23.0","639618dc4a68e64c6956c39c","E1","batch5","","-1","tol_feedback","","","true","","1000","1000","500","","","","","","-1","none","true","18827","59184","","","","","","","","","",""
"","","","","","html-button-response","106","405395","0.0-2.0-24.0","639618dc4a68e64c6956c39c","E1","batch5","","1651.8999998569489","tol_trial_num","<div class = centerbox><p class = center-block-text>problem <strong>6</strong> out of 25 problems</p></div>","0","","","","","","","","","","","","","","","","","","","","","","","","",""
"","","","","","single-stim-button","107","412874","0.0-2.0-25.0-0.0","639618dc4a68e64c6956c39c","E1","batch5","","7474","tol_tohand","","","","tol_peg_3","7474","7474","0","[[0,0,0],[1,2],[0]]","1","[[1,0,0],[2,3],[0]]","5","0","","","","","","6","","","","","","","","",""
"","","","","","single-stim-button","108","414407","0.0-2.0-25.0-1.0","639618dc4a68e64c6956c39c","E1","batch5","","1529","tol_toboard","","","","tol_peg_1","1529","1529","0","[[3,0,0],[1,2],[0]]","1","[[1,0,0],[2,3],[0]]","5","0","","","","","","6","","","","","","","","",""
"","","","","","single-stim-button","109","418374","0.0-2.0-25.1-0.1","639618dc4a68e64c6956c39c","E1","batch5","","3964","tol_tohand","","","","tol_peg_2","3964","3964","0","[[3,0,0],[1,0],[0]]","2","[[1,0,0],[2,3],[0]]","5","0","","","","","","6","","","","","","","","",""
"","","","","","single-stim-button","110","420120","0.0-2.0-25.1-1.1","639618dc4a68e64c6956c39c","E1","batch5","","1744","tol_toboard","","","","tol_peg_3","1744","1744","0","[[3,0,0],[1,0],[2]]","2","[[1,0,0],[2,3],[0]]","5","0","","","","","","6","","","","","","","","",""
"","","","","","single-stim-button","111","424290","0.0-2.0-25.2-0.2","639618dc4a68e64c6956c39c","E1","batch5","","4168","tol_tohand","","","","tol_peg_2","4168","4168","0","[[3,0,0],[0,0],[2]]","3","[[1,0,0],[2,3],[0]]","5","0","","","","","","6","","","","","","","","",""
"","","","","","single-stim-button","112","425608","0.0-2.0-25.2-1.2","639618dc4a68e64c6956c39c","E1","batch5","","1315","tol_toboard","","","","tol_peg_1","1315","1315","0","[[3,1,0],[0,0],[2]]","3","[[1,0,0],[2,3],[0]]","5","0","","","","","","6","","","","","","","","",""
"","","","","","single-stim-button","113","427888","0.0-2.0-25.3-0.3","639618dc4a68e64c6956c39c","E1","batch5","","2278","tol_tohand","","","","tol_peg_3","2278","2278","0","[[3,1,0],[0,0],[0]]","4","[[1,0,0],[2,3],[0]]","5","0","","","","","","6","","","","","","","","",""
"","","","","","single-stim-button","114","429025","0.0-2.0-25.3-1.3","639618dc4a68e64c6956c39c","E1","batch5","","1133","tol_toboard","","","","tol_peg_2","1133","1133","0","[[3,1,0],[2,0],[0]]","4","[[1,0,0],[2,3],[0]]","5","0","","","","","","6","","","","","","","","",""
"","","","","","single-stim-button","115","431706","0.0-2.0-25.4-0.4","639618dc4a68e64c6956c39c","E1","batch5","","2678","tol_tohand","","","","tol_peg_1","2678","2678","0","[[3,0,0],[2,0],[0]]","5","[[1,0,0],[2,3],[0]]","5","0","","","","","","6","","","","","","","","",""
"","","","","","single-stim-button","116","433457","0.0-2.0-25.4-1.4","639618dc4a68e64c6956c39c","E1","batch5","","1748","tol_toboard","","","","tol_peg_3","1748","1748","0","[[3,0,0],[2,0],[1]]","5","[[1,0,0],[2,3],[0]]","5","0","","","","","","6","","","","","","","","",""
"","","","","","single-stim-button","117","434624","0.0-2.0-25.5-0.5","639618dc4a68e64c6956c39c","E1","batch5","","1164","tol_tohand","","","","tol_peg_1","1164","1164","0","[[0,0,0],[2,0],[1]]","6","[[1,0,0],[2,3],[0]]","5","0","","","","","","6","","","","","","","","",""
"","","","","","single-stim-button","118","435891","0.0-2.0-25.5-1.5","639618dc4a68e64c6956c39c","E1","batch5","","1264","tol_toboard","","","","tol_peg_2","1264","1264","0","[[0,0,0],[2,3],[1]]","6","[[1,0,0],[2,3],[0]]","5","0","","","","","","6","","","","","","","","",""
"","","","","","single-stim-button","119","437294","0.0-2.0-25.6-0.6","639618dc4a68e64c6956c39c","E1","batch5","","1400","tol_tohand","","","","tol_peg_3","1400","1400","0","[[0,0,0],[2,3],[0]]","7","[[1,0,0],[2,3],[0]]","5","0","","","","","","6","","","","","","","","",""
"","","","","","single-stim-button","120","438571","0.0-2.0-25.6-1.6","639618dc4a68e64c6956c39c","E1","batch5","","1275","tol_toboard","","","","tol_peg_1","1275","1275","0","[[1,0,0],[2,3],[0]]","7","[[1,0,0],[2,3],[0]]","5","0","","","","","","6","","","","","","","","",""
"","","","","","poldrack-single-stim","121","439581","0.0-2.0-26.0","639618dc4a68e64c6956c39c","E1","batch5","","-1","tol_feedback","","","true","","1000","1000","500","","","","","","-1","none","true","7474","23126","","","","","","","","","",""
"","","","","","html-button-response","122","441389","0.0-2.0-27.0","639618dc4a68e64c6956c39c","E1","batch5","","1806.2000000476837","tol_trial_num","<div class = centerbox><p class = center-block-text>problem <strong>7</strong> out of 25 problems</p></div>","0","","","","","","","","","","","","","","","","","","","","","","","","",""
"","","","","","single-stim-button","123","449023","0.0-2.0-28.0-0.0","639618dc4a68e64c6956c39c","E1","batch5","","7631","tol_tohand","","","","tol_peg_3","7631","7631","0","[[2,1,0],[0,0],[0]]","1","[[1,2,0],[3,0],[0]]","6","0","","","","","","5","","","","","","","","",""
"","","","","","single-stim-button","124","450187","0.0-2.0-28.0-1.0","639618dc4a68e64c6956c39c","E1","batch5","","1162","tol_toboard","","","","tol_peg_2","1162","1162","0","[[2,1,0],[3,0],[0]]","1","[[1,2,0],[3,0],[0]]","6","0","","","","","","5","","","","","","","","",""
"","","","","","single-stim-button","125","452208","0.0-2.0-28.1-0.1","639618dc4a68e64c6956c39c","E1","batch5","","2017","tol_tohand","","","","tol_peg_1","2017","2017","0","[[2,0,0],[3,0],[0]]","2","[[1,2,0],[3,0],[0]]","6","0","","","","","","5","","","","","","","","",""
"","","","","","single-stim-button","126","454039","0.0-2.0-28.1-1.1","639618dc4a68e64c6956c39c","E1","batch5","","1829","tol_toboard","","","","tol_peg_3","1829","1829","0","[[2,0,0],[3,0],[1]]","2","[[1,2,0],[3,0],[0]]","6","0","","","","","","5","","","","","","","","",""
"","","","","","single-stim-button","127","456805","0.0-2.0-28.2-0.2","639618dc4a68e64c6956c39c","E1","batch5","","2764","tol_tohand","","","","tol_peg_1","2764","2764","0","[[0,0,0],[3,0],[1]]","3","[[1,2,0],[3,0],[0]]","6","0","","","","","","5","","","","","","","","",""
"","","","","","single-stim-button","128","458571","0.0-2.0-28.2-1.2","639618dc4a68e64c6956c39c","E1","batch5","","1763","tol_toboard","","","","tol_peg_2","1763","1763","0","[[0,0,0],[3,2],[1]]","3","[[1,2,0],[3,0],[0]]","6","0","","","","","","5","","","","","","","","",""
"","","","","","single-stim-button","129","459756","0.0-2.0-28.3-0.3","639618dc4a68e64c6956c39c","E1","batch5","","1181","tol_tohand","","","","tol_peg_3","1181","1181","0","[[0,0,0],[3,2],[0]]","4","[[1,2,0],[3,0],[0]]","6","0","","","","","","5","","","","","","","","",""
"","","","","","single-stim-button","130","461159","0.0-2.0-28.3-1.3","639618dc4a68e64c6956c39c","E1","batch5","","1401","tol_toboard","","","","tol_peg_1","1401","1401","0","[[1,0,0],[3,2],[0]]","4","[[1,2,0],[3,0],[0]]","6","0","","","","","","5","","","","","","","","",""
"","","","","","single-stim-button","131","462539","0.0-2.0-28.4-0.4","639618dc4a68e64c6956c39c","E1","batch5","","1378","tol_tohand","","","","tol_peg_2","1378","1378","0","[[1,0,0],[3,0],[0]]","5","[[1,2,0],[3,0],[0]]","6","0","","","","","","5","","","","","","","","",""
"","","","","","single-stim-button","132","463640","0.0-2.0-28.4-1.4","639618dc4a68e64c6956c39c","E1","batch5","","1098","tol_toboard","","","","tol_peg_1","1098","1098","0","[[1,2,0],[3,0],[0]]","5","[[1,2,0],[3,0],[0]]","6","0","","","","","","5","","","","","","","","",""
"","","","","","poldrack-single-stim","133","464646","0.0-2.0-29.0","639618dc4a68e64c6956c39c","E1","batch5","","-1","tol_feedback","","","true","","1000","1000","500","","","","","","-1","none","true","7631","14971","","","","","","","","","",""
"","","","","","html-button-response","134","465991","0.0-2.0-30.0","639618dc4a68e64c6956c39c","E1","batch5","","1342.2999999523163","tol_trial_num","<div class = centerbox><p class = center-block-text>problem <strong>8</strong> out of 25 problems</p></div>","0","","","","","","","","","","","","","","","","","","","","","","","","",""
"","","","","","single-stim-button","135","475554","0.0-2.0-31.0-0.0","639618dc4a68e64c6956c39c","E1","batch5","","9560","tol_tohand","","","","tol_peg_3","9560","9560","0","[[0,0,0],[2,3],[0]]","1","[[1,2,0],[3,0],[0]]","7","0","","","","","","4","","","","","","","","",""
"","","","","","single-stim-button","136","476838","0.0-2.0-31.0-1.0","639618dc4a68e64c6956c39c","E1","batch5","","1280","tol_toboard","","","","tol_peg_1","1280","1280","0","[[1,0,0],[2,3],[0]]","1","[[1,2,0],[3,0],[0]]","7","0","","","","","","4","","","","","","","","",""
"","","","","","single-stim-button","137","478689","0.0-2.0-31.1-0.1","639618dc4a68e64c6956c39c","E1","batch5","","1848","tol_tohand","","","","tol_peg_2","1848","1848","0","[[1,0,0],[2,0],[0]]","2","[[1,2,0],[3,0],[0]]","7","0","","","","","","4","","","","","","","","",""
"","","","","","single-stim-button","138","480193","0.0-2.0-31.1-1.1","639618dc4a68e64c6956c39c","E1","batch5","","1501","tol_toboard","","","","tol_peg_3","1501","1501","0","[[1,0,0],[2,0],[3]]","2","[[1,2,0],[3,0],[0]]","7","0","","","","","","4","","","","","","","","",""
"","","","","","single-stim-button","139","481254","0.0-2.0-31.2-0.2","639618dc4a68e64c6956c39c","E1","batch5","","1059","tol_tohand","","","","tol_peg_2","1059","1059","0","[[1,0,0],[0,0],[3]]","3","[[1,2,0],[3,0],[0]]","7","0","","","","","","4","","","","","","","","",""
"","","","","","single-stim-button","140","482642","0.0-2.0-31.2-1.2","639618dc4a68e64c6956c39c","E1","batch5","","1386","tol_toboard","","","","tol_peg_1","1386","1386","0","[[1,2,0],[0,0],[3]]","3","[[1,2,0],[3,0],[0]]","7","0","","","","","","4","","","","","","","","",""
"","","","","","single-stim-button","141","483923","0.0-2.0-31.3-0.3","639618dc4a68e64c6956c39c","E1","batch5","","1279","tol_tohand","","","","tol_peg_3","1279","1279","0","[[1,2,0],[0,0],[0]]","4","[[1,2,0],[3,0],[0]]","7","0","","","","","","4","","","","","","","","",""
"","","","","","single-stim-button","142","485141","0.0-2.0-31.3-1.3","639618dc4a68e64c6956c39c","E1","batch5","","1215","tol_toboard","","","","tol_peg_2","1215","1215","0","[[1,2,0],[3,0],[0]]","4","[[1,2,0],[3,0],[0]]","7","0","","","","","","4","","","","","","","","",""
"","","","","","poldrack-single-stim","143","486144","0.0-2.0-32.0","639618dc4a68e64c6956c39c","E1","batch5","","-1","tol_feedback","","","true","","1000","1000","500","","","","","","-1","none","true","9560","13746","","","","","","","","","",""
"","","","","","html-button-response","144","487624","0.0-2.0-33.0","639618dc4a68e64c6956c39c","E1","batch5","","1477.8000001907349","tol_trial_num","<div class = centerbox><p class = center-block-text>problem <strong>9</strong> out of 25 problems</p></div>","0","","","","","","","","","","","","","","","","","","","","","","","","",""
"","","","","","single-stim-button","145","496006","0.0-2.0-34.0-0.0","639618dc4a68e64c6956c39c","E1","batch5","","8378","tol_tohand","","","","tol_peg_1","8378","8378","0","[[3,0,0],[0,0],[1]]","1","[[2,1,0],[3,0],[0]]","8","0","","","","","","6","","","","","","","","",""
"","","","","","single-stim-button","146","497438","0.0-2.0-34.0-1.0","639618dc4a68e64c6956c39c","E1","batch5","","1430","tol_toboard","","","","tol_peg_2","1430","1430","0","[[3,0,0],[2,0],[1]]","1","[[2,1,0],[3,0],[0]]","8","0","","","","","","6","","","","","","","","",""
"","","","","","single-stim-button","147","498973","0.0-2.0-34.1-0.1","639618dc4a68e64c6956c39c","E1","batch5","","1533","tol_tohand","","","","tol_peg_3","1533","1533","0","[[3,0,0],[2,0],[0]]","2","[[2,1,0],[3,0],[0]]","8","0","","","","","","6","","","","","","","","",""
"","","","","","single-stim-button","148","502139","0.0-2.0-34.1-1.1","639618dc4a68e64c6956c39c","E1","batch5","","3164","tol_toboard","","","","tol_peg_1","3164","3164","0","[[3,1,0],[2,0],[0]]","2","[[2,1,0],[3,0],[0]]","8","0","","","","","","6","","","","","","","","",""
"","","","","","single-stim-button","149","503157","0.0-2.0-34.2-0.2","639618dc4a68e64c6956c39c","E1","batch5","","1015","tol_tohand","","","","tol_peg_2","1015","1015","0","[[3,1,0],[0,0],[0]]","3","[[2,1,0],[3,0],[0]]","8","0","","","","","","6","","","","","","","","",""
"","","","","","single-stim-button","150","504325","0.0-2.0-34.2-1.2","639618dc4a68e64c6956c39c","E1","batch5","","1166","tol_toboard","","","","tol_peg_3","1166","1166","0","[[3,1,0],[0,0],[2]]","3","[[2,1,0],[3,0],[0]]","8","0","","","","","","6","","","","","","","","",""
"","","","","","single-stim-button","151","512140","0.0-2.0-34.3-0.3","639618dc4a68e64c6956c39c","E1","batch5","","7813","tol_tohand","","","","tol_peg_1","7813","7813","0","[[3,0,0],[0,0],[2]]","4","[[2,1,0],[3,0],[0]]","8","0","","","","","","6","","","","","","","","",""
"","","","","","single-stim-button","152","514191","0.0-2.0-34.3-1.3","639618dc4a68e64c6956c39c","E1","batch5","","2049","tol_toboard","","","","tol_peg_2","2049","2049","0","[[3,0,0],[1,0],[2]]","4","[[2,1,0],[3,0],[0]]","8","0","","","","","","6","","","","","","","","",""
"","","","","","single-stim-button","153","517238","0.0-2.0-34.4-0.4","639618dc4a68e64c6956c39c","E1","batch5","","3044","tol_tohand","","","","tol_peg_1","3044","3044","0","[[0,0,0],[1,0],[2]]","5","[[2,1,0],[3,0],[0]]","8","0","","","","","","6","","","","","","","","",""
"","","","","","single-stim-button","154","518571","0.0-2.0-34.4-1.4","639618dc4a68e64c6956c39c","E1","batch5","","1331","tol_toboard","","","","tol_peg_2","1331","1331","0","[[0,0,0],[1,3],[2]]","5","[[2,1,0],[3,0],[0]]","8","0","","","","","","6","","","","","","","","",""
"","","","","","single-stim-button","155","519789","0.0-2.0-34.5-0.5","639618dc4a68e64c6956c39c","E1","batch5","","1214","tol_tohand","","","","tol_peg_3","1214","1214","0","[[0,0,0],[1,3],[0]]","6","[[2,1,0],[3,0],[0]]","8","0","","","","","","6","","","","","","","","",""
"","","","","","single-stim-button","156","521155","0.0-2.0-34.5-1.5","639618dc4a68e64c6956c39c","E1","batch5","","1365","tol_toboard","","","","tol_peg_1","1365","1365","0","[[2,0,0],[1,3],[0]]","6","[[2,1,0],[3,0],[0]]","8","0","","","","","","6","","","","","","","","",""
"","","","","","single-stim-button","157","522540","0.0-2.0-34.6-0.6","639618dc4a68e64c6956c39c","E1","batch5","","1383","tol_tohand","","","","tol_peg_2","1383","1383","0","[[2,0,0],[1,0],[0]]","7","[[2,1,0],[3,0],[0]]","8","0","","","","","","6","","","","","","","","",""
"","","","","","single-stim-button","158","524222","0.0-2.0-34.6-1.6","639618dc4a68e64c6956c39c","E1","batch5","","1679","tol_toboard","","","","tol_peg_3","1679","1679","0","[[2,0,0],[1,0],[3]]","7","[[2,1,0],[3,0],[0]]","8","0","","","","","","6","","","","","","","","",""
"","","","","","single-stim-button","159","525090","0.0-2.0-34.7-0.7","639618dc4a68e64c6956c39c","E1","batch5","","865","tol_tohand","","","","tol_peg_2","865","865","0","[[2,0,0],[0,0],[3]]","8","[[2,1,0],[3,0],[0]]","8","0","","","","","","6","","","","","","","","",""
"","","","","","single-stim-button","160","526289","0.0-2.0-34.7-1.7","639618dc4a68e64c6956c39c","E1","batch5","","1197","tol_toboard","","","","tol_peg_1","1197","1197","0","[[2,1,0],[0,0],[3]]","8","[[2,1,0],[3,0],[0]]","8","0","","","","","","6","","","","","","","","",""
"","","","","","single-stim-button","161","527521","0.0-2.0-34.8-0.8","639618dc4a68e64c6956c39c","E1","batch5","","1230","tol_tohand","","","","tol_peg_3","1230","1230","0","[[2,1,0],[0,0],[0]]","9","[[2,1,0],[3,0],[0]]","8","0","","","","","","6","","","","","","","","",""
"","","","","","single-stim-button","162","528674","0.0-2.0-34.8-1.8","639618dc4a68e64c6956c39c","E1","batch5","","1151","tol_toboard","","","","tol_peg_2","1151","1151","0","[[2,1,0],[3,0],[0]]","9","[[2,1,0],[3,0],[0]]","8","0","","","","","","6","","","","","","","","",""
"","","","","","poldrack-single-stim","163","529687","0.0-2.0-35.0","639618dc4a68e64c6956c39c","E1","batch5","","-1","tol_feedback","","","true","","1000","1000","500","","","","","","-1","none","true","8378","26475","","","","","","","","","",""
"","","","","","html-button-response","164","531262","0.0-2.0-36.0","639618dc4a68e64c6956c39c","E1","batch5","","1573.2000000476837","tol_trial_num","<div class = centerbox><p class = center-block-text>problem <strong>10</strong> out of 25 problems</p></div>","0","","","","","","","","","","","","","","","","","","","","","","","","",""
"","","","","","single-stim-button","165","539457","0.0-2.0-37.0-0.0","639618dc4a68e64c6956c39c","E1","batch5","","8190","tol_tohand","","","","tol_peg_3","8190","8190","0","[[3,0,0],[1,0],[0]]","1","[[3,0,0],[2,1],[0]]","9","0","","","","","","3","","","","","","","","",""
"","","","","","single-stim-button","166","540788","0.0-2.0-37.0-1.0","639618dc4a68e64c6956c39c","E1","batch5","","1328","tol_toboard","","","","tol_peg_1","1328","1328","0","[[3,2,0],[1,0],[0]]","1","[[3,0,0],[2,1],[0]]","9","0","","","","","","3","","","","","","","","",""
"","","","","","single-stim-button","167","542191","0.0-2.0-37.1-0.1","639618dc4a68e64c6956c39c","E1","batch5","","1399","tol_tohand","","","","tol_peg_2","1399","1399","0","[[3,2,0],[0,0],[0]]","2","[[3,0,0],[2,1],[0]]","9","0","","","","","","3","","","","","","","","",""
"","","","","","single-stim-button","168","544037","0.0-2.0-37.1-1.1","639618dc4a68e64c6956c39c","E1","batch5","","1844","tol_toboard","","","","tol_peg_3","1844","1844","0","[[3,2,0],[0,0],[1]]","2","[[3,0,0],[2,1],[0]]","9","0","","","","","","3","","","","","","","","",""
"","","","","","single-stim-button","169","545221","0.0-2.0-37.2-0.2","639618dc4a68e64c6956c39c","E1","batch5","","1181","tol_tohand","","","","tol_peg_1","1181","1181","0","[[3,0,0],[0,0],[1]]","3","[[3,0,0],[2,1],[0]]","9","0","","","","","","3","","","","","","","","",""
"","","","","","single-stim-button","170","546822","0.0-2.0-37.2-1.2","639618dc4a68e64c6956c39c","E1","batch5","","1598","tol_toboard","","","","tol_peg_2","1598","1598","0","[[3,0,0],[2,0],[1]]","3","[[3,0,0],[2,1],[0]]","9","0","","","","","","3","","","","","","","","",""
"","","","","","single-stim-button","171","548038","0.0-2.0-37.3-0.3","639618dc4a68e64c6956c39c","E1","batch5","","1214","tol_tohand","","","","tol_peg_3","1214","1214","0","[[3,0,0],[2,0],[0]]","4","[[3,0,0],[2,1],[0]]","9","0","","","","","","3","","","","","","","","",""
"","","","","","single-stim-button","172","549141","0.0-2.0-37.3-1.3","639618dc4a68e64c6956c39c","E1","batch5","","1100","tol_toboard","","","","tol_peg_2","1100","1100","0","[[3,0,0],[2,1],[0]]","4","[[3,0,0],[2,1],[0]]","9","0","","","","","","3","","","","","","","","",""
"","","","","","poldrack-single-stim","173","550159","0.0-2.0-38.0","639618dc4a68e64c6956c39c","E1","batch5","","-1","tol_feedback","","","true","","1000","1000","500","","","","","","-1","none","true","8190","11984","","","","","","","","","",""
"","","","","","html-button-response","174","551540","0.0-2.0-39.0","639618dc4a68e64c6956c39c","E1","batch5","","1378","tol_trial_num","<div class = centerbox><p class = center-block-text>problem <strong>11</strong> out of 25 problems</p></div>","0","","","","","","","","","","","","","","","","","","","","","","","","",""
"","","","","","single-stim-button","175","561853","0.0-2.0-40.0-0.0","639618dc4a68e64c6956c39c","E1","batch5","","10310","tol_tohand","","","","tol_peg_2","10310","10310","0","[[1,2,0],[0,0],[0]]","1","[[2,0,0],[1,3],[0]]","10","0","","","","","","6","","","","","","","","",""
"","","","","","single-stim-button","176","563255","0.0-2.0-40.0-1.0","639618dc4a68e64c6956c39c","E1","batch5","","1399","tol_toboard","","","","tol_peg_3","1399","1399","0","[[1,2,0],[0,0],[3]]","1","[[2,0,0],[1,3],[0]]","10","0","","","","","","6","","","","","","","","",""
"","","","","","single-stim-button","177","569156","0.0-2.0-40.1-0.1","639618dc4a68e64c6956c39c","E1","batch5","","5898","tol_tohand","","","","tol_peg_1","5898","5898","0","[[1,0,0],[0,0],[3]]","2","[[2,0,0],[1,3],[0]]","10","0","","","","","","6","","","","","","","","",""
"","","","","","single-stim-button","178","574706","0.0-2.0-40.1-1.1","639618dc4a68e64c6956c39c","E1","batch5","","5547","tol_toboard","","","","tol_peg_2","5547","5547","0","[[1,0,0],[2,0],[3]]","2","[[2,0,0],[1,3],[0]]","10","0","","","","","","6","","","","","","","","",""
"","","","","","single-stim-button","179","575754","0.0-2.0-40.2-0.2","639618dc4a68e64c6956c39c","E1","batch5","","1045","tol_tohand","","","","tol_peg_1","1045","1045","0","[[0,0,0],[2,0],[3]]","3","[[2,0,0],[1,3],[0]]","10","0","","","","","","6","","","","","","","","",""
"","","","","","single-stim-button","180","577054","0.0-2.0-40.2-1.2","639618dc4a68e64c6956c39c","E1","batch5","","1298","tol_toboard","","","","tol_peg_2","1298","1298","0","[[0,0,0],[2,1],[3]]","3","[[2,0,0],[1,3],[0]]","10","0","","","","","","6","","","","","","","","",""
"","","","","","single-stim-button","181","578386","0.0-2.0-40.3-0.3","639618dc4a68e64c6956c39c","E1","batch5","","1330","tol_tohand","","","","tol_peg_3","1330","1330","0","[[0,0,0],[2,1],[0]]","4","[[2,0,0],[1,3],[0]]","10","0","","","","","","6","","","","","","","","",""
"","","","","","single-stim-button","182","579986","0.0-2.0-40.3-1.3","639618dc4a68e64c6956c39c","E1","batch5","","1598","tol_toboard","","","","tol_peg_1","1598","1598","0","[[3,0,0],[2,1],[0]]","4","[[2,0,0],[1,3],[0]]","10","0","","","","","","6","","","","","","","","",""
"","","","","","single-stim-button","183","581071","0.0-2.0-40.4-0.4","639618dc4a68e64c6956c39c","E1","batch5","","1083","tol_tohand","","","","tol_peg_2","1083","1083","0","[[3,0,0],[2,0],[0]]","5","[[2,0,0],[1,3],[0]]","10","0","","","","","","6","","","","","","","","",""
"","","","","","single-stim-button","184","582819","0.0-2.0-40.4-1.4","639618dc4a68e64c6956c39c","E1","batch5","","1745","tol_toboard","","","","tol_peg_3","1745","1745","0","[[3,0,0],[2,0],[1]]","5","[[2,0,0],[1,3],[0]]","10","0","","","","","","6","","","","","","","","",""
"","","","","","single-stim-button","185","585044","0.0-2.0-40.5-0.5","639618dc4a68e64c6956c39c","E1","batch5","","2221","tol_tohand","","","","tol_peg_2","2221","2221","0","[[3,0,0],[0,0],[1]]","6","[[2,0,0],[1,3],[0]]","10","0","","","","","","6","","","","","","","","",""
"","","","","","single-stim-button","186","591325","0.0-2.0-40.5-1.5","639618dc4a68e64c6956c39c","E1","batch5","","6277","tol_toboard","","","","tol_peg_1","6277","6277","0","[[3,2,0],[0,0],[1]]","6","[[2,0,0],[1,3],[0]]","10","0","","","","","","6","","","","","","","","",""
"","","","","","single-stim-button","187","592637","0.0-2.0-40.6-0.6","639618dc4a68e64c6956c39c","E1","batch5","","1310","tol_tohand","","","","tol_peg_3","1310","1310","0","[[3,2,0],[0,0],[0]]","7","[[2,0,0],[1,3],[0]]","10","0","","","","","","6","","","","","","","","",""
"","","","","","single-stim-button","188","593756","0.0-2.0-40.6-1.6","639618dc4a68e64c6956c39c","E1","batch5","","1116","tol_toboard","","","","tol_peg_2","1116","1116","0","[[3,2,0],[1,0],[0]]","7","[[2,0,0],[1,3],[0]]","10","0","","","","","","6","","","","","","","","",""
"","","","","","single-stim-button","189","595085","0.0-2.0-40.7-0.7","639618dc4a68e64c6956c39c","E1","batch5","","1327","tol_tohand","","","","tol_peg_1","1327","1327","0","[[3,0,0],[1,0],[0]]","8","[[2,0,0],[1,3],[0]]","10","0","","","","","","6","","","","","","","","",""
"","","","","","single-stim-button","190","596522","0.0-2.0-40.7-1.7","639618dc4a68e64c6956c39c","E1","batch5","","1436","tol_toboard","","","","tol_peg_3","1436","1436","0","[[3,0,0],[1,0],[2]]","8","[[2,0,0],[1,3],[0]]","10","0","","","","","","6","","","","","","","","",""
"","","","","","single-stim-button","191","598308","0.0-2.0-40.8-0.8","639618dc4a68e64c6956c39c","E1","batch5","","1784","tol_tohand","","","","tol_peg_1","1784","1784","0","[[0,0,0],[1,0],[2]]","9","[[2,0,0],[1,3],[0]]","10","0","","","","","","6","","","","","","","","",""
"","","","","","single-stim-button","192","599388","0.0-2.0-40.8-1.8","639618dc4a68e64c6956c39c","E1","batch5","","1078","tol_toboard","","","","tol_peg_2","1078","1078","0","[[0,0,0],[1,3],[2]]","9","[[2,0,0],[1,3],[0]]","10","0","","","","","","6","","","","","","","","",""
"","","","","","single-stim-button","193","600524","0.0-2.0-40.9-0.9","639618dc4a68e64c6956c39c","E1","batch5","","1135","tol_tohand","","","","tol_peg_3","1135","1135","0","[[0,0,0],[1,3],[0]]","10","[[2,0,0],[1,3],[0]]","10","0","","","","","","6","","","","","","","","",""
"","","","","","single-stim-button","194","601939","0.0-2.0-40.9-1.9","639618dc4a68e64c6956c39c","E1","batch5","","1411","tol_toboard","","","","tol_peg_1","1411","1411","0","[[2,0,0],[1,3],[0]]","10","[[2,0,0],[1,3],[0]]","10","0","","","","","","6","","","","","","","","",""
"","","","","","poldrack-single-stim","195","602948","0.0-2.0-41.0","639618dc4a68e64c6956c39c","E1","batch5","","-1","tol_feedback","","","true","","1000","1000","500","","","","","","-1","none","true","10310","27443","","","","","","","","","",""
"","","","","","html-button-response","196","604524","0.0-2.0-42.0","639618dc4a68e64c6956c39c","E1","batch5","","1572.5","tol_trial_num","<div class = centerbox><p class = center-block-text>problem <strong>12</strong> out of 25 problems</p></div>","0","","","","","","","","","","","","","","","","","","","","","","","","",""
"","","","","","single-stim-button","197","611654","0.0-2.0-43.0-0.0","639618dc4a68e64c6956c39c","E1","batch5","","7126","tol_tohand","","","","tol_peg_2","7126","7126","0","[[1,2,0],[0,0],[0]]","1","[[2,3,0],[0,0],[1]]","11","0","","","","","","4","","","","","","","","",""
"","","","","","single-stim-button","198","612987","0.0-2.0-43.0-1.0","639618dc4a68e64c6956c39c","E1","batch5","","1330","tol_toboard","","","","tol_peg_3","1330","1330","0","[[1,2,0],[0,0],[3]]","1","[[2,3,0],[0,0],[1]]","11","0","","","","","","4","","","","","","","","",""
"","","","","","single-stim-button","199","615788","0.0-2.0-43.1-0.1","639618dc4a68e64c6956c39c","E1","batch5","","2799","tol_tohand","","","","tol_peg_1","2799","2799","0","[[1,0,0],[0,0],[3]]","2","[[2,3,0],[0,0],[1]]","11","0","","","","","","4","","","","","","","","",""
"","","","","","single-stim-button","200","618421","0.0-2.0-43.1-1.1","639618dc4a68e64c6956c39c","E1","batch5","","2631","tol_toboard","","","","tol_peg_2","2631","2631","0","[[1,0,0],[2,0],[3]]","2","[[2,3,0],[0,0],[1]]","11","0","","","","","","4","","","","","","","","",""
"","","","","","single-stim-button","201","620520","0.0-2.0-43.2-0.2","639618dc4a68e64c6956c39c","E1","batch5","","2095","tol_tohand","","","","tol_peg_1","2095","2095","0","[[0,0,0],[2,0],[3]]","3","[[2,3,0],[0,0],[1]]","11","0","","","","","","4","","","","","","","","",""
"","","","","","single-stim-button","202","621739","0.0-2.0-43.2-1.2","639618dc4a68e64c6956c39c","E1","batch5","","1216","tol_toboard","","","","tol_peg_2","1216","1216","0","[[0,0,0],[2,1],[3]]","3","[[2,3,0],[0,0],[1]]","11","0","","","","","","4","","","","","","","","",""
"","","","","","single-stim-button","203","624339","0.0-2.0-43.3-0.3","639618dc4a68e64c6956c39c","E1","batch5","","2598","tol_tohand","","","","tol_peg_3","2598","2598","0","[[0,0,0],[2,1],[0]]","4","[[2,3,0],[0,0],[1]]","11","0","","","","","","4","","","","","","","","",""
"","","","","","single-stim-button","204","625688","0.0-2.0-43.3-1.3","639618dc4a68e64c6956c39c","E1","batch5","","1345","tol_toboard","","","","tol_peg_1","1345","1345","0","[[3,0,0],[2,1],[0]]","4","[[2,3,0],[0,0],[1]]","11","0","","","","","","4","","","","","","","","",""
"","","","","","single-stim-button","205","626837","0.0-2.0-43.4-0.4","639618dc4a68e64c6956c39c","E1","batch5","","1147","tol_tohand","","","","tol_peg_2","1147","1147","0","[[3,0,0],[2,0],[0]]","5","[[2,3,0],[0,0],[1]]","11","0","","","","","","4","","","","","","","","",""
"","","","","","single-stim-button","206","628488","0.0-2.0-43.4-1.4","639618dc4a68e64c6956c39c","E1","batch5","","1648","tol_toboard","","","","tol_peg_3","1648","1648","0","[[3,0,0],[2,0],[1]]","5","[[2,3,0],[0,0],[1]]","11","0","","","","","","4","","","","","","","","",""
"","","","","","single-stim-button","207","633122","0.0-2.0-43.5-0.5","639618dc4a68e64c6956c39c","E1","batch5","","4630","tol_tohand","","","","tol_peg_3","4630","4630","0","[[3,0,0],[2,0],[0]]","6","[[2,3,0],[0,0],[1]]","11","0","","","","","","4","","","","","","","","",""
"","","","","","single-stim-button","208","635620","0.0-2.0-43.5-1.5","639618dc4a68e64c6956c39c","E1","batch5","","2496","tol_toboard","","","","tol_peg_2","2496","2496","0","[[3,0,0],[2,1],[0]]","6","[[2,3,0],[0,0],[1]]","11","0","","","","","","4","","","","","","","","",""
"","","","","","single-stim-button","209","636865","0.0-2.0-43.6-0.6","639618dc4a68e64c6956c39c","E1","batch5","","1242","tol_tohand","","","","tol_peg_1","1242","1242","0","[[0,0,0],[2,1],[0]]","7","[[2,3,0],[0,0],[1]]","11","0","","","","","","4","","","","","","","","",""
"","","","","","single-stim-button","210","638272","0.0-2.0-43.6-1.6","639618dc4a68e64c6956c39c","E1","batch5","","1405","tol_toboard","","","","tol_peg_3","1405","1405","0","[[0,0,0],[2,1],[3]]","7","[[2,3,0],[0,0],[1]]","11","0","","","","","","4","","","","","","","","",""
"","","","","","single-stim-button","211","641522","0.0-2.0-43.7-0.7","639618dc4a68e64c6956c39c","E1","batch5","","3247","tol_tohand","","","","tol_peg_2","3247","3247","0","[[0,0,0],[2,0],[3]]","8","[[2,3,0],[0,0],[1]]","11","0","","","","","","4","","","","","","","","",""
"","","","","","single-stim-button","212","644670","0.0-2.0-43.7-1.7","639618dc4a68e64c6956c39c","E1","batch5","","3146","tol_toboard","","","","tol_peg_1","3146","3146","0","[[1,0,0],[2,0],[3]]","8","[[2,3,0],[0,0],[1]]","11","0","","","","","","4","","","","","","","","",""
"","","","","","single-stim-button","213","646254","0.0-2.0-43.8-0.8","639618dc4a68e64c6956c39c","E1","batch5","","1580","tol_tohand","","","","tol_peg_2","1580","1580","0","[[1,0,0],[0,0],[3]]","9","[[2,3,0],[0,0],[1]]","11","0","","","","","","4","","","","","","","","",""
"","","","","","single-stim-button","214","647337","0.0-2.0-43.8-1.8","639618dc4a68e64c6956c39c","E1","batch5","","1080","tol_toboard","","","","tol_peg_1","1080","1080","0","[[1,2,0],[0,0],[3]]","9","[[2,3,0],[0,0],[1]]","11","0","","","","","","4","","","","","","","","",""
"","","","","","single-stim-button","215","652002","0.0-2.0-43.9-0.9","639618dc4a68e64c6956c39c","E1","batch5","","4663","tol_tohand","","","","tol_peg_3","4663","4663","0","[[1,2,0],[0,0],[0]]","10","[[2,3,0],[0,0],[1]]","11","0","","","","","","4","","","","","","","","",""
"","","","","","single-stim-button","216","653204","0.0-2.0-43.9-1.9","639618dc4a68e64c6956c39c","E1","batch5","","1198","tol_toboard","","","","tol_peg_2","1198","1198","0","[[1,2,0],[3,0],[0]]","10","[[2,3,0],[0,0],[1]]","11","0","","","","","","4","","","","","","","","",""
"","","","","","single-stim-button","217","654887","0.0-2.0-43.10-0.10","639618dc4a68e64c6956c39c","E1","batch5","","1681","tol_tohand","","","","tol_peg_1","1681","1681","0","[[1,0,0],[3,0],[0]]","11","[[2,3,0],[0,0],[1]]","11","0","","","","","","4","","","","","","","","",""
"","","","","","single-stim-button","218","657455","0.0-2.0-43.10-1.10","639618dc4a68e64c6956c39c","E1","batch5","","2566","tol_toboard","","","","tol_peg_3","2566","2566","0","[[1,0,0],[3,0],[2]]","11","[[2,3,0],[0,0],[1]]","11","0","","","","","","4","","","","","","","","",""
"","","","","","single-stim-button","219","658820","0.0-2.0-43.11-0.11","639618dc4a68e64c6956c39c","E1","batch5","","1362","tol_tohand","","","","tol_peg_1","1362","1362","0","[[0,0,0],[3,0],[2]]","12","[[2,3,0],[0,0],[1]]","11","0","","","","","","4","","","","","","","","",""
"","","","","","single-stim-button","220","660206","0.0-2.0-43.11-1.11","639618dc4a68e64c6956c39c","E1","batch5","","1383","tol_toboard","","","","tol_peg_2","1383","1383","0","[[0,0,0],[3,1],[2]]","12","[[2,3,0],[0,0],[1]]","11","0","","","","","","4","","","","","","","","",""
"","","","","","single-stim-button","221","661551","0.0-2.0-43.12-0.12","639618dc4a68e64c6956c39c","E1","batch5","","1344","tol_tohand","","","","tol_peg_3","1344","1344","0","[[0,0,0],[3,1],[0]]","13","[[2,3,0],[0,0],[1]]","11","0","","","","","","4","","","","","","","","",""
"","","","","","single-stim-button","222","663023","0.0-2.0-43.12-1.12","639618dc4a68e64c6956c39c","E1","batch5","","1470","tol_toboard","","","","tol_peg_1","1470","1470","0","[[2,0,0],[3,1],[0]]","13","[[2,3,0],[0,0],[1]]","11","0","","","","","","4","","","","","","","","",""
"","","","","","single-stim-button","223","664160","0.0-2.0-43.13-0.13","639618dc4a68e64c6956c39c","E1","batch5","","1134","tol_tohand","","","","tol_peg_2","1134","1134","0","[[2,0,0],[3,0],[0]]","14","[[2,3,0],[0,0],[1]]","11","0","","","","","","4","","","","","","","","",""
"","","","","","single-stim-button","224","665471","0.0-2.0-43.13-1.13","639618dc4a68e64c6956c39c","E1","batch5","","1308","tol_toboard","","","","tol_peg_3","1308","1308","0","[[2,0,0],[3,0],[1]]","14","[[2,3,0],[0,0],[1]]","11","0","","","","","","4","","","","","","","","",""
"","","","","","single-stim-button","225","666588","0.0-2.0-43.14-0.14","639618dc4a68e64c6956c39c","E1","batch5","","1113","tol_tohand","","","","tol_peg_2","1113","1113","0","[[2,0,0],[0,0],[1]]","15","[[2,3,0],[0,0],[1]]","11","0","","","","","","4","","","","","","","","",""
"","","","","","single-stim-button","226","667754","0.0-2.0-43.14-1.14","639618dc4a68e64c6956c39c","E1","batch5","","1164","tol_toboard","","","","tol_peg_1","1164","1164","0","[[2,3,0],[0,0],[1]]","15","[[2,3,0],[0,0],[1]]","11","0","","","","","","4","","","","","","","","",""
"","","","","","poldrack-single-stim","227","668767","0.0-2.0-44.0","639618dc4a68e64c6956c39c","E1","batch5","","-1","tol_feedback","","","true","","1000","1000","500","","","","","","-1","none","true","7126","37761","","","","","","","","","",""
"","","","","","html-button-response","228","670602","0.0-2.0-45.0","639618dc4a68e64c6956c39c","E1","batch5","","1832.4000000953674","tol_trial_num","<div class = centerbox><p class = center-block-text>problem <strong>13</strong> out of 25 problems</p></div>","0","","","","","","","","","","","","","","","","","","","","","","","","",""
"","","","","","single-stim-button","229","677754","0.0-2.0-46.0-0.0","639618dc4a68e64c6956c39c","E1","batch5","","7148","tol_tohand","","","","tol_peg_1","7148","7148","0","[[1,0,0],[3,0],[0]]","1","[[0,0,0],[2,3],[1]]","12","0","","","","","","4","","","","","","","","",""
"","","","","","single-stim-button","230","680736","0.0-2.0-46.0-1.0","639618dc4a68e64c6956c39c","E1","batch5","","2978","tol_toboard","","","","tol_peg_3","2978","2978","0","[[1,0,0],[3,0],[2]]","1","[[0,0,0],[2,3],[1]]","12","0","","","","","","4","","","","","","","","",""
"","","","","","single-stim-button","231","682185","0.0-2.0-46.1-0.1","639618dc4a68e64c6956c39c","E1","batch5","","1447","tol_tohand","","","","tol_peg_1","1447","1447","0","[[0,0,0],[3,0],[2]]","2","[[0,0,0],[2,3],[1]]","12","0","","","","","","4","","","","","","","","",""
"","","","","","single-stim-button","232","684335","0.0-2.0-46.1-1.1","639618dc4a68e64c6956c39c","E1","batch5","","2149","tol_toboard","","","","tol_peg_2","2149","2149","0","[[0,0,0],[3,1],[2]]","2","[[0,0,0],[2,3],[1]]","12","0","","","","","","4","","","","","","","","",""
"","","","","","single-stim-button","233","687043","0.0-2.0-46.2-0.2","639618dc4a68e64c6956c39c","E1","batch5","","2706","tol_tohand","","","","tol_peg_3","2706","2706","0","[[0,0,0],[3,1],[0]]","3","[[0,0,0],[2,3],[1]]","12","0","","","","","","4","","","","","","","","",""
"","","","","","single-stim-button","234","688642","0.0-2.0-46.2-1.2","639618dc4a68e64c6956c39c","E1","batch5","","1597","tol_toboard","","","","tol_peg_1","1597","1597","0","[[2,0,0],[3,1],[0]]","3","[[0,0,0],[2,3],[1]]","12","0","","","","","","4","","","","","","","","",""
"","","","","","single-stim-button","235","689503","0.0-2.0-46.3-0.3","639618dc4a68e64c6956c39c","E1","batch5","","857","tol_tohand","","","","tol_peg_2","857","857","0","[[2,0,0],[3,0],[0]]","4","[[0,0,0],[2,3],[1]]","12","0","","","","","","4","","","","","","","","",""
"","","","","","single-stim-button","236","691004","0.0-2.0-46.3-1.3","639618dc4a68e64c6956c39c","E1","batch5","","1498","tol_toboard","","","","tol_peg_3","1498","1498","0","[[2,0,0],[3,0],[1]]","4","[[0,0,0],[2,3],[1]]","12","0","","","","","","4","","","","","","","","",""
"","","","","","single-stim-button","237","697551","0.0-2.0-46.4-0.4","639618dc4a68e64c6956c39c","E1","batch5","","6544","tol_tohand","","","","tol_peg_1","6544","6544","0","[[0,0,0],[3,0],[1]]","5","[[0,0,0],[2,3],[1]]","12","0","","","","","","4","","","","","","","","",""
"","","","","","single-stim-button","238","698669","0.0-2.0-46.4-1.4","639618dc4a68e64c6956c39c","E1","batch5","","1116","tol_toboard","","","","tol_peg_2","1116","1116","0","[[0,0,0],[3,2],[1]]","5","[[0,0,0],[2,3],[1]]","12","0","","","","","","4","","","","","","","","",""
"","","","","","single-stim-button","239","700085","0.0-2.0-46.5-0.5","639618dc4a68e64c6956c39c","E1","batch5","","1415","tol_tohand","","","","tol_peg_3","1415","1415","0","[[0,0,0],[3,2],[0]]","6","[[0,0,0],[2,3],[1]]","12","0","","","","","","4","","","","","","","","",""
"","","","","","single-stim-button","240","701298","0.0-2.0-46.5-1.5","639618dc4a68e64c6956c39c","E1","batch5","","1210","tol_toboard","","","","tol_peg_1","1210","1210","0","[[1,0,0],[3,2],[0]]","6","[[0,0,0],[2,3],[1]]","12","0","","","","","","4","","","","","","","","",""
"","","","","","single-stim-button","241","702654","0.0-2.0-46.6-0.6","639618dc4a68e64c6956c39c","E1","batch5","","1353","tol_tohand","","","","tol_peg_2","1353","1353","0","[[1,0,0],[3,0],[0]]","7","[[0,0,0],[2,3],[1]]","12","0","","","","","","4","","","","","","","","",""
"","","","","","single-stim-button","242","703987","0.0-2.0-46.6-1.6","639618dc4a68e64c6956c39c","E1","batch5","","1331","tol_toboard","","","","tol_peg_3","1331","1331","0","[[1,0,0],[3,0],[2]]","7","[[0,0,0],[2,3],[1]]","12","0","","","","","","4","","","","","","","","",""
"","","","","","single-stim-button","243","707020","0.0-2.0-46.7-0.7","639618dc4a68e64c6956c39c","E1","batch5","","3030","tol_tohand","","","","tol_peg_1","3030","3030","0","[[0,0,0],[3,0],[2]]","8","[[0,0,0],[2,3],[1]]","12","0","","","","","","4","","","","","","","","",""
"","","","","","single-stim-button","244","708253","0.0-2.0-46.7-1.7","639618dc4a68e64c6956c39c","E1","batch5","","1229","tol_toboard","","","","tol_peg_2","1229","1229","0","[[0,0,0],[3,1],[2]]","8","[[0,0,0],[2,3],[1]]","12","0","","","","","","4","","","","","","","","",""
"","","","","","single-stim-button","245","710337","0.0-2.0-46.8-0.8","639618dc4a68e64c6956c39c","E1","batch5","","2081","tol_tohand","","","","tol_peg_2","2081","2081","0","[[0,0,0],[3,0],[2]]","9","[[0,0,0],[2,3],[1]]","12","0","","","","","","4","","","","","","","","",""
"","","","","","single-stim-button","246","716469","0.0-2.0-46.8-1.8","639618dc4a68e64c6956c39c","E1","batch5","","6129","tol_toboard","","","","tol_peg_1","6129","6129","0","[[1,0,0],[3,0],[2]]","9","[[0,0,0],[2,3],[1]]","12","0","","","","","","4","","","","","","","","",""
"","","","","","single-stim-button","247","718288","0.0-2.0-46.9-0.9","639618dc4a68e64c6956c39c","E1","batch5","","1816","tol_tohand","","","","tol_peg_3","1816","1816","0","[[1,0,0],[3,0],[0]]","10","[[0,0,0],[2,3],[1]]","12","0","","","","","","4","","","","","","","","",""
"","","","","","single-stim-button","248","719452","0.0-2.0-46.9-1.9","639618dc4a68e64c6956c39c","E1","batch5","","1161","tol_toboard","","","","tol_peg_2","1161","1161","0","[[1,0,0],[3,2],[0]]","10","[[0,0,0],[2,3],[1]]","12","0","","","","","","4","","","","","","","","",""
"","","","","","single-stim-button","249","721087","0.0-2.0-46.10-0.10","639618dc4a68e64c6956c39c","E1","batch5","","1633","tol_tohand","","","","tol_peg_1","1633","1633","0","[[0,0,0],[3,2],[0]]","11","[[0,0,0],[2,3],[1]]","12","0","","","","","","4","","","","","","","","",""
"","","","","","single-stim-button","250","723985","0.0-2.0-46.10-1.10","639618dc4a68e64c6956c39c","E1","batch5","","2896","tol_toboard","","","","tol_peg_3","2896","2896","0","[[0,0,0],[3,2],[1]]","11","[[0,0,0],[2,3],[1]]","12","0","","","","","","4","","","","","","","","",""
"","","","","","single-stim-button","251","725304","0.0-2.0-46.11-0.11","639618dc4a68e64c6956c39c","E1","batch5","","1315","tol_tohand","","","","tol_peg_2","1315","1315","0","[[0,0,0],[3,0],[1]]","12","[[0,0,0],[2,3],[1]]","12","0","","","","","","4","","","","","","","","",""
"","","","","","single-stim-button","252","726553","0.0-2.0-46.11-1.11","639618dc4a68e64c6956c39c","E1","batch5","","1247","tol_toboard","","","","tol_peg_1","1247","1247","0","[[2,0,0],[3,0],[1]]","12","[[0,0,0],[2,3],[1]]","12","0","","","","","","4","","","","","","","","",""
"","","","","","single-stim-button","253","733120","0.0-2.0-46.12-0.12","639618dc4a68e64c6956c39c","E1","batch5","","6564","tol_tohand","","","","tol_peg_3","6564","6564","0","[[2,0,0],[3,0],[0]]","13","[[0,0,0],[2,3],[1]]","12","0","","","","","","4","","","","","","","","",""
"","","","","","single-stim-button","254","734186","0.0-2.0-46.12-1.12","639618dc4a68e64c6956c39c","E1","batch5","","1063","tol_toboard","","","","tol_peg_1","1063","1063","0","[[2,1,0],[3,0],[0]]","13","[[0,0,0],[2,3],[1]]","12","0","","","","","","4","","","","","","","","",""
"","","","","","single-stim-button","255","735451","0.0-2.0-46.13-0.13","639618dc4a68e64c6956c39c","E1","batch5","","1264","tol_tohand","","","","tol_peg_2","1264","1264","0","[[2,1,0],[0,0],[0]]","14","[[0,0,0],[2,3],[1]]","12","0","","","","","","4","","","","","","","","",""
"","","","","","single-stim-button","256","736634","0.0-2.0-46.13-1.13","639618dc4a68e64c6956c39c","E1","batch5","","1181","tol_toboard","","","","tol_peg_3","1181","1181","0","[[2,1,0],[0,0],[3]]","14","[[0,0,0],[2,3],[1]]","12","0","","","","","","4","","","","","","","","",""
"","","","","","single-stim-button","257","744038","0.0-2.0-46.14-0.14","639618dc4a68e64c6956c39c","E1","batch5","","7402","tol_tohand","","","","tol_peg_3","7402","7402","0","[[2,1,0],[0,0],[0]]","15","[[0,0,0],[2,3],[1]]","12","0","","","","","","4","","","","","","","","",""
"","","","","","single-stim-button","258","745383","0.0-2.0-46.14-1.14","639618dc4a68e64c6956c39c","E1","batch5","","1343","tol_toboard","","","","tol_peg_1","1343","1343","0","[[2,1,3],[0,0],[0]]","15","[[0,0,0],[2,3],[1]]","12","0","","","","","","4","","","","","","","","",""
"","","","","","single-stim-button","259","749337","0.0-2.0-46.15-0.15","639618dc4a68e64c6956c39c","E1","batch5","","3952","tol_tohand","","","","tol_peg_1","3952","3952","0","[[2,1,0],[0,0],[0]]","16","[[0,0,0],[2,3],[1]]","12","0","","","","","","4","","","","","","","","",""
"","","","","","single-stim-button","260","750986","0.0-2.0-46.15-1.15","639618dc4a68e64c6956c39c","E1","batch5","","1646","tol_toboard","","","","tol_peg_2","1646","1646","0","[[2,1,0],[3,0],[0]]","16","[[0,0,0],[2,3],[1]]","12","0","","","","","","4","","","","","","","","",""
"","","","","","single-stim-button","261","752869","0.0-2.0-46.16-0.16","639618dc4a68e64c6956c39c","E1","batch5","","1880","tol_tohand","","","","tol_peg_1","1880","1880","0","[[2,0,0],[3,0],[0]]","17","[[0,0,0],[2,3],[1]]","12","0","","","","","","4","","","","","","","","",""
"","","","","","single-stim-button","262","754537","0.0-2.0-46.16-1.16","639618dc4a68e64c6956c39c","E1","batch5","","1664","tol_toboard","","","","tol_peg_2","1664","1664","0","[[2,0,0],[3,1],[0]]","17","[[0,0,0],[2,3],[1]]","12","0","","","","","","4","","","","","","","","",""
"","","","","","single-stim-button","263","755757","0.0-2.0-46.17-0.17","639618dc4a68e64c6956c39c","E1","batch5","","1217","tol_tohand","","","","tol_peg_1","1217","1217","0","[[0,0,0],[3,1],[0]]","18","[[0,0,0],[2,3],[1]]","12","0","","","","","","4","","","","","","","","",""
"","","","","","single-stim-button","264","757153","0.0-2.0-46.17-1.17","639618dc4a68e64c6956c39c","E1","batch5","","1394","tol_toboard","","","","tol_peg_3","1394","1394","0","[[0,0,0],[3,1],[2]]","18","[[0,0,0],[2,3],[1]]","12","0","","","","","","4","","","","","","","","",""
"","","","","","single-stim-button","265","763451","0.0-2.0-46.18-0.18","639618dc4a68e64c6956c39c","E1","batch5","","6296","tol_tohand","","","","tol_peg_3","6296","6296","0","[[0,0,0],[3,1],[0]]","19","[[0,0,0],[2,3],[1]]","12","0","","","","","","4","","","","","","","","",""
"","","","","","single-stim-button","266","764589","0.0-2.0-46.18-1.18","639618dc4a68e64c6956c39c","E1","batch5","","1137","tol_toboard","","","","tol_peg_1","1137","1137","0","[[2,0,0],[3,1],[0]]","19","[[0,0,0],[2,3],[1]]","12","0","","","","","","4","","","","","","","","",""
"","","","","","single-stim-button","267","766020","0.0-2.0-46.19-0.19","639618dc4a68e64c6956c39c","E1","batch5","","1429","tol_tohand","","","","tol_peg_2","1429","1429","0","[[2,0,0],[3,0],[0]]","20","[[0,0,0],[2,3],[1]]","12","0","","","","","","4","","","","","","","","",""
"","","","","","single-stim-button","268","767369","0.0-2.0-46.19-1.19","639618dc4a68e64c6956c39c","E1","batch5","","1346","tol_toboard","","","","tol_peg_3","1346","1346","0","[[2,0,0],[3,0],[1]]","20","[[0,0,0],[2,3],[1]]","12","0","","","","","","4","","","","","","","","",""
"","","","","","single-stim-button","269","769069","0.0-2.0-46.20-0.20","639618dc4a68e64c6956c39c","E1","batch5","","1698","tol_tohand","","","","tol_peg_2","1698","1698","0","[[2,0,0],[0,0],[1]]","21","[[0,0,0],[2,3],[1]]","12","0","","","","","","4","","","","","","","","",""
"","","","","","single-stim-button","270","772502","0.0-2.0-46.20-1.20","639618dc4a68e64c6956c39c","E1","batch5","","3431","tol_toboard","","","","tol_peg_1","3431","3431","0","[[2,3,0],[0,0],[1]]","21","[[0,0,0],[2,3],[1]]","12","0","","","","","","4","","","","","","","","",""
"","","","","","single-stim-button","271","774487","0.0-2.0-46.21-0.21","639618dc4a68e64c6956c39c","E1","batch5","","1984","tol_tohand","","","","tol_peg_1","1984","1984","0","[[2,0,0],[0,0],[1]]","22","[[0,0,0],[2,3],[1]]","12","0","","","","","","4","","","","","","","","",""
"","","","","","single-stim-button","272","775905","0.0-2.0-46.21-1.21","639618dc4a68e64c6956c39c","E1","batch5","","1415","tol_toboard","","","","tol_peg_1","1415","1415","0","[[2,3,0],[0,0],[1]]","22","[[0,0,0],[2,3],[1]]","12","0","","","","","","4","","","","","","","","",""
"","","","","","single-stim-button","273","784186","0.0-2.0-46.22-0.22","639618dc4a68e64c6956c39c","E1","batch5","","8278","tol_tohand","","","","tol_peg_1","8278","8278","0","[[2,0,0],[0,0],[1]]","23","[[0,0,0],[2,3],[1]]","12","0","","","","","","4","","","","","","","","",""
"","","","","","single-stim-button","274","785618","0.0-2.0-46.22-1.22","639618dc4a68e64c6956c39c","E1","batch5","","1429","tol_toboard","","","","tol_peg_2","1429","1429","0","[[2,0,0],[3,0],[1]]","23","[[0,0,0],[2,3],[1]]","12","0","","","","","","4","","","","","","","","",""
"","","","","","single-stim-button","275","788041","0.0-2.0-46.23-0.23","639618dc4a68e64c6956c39c","E1","batch5","","2420","tol_tohand","","","","tol_peg_3","2420","2420","0","[[2,0,0],[3,0],[0]]","24","[[0,0,0],[2,3],[1]]","12","0","","","","","","4","","","","","","","","",""
"","","","","","single-stim-button","276","789068","0.0-2.0-46.23-1.23","639618dc4a68e64c6956c39c","E1","batch5","","1023","tol_toboard","","","","tol_peg_2","1023","1023","0","[[2,0,0],[3,1],[0]]","24","[[0,0,0],[2,3],[1]]","12","0","","","","","","4","","","","","","","","",""
"","","","","","single-stim-button","277","790254","0.0-2.0-46.24-0.24","639618dc4a68e64c6956c39c","E1","batch5","","1184","tol_tohand","","","","tol_peg_1","1184","1184","0","[[0,0,0],[3,1],[0]]","25","[[0,0,0],[2,3],[1]]","12","0","","","","","","4","","","","","","","","",""
"","","","","","single-stim-button","278","791721","0.0-2.0-46.24-1.24","639618dc4a68e64c6956c39c","E1","batch5","","1463","tol_toboard","","","","tol_peg_3","1463","1463","0","[[0,0,0],[3,1],[2]]","25","[[0,0,0],[2,3],[1]]","12","0","","","","","","4","","","","","","","","",""
"","","","","","single-stim-button","279","794786","0.0-2.0-46.25-0.25","639618dc4a68e64c6956c39c","E1","batch5","","3063","tol_tohand","","","","tol_peg_2","3063","3063","0","[[0,0,0],[3,0],[2]]","26","[[0,0,0],[2,3],[1]]","12","0","","","","","","4","","","","","","","","",""
"","","","","","single-stim-button","280","796436","0.0-2.0-46.25-1.25","639618dc4a68e64c6956c39c","E1","batch5","","1648","tol_toboard","","","","tol_peg_1","1648","1648","0","[[1,0,0],[3,0],[2]]","26","[[0,0,0],[2,3],[1]]","12","0","","","","","","4","","","","","","","","",""
"","","","","","single-stim-button","281","797803","0.0-2.0-46.26-0.26","639618dc4a68e64c6956c39c","E1","batch5","","1364","tol_tohand","","","","tol_peg_2","1364","1364","0","[[1,0,0],[0,0],[2]]","27","[[0,0,0],[2,3],[1]]","12","0","","","","","","4","","","","","","","","",""
"","","","","","single-stim-button","282","798902","0.0-2.0-46.26-1.26","639618dc4a68e64c6956c39c","E1","batch5","","1096","tol_toboard","","","","tol_peg_1","1096","1096","0","[[1,3,0],[0,0],[2]]","27","[[0,0,0],[2,3],[1]]","12","0","","","","","","4","","","","","","","","",""
"","","","","","single-stim-button","283","802154","0.0-2.0-46.27-0.27","639618dc4a68e64c6956c39c","E1","batch5","","3250","tol_tohand","","","","tol_peg_3","3250","3250","0","[[1,3,0],[0,0],[0]]","28","[[0,0,0],[2,3],[1]]","12","0","","","","","","4","","","","","","","","",""
"","","","","","single-stim-button","284","803167","0.0-2.0-46.27-1.27","639618dc4a68e64c6956c39c","E1","batch5","","1012","tol_toboard","","","","tol_peg_2","1012","1012","0","[[1,3,0],[2,0],[0]]","28","[[0,0,0],[2,3],[1]]","12","0","","","","","","4","","","","","","","","",""
"","","","","","single-stim-button","285","804653","0.0-2.0-46.28-0.28","639618dc4a68e64c6956c39c","E1","batch5","","1483","tol_tohand","","","","tol_peg_1","1483","1483","0","[[1,0,0],[2,0],[0]]","29","[[0,0,0],[2,3],[1]]","12","0","","","","","","4","","","","","","","","",""
"","","","","","single-stim-button","286","807069","0.0-2.0-46.28-1.28","639618dc4a68e64c6956c39c","E1","batch5","","2413","tol_toboard","","","","tol_peg_2","2413","2413","0","[[1,0,0],[2,3],[0]]","29","[[0,0,0],[2,3],[1]]","12","0","","","","","","4","","","","","","","","",""
"","","","","","single-stim-button","287","808242","0.0-2.0-46.29-0.29","639618dc4a68e64c6956c39c","E1","batch5","","1170","tol_tohand","","","","tol_peg_1","1170","1170","0","[[0,0,0],[2,3],[0]]","30","[[0,0,0],[2,3],[1]]","12","0","","","","","","4","","","","","","","","",""
"","","","","","single-stim-button","288","809635","0.0-2.0-46.29-1.29","639618dc4a68e64c6956c39c","E1","batch5","","1388","tol_toboard","","","","tol_peg_3","1388","1388","0","[[0,0,0],[2,3],[1]]","30","[[0,0,0],[2,3],[1]]","12","0","","","","","","4","","","","","","","","",""
"","","","","","poldrack-single-stim","289","810653","0.0-2.0-47.0","639618dc4a68e64c6956c39c","E1","batch5","","-1","tol_feedback","","","true","","1000","1000","500","","","","","","-1","none","true","7148","87243","","","","","","","","","",""
"","","","","","html-button-response","290","813387","0.0-2.0-48.0","639618dc4a68e64c6956c39c","E1","batch5","","2731.7000000476837","attention_check","<p class = block-text>How many balls are in your board<br></p>","1","true","","","","","","","","","","","","","","","","","","","","","","","",""
"","","","","","html-button-response","291","815305","0.0-2.0-49.0","639618dc4a68e64c6956c39c","E1","batch5","","1913.7000000476837","tol_trial_num","<div class = centerbox><p class = center-block-text>problem <strong>14</strong> out of 25 problems</p></div>","0","","","","","","","","","","","","","","","","","","","","","","","","",""
"","","","","","single-stim-button","292","821134","0.0-2.0-50.0-0.0","639618dc4a68e64c6956c39c","E1","batch5","","5826","tol_tohand","","","","tol_peg_1","5826","5826","0","[[2,0,0],[3,0],[0]]","1","[[1,2,0],[3,0],[0]]","13","0","","","","","","4","","","","","","","","",""
"","","","","","single-stim-button","293","822701","0.0-2.0-50.0-1.0","639618dc4a68e64c6956c39c","E1","batch5","","1566","tol_toboard","","","","tol_peg_3","1566","1566","0","[[2,0,0],[3,0],[1]]","1","[[1,2,0],[3,0],[0]]","13","0","","","","","","4","","","","","","","","",""
"","","","","","single-stim-button","294","824202","0.0-2.0-50.1-0.1","639618dc4a68e64c6956c39c","E1","batch5","","1497","tol_tohand","","","","tol_peg_1","1497","1497","0","[[0,0,0],[3,0],[1]]","2","[[1,2,0],[3,0],[0]]","13","0","","","","","","4","","","","","","","","",""
"","","","","","single-stim-button","295","825517","0.0-2.0-50.1-1.1","639618dc4a68e64c6956c39c","E1","batch5","","1313","tol_toboard","","","","tol_peg_2","1313","1313","0","[[0,0,0],[3,2],[1]]","2","[[1,2,0],[3,0],[0]]","13","0","","","","","","4","","","","","","","","",""
"","","","","","single-stim-button","296","827019","0.0-2.0-50.2-0.2","639618dc4a68e64c6956c39c","E1","batch5","","1499","tol_tohand","","","","tol_peg_3","1499","1499","0","[[0,0,0],[3,2],[0]]","3","[[1,2,0],[3,0],[0]]","13","0","","","","","","4","","","","","","","","",""
"","","","","","single-stim-button","297","828137","0.0-2.0-50.2-1.2","639618dc4a68e64c6956c39c","E1","batch5","","1114","tol_toboard","","","","tol_peg_1","1114","1114","0","[[1,0,0],[3,2],[0]]","3","[[1,2,0],[3,0],[0]]","13","0","","","","","","4","","","","","","","","",""
"","","","","","single-stim-button","298","829300","0.0-2.0-50.3-0.3","639618dc4a68e64c6956c39c","E1","batch5","","1161","tol_tohand","","","","tol_peg_2","1161","1161","0","[[1,0,0],[3,0],[0]]","4","[[1,2,0],[3,0],[0]]","13","0","","","","","","4","","","","","","","","",""
"","","","","","single-stim-button","299","830536","0.0-2.0-50.3-1.3","639618dc4a68e64c6956c39c","E1","batch5","","1233","tol_toboard","","","","tol_peg_1","1233","1233","0","[[1,2,0],[3,0],[0]]","4","[[1,2,0],[3,0],[0]]","13","0","","","","","","4","","","","","","","","",""
"","","","","","poldrack-single-stim","300","831546","0.0-2.0-51.0","639618dc4a68e64c6956c39c","E1","batch5","","-1","tol_feedback","","","true","","1000","1000","500","","","","","","-1","none","true","5826","9983","","","","","","","","","",""
"","","","","","html-button-response","301","833138","0.0-2.0-52.0","639618dc4a68e64c6956c39c","E1","batch5","","1590.0999999046326","tol_trial_num","<div class = centerbox><p class = center-block-text>problem <strong>15</strong> out of 25 problems</p></div>","0","","","","","","","","","","","","","","","","","","","","","","","","",""
"","","","","","single-stim-button","302","841818","0.0-2.0-53.0-0.0","639618dc4a68e64c6956c39c","E1","batch5","","8679","tol_tohand","","","","tol_peg_1","8679","8679","0","[[1,0,0],[3,0],[0]]","1","[[2,0,0],[3,0],[1]]","14","0","","","","","","3","","","","","","","","",""
"","","","","","single-stim-button","303","842968","0.0-2.0-53.0-1.0","639618dc4a68e64c6956c39c","E1","batch5","","1146","tol_toboard","","","","tol_peg_2","1146","1146","0","[[1,0,0],[3,2],[0]]","1","[[2,0,0],[3,0],[1]]","14","0","","","","","","3","","","","","","","","",""
"","","","","","single-stim-button","304","844228","0.0-2.0-53.1-0.1","639618dc4a68e64c6956c39c","E1","batch5","","1257","tol_tohand","","","","tol_peg_1","1257","1257","0","[[0,0,0],[3,2],[0]]","2","[[2,0,0],[3,0],[1]]","14","0","","","","","","3","","","","","","","","",""
"","","","","","single-stim-button","305","845986","0.0-2.0-53.1-1.1","639618dc4a68e64c6956c39c","E1","batch5","","1755","tol_toboard","","","","tol_peg_3","1755","1755","0","[[0,0,0],[3,2],[1]]","2","[[2,0,0],[3,0],[1]]","14","0","","","","","","3","","","","","","","","",""
"","","","","","single-stim-button","306","847685","0.0-2.0-53.2-0.2","639618dc4a68e64c6956c39c","E1","batch5","","1697","tol_tohand","","","","tol_peg_2","1697","1697","0","[[0,0,0],[3,0],[1]]","3","[[2,0,0],[3,0],[1]]","14","0","","","","","","3","","","","","","","","",""
"","","","","","single-stim-button","307","848852","0.0-2.0-53.2-1.2","639618dc4a68e64c6956c39c","E1","batch5","","1164","tol_toboard","","","","tol_peg_1","1164","1164","0","[[2,0,0],[3,0],[1]]","3","[[2,0,0],[3,0],[1]]","14","0","","","","","","3","","","","","","","","",""
"","","","","","poldrack-single-stim","308","849870","0.0-2.0-54.0","639618dc4a68e64c6956c39c","E1","batch5","","-1","tol_feedback","","","true","","1000","1000","500","","","","","","-1","none","true","8679","11633","","","","","","","","","",""
"","","","","","html-button-response","309","851505","0.0-2.0-55.0","639618dc4a68e64c6956c39c","E1","batch5","","1632.1000001430511","tol_trial_num","<div class = centerbox><p class = center-block-text>problem <strong>16</strong> out of 25 problems</p></div>","0","","","","","","","","","","","","","","","","","","","","","","","","",""
"","","","","","single-stim-button","310","857618","0.0-2.0-56.0-0.0","639618dc4a68e64c6956c39c","E1","batch5","","6111","tol_tohand","","","","tol_peg_2","6111","6111","0","[[0,0,0],[2,0],[1]]","1","[[2,3,0],[1,0],[0]]","15","0","","","","","","7","","","","","","","","",""
"","","","","","single-stim-button","311","858668","0.0-2.0-56.0-1.0","639618dc4a68e64c6956c39c","E1","batch5","","1046","tol_toboard","","","","tol_peg_2","1046","1046","0","[[0,0,0],[2,3],[1]]","1","[[2,3,0],[1,0],[0]]","15","0","","","","","","7","","","","","","","","",""
"","","","","","single-stim-button","312","873151","0.0-2.0-56.1-0.1","639618dc4a68e64c6956c39c","E1","batch5","","14481","tol_tohand","","","","tol_peg_3","14481","14481","0","[[0,0,0],[2,3],[0]]","2","[[2,3,0],[1,0],[0]]","15","0","","","","","","7","","","","","","","","",""
"","","","","","single-stim-button","313","874419","0.0-2.0-56.1-1.1","639618dc4a68e64c6956c39c","E1","batch5","","1265","tol_toboard","","","","tol_peg_1","1265","1265","0","[[1,0,0],[2,3],[0]]","2","[[2,3,0],[1,0],[0]]","15","0","","","","","","7","","","","","","","","",""
"","","","","","single-stim-button","314","875587","0.0-2.0-56.2-0.2","639618dc4a68e64c6956c39c","E1","batch5","","1164","tol_tohand","","","","tol_peg_2","1164","1164","0","[[1,0,0],[2,0],[0]]","3","[[2,3,0],[1,0],[0]]","15","0","","","","","","7","","","","","","","","",""
"","","","","","single-stim-button","315","877168","0.0-2.0-56.2-1.2","639618dc4a68e64c6956c39c","E1","batch5","","1579","tol_toboard","","","","tol_peg_3","1579","1579","0","[[1,0,0],[2,0],[3]]","3","[[2,3,0],[1,0],[0]]","15","0","","","","","","7","","","","","","","","",""
"","","","","","single-stim-button","316","880101","0.0-2.0-56.3-0.3","639618dc4a68e64c6956c39c","E1","batch5","","2931","tol_tohand","","","","tol_peg_1","2931","2931","0","[[0,0,0],[2,0],[3]]","4","[[2,3,0],[1,0],[0]]","15","0","","","","","","7","","","","","","","","",""
"","","","","","single-stim-button","317","886470","0.0-2.0-56.3-1.3","639618dc4a68e64c6956c39c","E1","batch5","","6367","tol_toboard","","","","tol_peg_1","6367","6367","0","[[1,0,0],[2,0],[3]]","4","[[2,3,0],[1,0],[0]]","15","0","","","","","","7","","","","","","","","",""
"","","","","","single-stim-button","318","889384","0.0-2.0-56.4-0.4","639618dc4a68e64c6956c39c","E1","batch5","","2912","tol_tohand","","","","tol_peg_3","2912","2912","0","[[1,0,0],[2,0],[0]]","5","[[2,3,0],[1,0],[0]]","15","0","","","","","","7","","","","","","","","",""
"","","","","","single-stim-button","319","891204","0.0-2.0-56.4-1.4","639618dc4a68e64c6956c39c","E1","batch5","","1817","tol_toboard","","","","tol_peg_1","1817","1817","0","[[1,3,0],[2,0],[0]]","5","[[2,3,0],[1,0],[0]]","15","0","","","","","","7","","","","","","","","",""
"","","","","","single-stim-button","320","892552","0.0-2.0-56.5-0.5","639618dc4a68e64c6956c39c","E1","batch5","","1346","tol_tohand","","","","tol_peg_2","1346","1346","0","[[1,3,0],[0,0],[0]]","6","[[2,3,0],[1,0],[0]]","15","0","","","","","","7","","","","","","","","",""
"","","","","","single-stim-button","321","893567","0.0-2.0-56.5-1.5","639618dc4a68e64c6956c39c","E1","batch5","","1013","tol_toboard","","","","tol_peg_3","1013","1013","0","[[1,3,0],[0,0],[2]]","6","[[2,3,0],[1,0],[0]]","15","0","","","","","","7","","","","","","","","",""
"","","","","","single-stim-button","322","896833","0.0-2.0-56.6-0.6","639618dc4a68e64c6956c39c","E1","batch5","","3264","tol_tohand","","","","tol_peg_1","3264","3264","0","[[1,0,0],[0,0],[2]]","7","[[2,3,0],[1,0],[0]]","15","0","","","","","","7","","","","","","","","",""
"","","","","","single-stim-button","323","898453","0.0-2.0-56.6-1.6","639618dc4a68e64c6956c39c","E1","batch5","","1617","tol_toboard","","","","tol_peg_2","1617","1617","0","[[1,0,0],[3,0],[2]]","7","[[2,3,0],[1,0],[0]]","15","0","","","","","","7","","","","","","","","",""
"","","","","","single-stim-button","324","899552","0.0-2.0-56.7-0.7","639618dc4a68e64c6956c39c","E1","batch5","","1096","tol_tohand","","","","tol_peg_1","1096","1096","0","[[0,0,0],[3,0],[2]]","8","[[2,3,0],[1,0],[0]]","15","0","","","","","","7","","","","","","","","",""
"","","","","","single-stim-button","325","900599","0.0-2.0-56.7-1.7","639618dc4a68e64c6956c39c","E1","batch5","","1045","tol_toboard","","","","tol_peg_2","1045","1045","0","[[0,0,0],[3,1],[2]]","8","[[2,3,0],[1,0],[0]]","15","0","","","","","","7","","","","","","","","",""
"","","","","","single-stim-button","326","902102","0.0-2.0-56.8-0.8","639618dc4a68e64c6956c39c","E1","batch5","","1501","tol_tohand","","","","tol_peg_3","1501","1501","0","[[0,0,0],[3,1],[0]]","9","[[2,3,0],[1,0],[0]]","15","0","","","","","","7","","","","","","","","",""
"","","","","","single-stim-button","327","903303","0.0-2.0-56.8-1.8","639618dc4a68e64c6956c39c","E1","batch5","","1198","tol_toboard","","","","tol_peg_1","1198","1198","0","[[2,0,0],[3,1],[0]]","9","[[2,3,0],[1,0],[0]]","15","0","","","","","","7","","","","","","","","",""
"","","","","","single-stim-button","328","904750","0.0-2.0-56.9-0.9","639618dc4a68e64c6956c39c","E1","batch5","","1445","tol_tohand","","","","tol_peg_2","1445","1445","0","[[2,0,0],[3,0],[0]]","10","[[2,3,0],[1,0],[0]]","15","0","","","","","","7","","","","","","","","",""
"","","","","","single-stim-button","329","907085","0.0-2.0-56.9-1.9","639618dc4a68e64c6956c39c","E1","batch5","","2333","tol_toboard","","","","tol_peg_3","2333","2333","0","[[2,0,0],[3,0],[1]]","10","[[2,3,0],[1,0],[0]]","15","0","","","","","","7","","","","","","","","",""
"","","","","","single-stim-button","330","908117","0.0-2.0-56.10-0.10","639618dc4a68e64c6956c39c","E1","batch5","","1030","tol_tohand","","","","tol_peg_2","1030","1030","0","[[2,0,0],[0,0],[1]]","11","[[2,3,0],[1,0],[0]]","15","0","","","","","","7","","","","","","","","",""
"","","","","","single-stim-button","331","909351","0.0-2.0-56.10-1.10","639618dc4a68e64c6956c39c","E1","batch5","","1231","tol_toboard","","","","tol_peg_1","1231","1231","0","[[2,3,0],[0,0],[1]]","11","[[2,3,0],[1,0],[0]]","15","0","","","","","","7","","","","","","","","",""
"","","","","","single-stim-button","332","910634","0.0-2.0-56.11-0.11","639618dc4a68e64c6956c39c","E1","batch5","","1281","tol_tohand","","","","tol_peg_3","1281","1281","0","[[2,3,0],[0,0],[0]]","12","[[2,3,0],[1,0],[0]]","15","0","","","","","","7","","","","","","","","",""
"","","","","","single-stim-button","333","911800","0.0-2.0-56.11-1.11","639618dc4a68e64c6956c39c","E1","batch5","","1163","tol_toboard","","","","tol_peg_2","1163","1163","0","[[2,3,0],[1,0],[0]]","12","[[2,3,0],[1,0],[0]]","15","0","","","","","","7","","","","","","","","",""
"","","","","","poldrack-single-stim","334","912818","0.0-2.0-57.0","639618dc4a68e64c6956c39c","E1","batch5","","-1","tol_feedback","","","true","","1000","1000","500","","","","","","-1","none","true","6111","38562","","","","","","","","","",""
"","","","","","html-button-response","335","914319","0.0-2.0-58.0","639618dc4a68e64c6956c39c","E1","batch5","","1499.7000000476837","tol_trial_num","<div class = centerbox><p class = center-block-text>problem <strong>17</strong> out of 25 problems</p></div>","0","","","","","","","","","","","","","","","","","","","","","","","","",""
"","","","","","single-stim-button","336","921251","0.0-2.0-59.0-0.0","639618dc4a68e64c6956c39c","E1","batch5","","6928","tol_tohand","","","","tol_peg_1","6928","6928","0","[[1,0,0],[3,0],[0]]","1","[[3,1,0],[2,0],[0]]","16","0","","","","","","5","","","","","","","","",""
"","","","","","single-stim-button","337","922756","0.0-2.0-59.0-1.0","639618dc4a68e64c6956c39c","E1","batch5","","1501","tol_toboard","","","","tol_peg_2","1501","1501","0","[[1,0,0],[3,2],[0]]","1","[[3,1,0],[2,0],[0]]","16","0","","","","","","5","","","","","","","","",""
"","","","","","single-stim-button","338","925105","0.0-2.0-59.1-0.1","639618dc4a68e64c6956c39c","E1","batch5","","2347","tol_tohand","","","","tol_peg_1","2347","2347","0","[[0,0,0],[3,2],[0]]","2","[[3,1,0],[2,0],[0]]","16","0","","","","","","5","","","","","","","","",""
"","","","","","single-stim-button","339","927137","0.0-2.0-59.1-1.1","639618dc4a68e64c6956c39c","E1","batch5","","2029","tol_toboard","","","","tol_peg_1","2029","2029","0","[[1,0,0],[3,2],[0]]","2","[[3,1,0],[2,0],[0]]","16","0","","","","","","5","","","","","","","","",""
"","","","","","single-stim-button","340","930236","0.0-2.0-59.2-0.2","639618dc4a68e64c6956c39c","E1","batch5","","3097","tol_tohand","","","","tol_peg_2","3097","3097","0","[[1,0,0],[3,0],[0]]","3","[[3,1,0],[2,0],[0]]","16","0","","","","","","5","","","","","","","","",""
"","","","","","single-stim-button","341","931804","0.0-2.0-59.2-1.2","639618dc4a68e64c6956c39c","E1","batch5","","1565","tol_toboard","","","","tol_peg_3","1565","1565","0","[[1,0,0],[3,0],[2]]","3","[[3,1,0],[2,0],[0]]","16","0","","","","","","5","","","","","","","","",""
"","","","","","single-stim-button","342","936566","0.0-2.0-59.3-0.3","639618dc4a68e64c6956c39c","E1","batch5","","4761","tol_tohand","","","","tol_peg_1","4761","4761","0","[[0,0,0],[3,0],[2]]","4","[[3,1,0],[2,0],[0]]","16","0","","","","","","5","","","","","","","","",""
"","","","","","single-stim-button","343","939584","0.0-2.0-59.3-1.3","639618dc4a68e64c6956c39c","E1","batch5","","3015","tol_toboard","","","","tol_peg_1","3015","3015","0","[[1,0,0],[3,0],[2]]","4","[[3,1,0],[2,0],[0]]","16","0","","","","","","5","","","","","","","","",""
"","","","","","single-stim-button","344","941319","0.0-2.0-59.4-0.4","639618dc4a68e64c6956c39c","E1","batch5","","1734","tol_tohand","","","","tol_peg_3","1734","1734","0","[[1,0,0],[3,0],[0]]","5","[[3,1,0],[2,0],[0]]","16","0","","","","","","5","","","","","","","","",""
"","","","","","single-stim-button","345","942618","0.0-2.0-59.4-1.4","639618dc4a68e64c6956c39c","E1","batch5","","1296","tol_toboard","","","","tol_peg_1","1296","1296","0","[[1,2,0],[3,0],[0]]","5","[[3,1,0],[2,0],[0]]","16","0","","","","","","5","","","","","","","","",""
"","","","","","single-stim-button","346","944370","0.0-2.0-59.5-0.5","639618dc4a68e64c6956c39c","E1","batch5","","1750","tol_tohand","","","","tol_peg_2","1750","1750","0","[[1,2,0],[0,0],[0]]","6","[[3,1,0],[2,0],[0]]","16","0","","","","","","5","","","","","","","","",""
"","","","","","single-stim-button","347","945617","0.0-2.0-59.5-1.5","639618dc4a68e64c6956c39c","E1","batch5","","1245","tol_toboard","","","","tol_peg_3","1245","1245","0","[[1,2,0],[0,0],[3]]","6","[[3,1,0],[2,0],[0]]","16","0","","","","","","5","","","","","","","","",""
"","","","","","single-stim-button","348","946784","0.0-2.0-59.6-0.6","639618dc4a68e64c6956c39c","E1","batch5","","1165","tol_tohand","","","","tol_peg_1","1165","1165","0","[[1,0,0],[0,0],[3]]","7","[[3,1,0],[2,0],[0]]","16","0","","","","","","5","","","","","","","","",""
"","","","","","single-stim-button","349","948183","0.0-2.0-59.6-1.6","639618dc4a68e64c6956c39c","E1","batch5","","1397","tol_toboard","","","","tol_peg_2","1397","1397","0","[[1,0,0],[2,0],[3]]","7","[[3,1,0],[2,0],[0]]","16","0","","","","","","5","","","","","","","","",""
"","","","","","single-stim-button","350","949236","0.0-2.0-59.7-0.7","639618dc4a68e64c6956c39c","E1","batch5","","1049","tol_tohand","","","","tol_peg_1","1049","1049","0","[[0,0,0],[2,0],[3]]","8","[[3,1,0],[2,0],[0]]","16","0","","","","","","5","","","","","","","","",""
"","","","","","single-stim-button","351","950334","0.0-2.0-59.7-1.7","639618dc4a68e64c6956c39c","E1","batch5","","1096","tol_toboard","","","","tol_peg_2","1096","1096","0","[[0,0,0],[2,1],[3]]","8","[[3,1,0],[2,0],[0]]","16","0","","","","","","5","","","","","","","","",""
