"success","timeout","failed_images","failed_audio","failed_video","trial_type","trial_index","time_elapsed","internal_node_id","subject_id","study_id","session_id","task","rt","stimulus","response","item","answer","correct","spm_correct","spm_rt","view_history","fiar_detect_rt","fiar_detect_correct","total_correct_fiar_detect","post_trial_gap","choices","mouse_click","stim_duration","block_duration","timing_post_trial","current_position","tol_num_moves_made","tol_target","tol_problem_id","tol_rt","key_press","possible_responses","tol_correct","preplanning","tol_rt_per_trial","tol_min_moves"
"true","false","[]","[]","[]","preload","0","896","0.0-0.0","63b6f0c524c4735cd7755c27","B2","batch2","","","","","","","","","","","","","","","","","","","","","","","","","","","","","",""
"true","","","","","fullscreen","1","10921","0.0-1.0-0.0","63b6f0c524c4735cd7755c27","B2","batch2","","","","","","","","","","","","","","","","","","","","","","","","","","","","","",""
"true","","","","","fullscreen","2","14037","0.0-2.0-0.0","63b6f0c524c4735cd7755c27","B2","batch2","spm_fullscreen","","","","","","","","","","","","","","","","","","","","","","","","","","","","",""
"","","","","","html-button-response","3","27276","0.0-2.0-1.0","63b6f0c524c4735cd7755c27","B2","batch2","","13237.800000000745","<p class = block-text><b>Instructions</b> <br>This is a widely used intelligence test in research. <br>In this test, a figure with a missing piece will be presented.<br>Below the figure are alternative pieces to complete the figure, only one of which is correct.<br> Different figures might involve different principles for obtaining the missing piece<br>Your job is to select the most logical piece to complete the figure.</p>","0","","","","","","","","","","","","","","","","","","","","","","","","","",""
"","","","","","html-keyboard-response","4","28092","0.0-2.0-2.0-0.0","63b6f0c524c4735cd7755c27","B2","batch2","spm_show_trial_num","null","<p class=block-text>Trial 1 out of 60</p>","null","","","","","","","","","","","","","","","","","","","","","","","","","",""
"","","","","","image-button-response","5","32741","0.0-2.0-2.0-1.0","63b6f0c524c4735cd7755c27","B2","batch2","spm_respsonse","4623.300000000745","img/question_1_1.jpeg","3","mat_01","4","1","1","4623.300000000745","","","","","","","","","","","","","","","","","","","","",""
"","","","","","html-keyboard-response","6","33802","0.0-2.0-2.0-0.1","63b6f0c524c4735cd7755c27","B2","batch2","spm_show_trial_num","null","<p class=block-text>Trial 2 out of 60</p>","null","","","","","","","","","","","","","","","","","","","","","","","","","",""
"","","","","","image-button-response","7","35876","0.0-2.0-2.0-1.1","63b6f0c524c4735cd7755c27","B2","batch2","spm_respsonse","2072.699999999255","img/question_1_2.jpeg","4","mat_02","5","1","1","2072.699999999255","","","","","","","","","","","","","","","","","","","","",""
"","","","","","html-keyboard-response","8","36942","0.0-2.0-2.0-0.2","63b6f0c524c4735cd7755c27","B2","batch2","spm_show_trial_num","null","<p class=block-text>Trial 3 out of 60</p>","null","","","","","","","","","","","","","","","","","","","","","","","","","",""
"","","","","","image-button-response","9","40948","0.0-2.0-2.0-1.2","63b6f0c524c4735cd7755c27","B2","batch2","spm_respsonse","4003.800000000745","img/question_1_3.jpeg","0","mat_03","1","1","1","4003.800000000745","","","","","","","","","","","","","","","","","","","","",""
"","","","","","html-keyboard-response","10","42006","0.0-2.0-2.0-0.3","63b6f0c524c4735cd7755c27","B2","batch2","spm_show_trial_num","null","<p class=block-text>Trial 4 out of 60</p>","null","","","","","","","","","","","","","","","","","","","","","","","","","",""
"","","","","","image-button-response","11","46172","0.0-2.0-2.0-1.3","63b6f0c524c4735cd7755c27","B2","batch2","spm_respsonse","4163.199999999255","img/question_1_4.jpeg","1","mat_04","2","1","1","4163.199999999255","","","","","","","","","","","","","","","","","","","","",""
"","","","","","html-keyboard-response","12","47247","0.0-2.0-2.0-0.4","63b6f0c524c4735cd7755c27","B2","batch2","spm_show_trial_num","null","<p class=block-text>Trial 5 out of 60</p>","null","","","","","","","","","","","","","","","","","","","","","","","","","",""
"","","","","","image-button-response","13","50860","0.0-2.0-2.0-1.4","63b6f0c524c4735cd7755c27","B2","batch2","spm_respsonse","3610.300000000745","img/question_1_5.jpeg","5","mat_05","6","1","1","3610.300000000745","","","","","","","","","","","","","","","","","","","","",""
"","","","","","html-keyboard-response","14","51923","0.0-2.0-2.0-0.5","63b6f0c524c4735cd7755c27","B2","batch2","spm_show_trial_num","null","<p class=block-text>Trial 6 out of 60</p>","null","","","","","","","","","","","","","","","","","","","","","","","","","",""
"","","","","","image-button-response","15","55276","0.0-2.0-2.0-1.5","63b6f0c524c4735cd7755c27","B2","batch2","spm_respsonse","3349.89999999851","img/question_1_6.jpeg","2","mat_06","3","1","1","3349.89999999851","","","","","","","","","","","","","","","","","","","","",""
"","","","","","html-keyboard-response","16","56353","0.0-2.0-2.0-0.6","63b6f0c524c4735cd7755c27","B2","batch2","spm_show_trial_num","null","<p class=block-text>Trial 7 out of 60</p>","null","","","","","","","","","","","","","","","","","","","","","","","","","",""
"","","","","","image-button-response","17","60828","0.0-2.0-2.0-1.6","63b6f0c524c4735cd7755c27","B2","batch2","spm_respsonse","4471.89999999851","img/question_1_7.jpeg","1","mat_07","6","0","0","4471.89999999851","","","","","","","","","","","","","","","","","","","","",""
"","","","","","html-keyboard-response","18","61888","0.0-2.0-2.0-0.7","63b6f0c524c4735cd7755c27","B2","batch2","spm_show_trial_num","null","<p class=block-text>Trial 8 out of 60</p>","null","","","","","","","","","","","","","","","","","","","","","","","","","",""
"","","","","","image-button-response","19","66732","0.0-2.0-2.0-1.7","63b6f0c524c4735cd7755c27","B2","batch2","spm_respsonse","4842.599999997765","img/question_1_8.jpeg","1","mat_08","2","1","1","4842.599999997765","","","","","","","","","","","","","","","","","","","","",""
"","","","","","html-keyboard-response","20","67808","0.0-2.0-2.0-0.8","63b6f0c524c4735cd7755c27","B2","batch2","spm_show_trial_num","null","<p class=block-text>Trial 9 out of 60</p>","null","","","","","","","","","","","","","","","","","","","","","","","","","",""
"","","","","","image-button-response","21","73764","0.0-2.0-2.0-1.8","63b6f0c524c4735cd7755c27","B2","batch2","spm_respsonse","5953.699999999255","img/question_1_9.jpeg","0","mat_09","1","1","1","5953.699999999255","","","","","","","","","","","","","","","","","","","","",""
"","","","","","html-keyboard-response","22","74836","0.0-2.0-2.0-0.9","63b6f0c524c4735cd7755c27","B2","batch2","spm_show_trial_num","null","<p class=block-text>Trial 10 out of 60</p>","null","","","","","","","","","","","","","","","","","","","","","","","","","",""
"","","","","","image-button-response","23","80780","0.0-2.0-2.0-1.9","63b6f0c524c4735cd7755c27","B2","batch2","spm_respsonse","5941.39999999851","img/question_1_10.jpeg","2","mat_10","3","1","1","5941.39999999851","","","","","","","","","","","","","","","","","","","","",""
"","","","","","html-keyboard-response","24","81840","0.0-2.0-2.0-0.10","63b6f0c524c4735cd7755c27","B2","batch2","spm_show_trial_num","null","<p class=block-text>Trial 11 out of 60</p>","null","","","","","","","","","","","","","","","","","","","","","","","","","",""
"","","","","","image-button-response","25","93236","0.0-2.0-2.0-1.10","63b6f0c524c4735cd7755c27","B2","batch2","spm_respsonse","11392.39999999851","img/question_1_11.jpeg","3","mat_11","4","1","1","11392.39999999851","","","","","","","","","","","","","","","","","","","","",""
"","","","","","html-keyboard-response","26","94298","0.0-2.0-2.0-0.11","63b6f0c524c4735cd7755c27","B2","batch2","spm_show_trial_num","null","<p class=block-text>Trial 12 out of 60</p>","null","","","","","","","","","","","","","","","","","","","","","","","","","",""
"","","","","","image-button-response","27","106548","0.0-2.0-2.0-1.11","63b6f0c524c4735cd7755c27","B2","batch2","spm_respsonse","12246.10000000149","img/question_1_12.jpeg","0","mat_12","5","0","0","12246.10000000149","","","","","","","","","","","","","","","","","","","","",""
"","","","","","html-keyboard-response","28","107604","0.0-2.0-2.0-0.12","63b6f0c524c4735cd7755c27","B2","batch2","spm_show_trial_num","null","<p class=block-text>Trial 13 out of 60</p>","null","","","","","","","","","","","","","","","","","","","","","","","","","",""
"","","","","","image-button-response","29","110612","0.0-2.0-2.0-1.12","63b6f0c524c4735cd7755c27","B2","batch2","spm_respsonse","3005.2999999970198","img/question_2_1.jpeg","1","mat_13","2","1","1","3005.2999999970198","","","","","","","","","","","","","","","","","","","","",""
"","","","","","html-keyboard-response","30","111687","0.0-2.0-2.0-0.13","63b6f0c524c4735cd7755c27","B2","batch2","spm_show_trial_num","null","<p class=block-text>Trial 14 out of 60</p>","null","","","","","","","","","","","","","","","","","","","","","","","","","",""
"","","","","","image-button-response","31","117084","0.0-2.0-2.0-1.13","63b6f0c524c4735cd7755c27","B2","batch2","spm_respsonse","5393.39999999851","img/question_2_2.jpeg","5","mat_14","6","1","1","5393.39999999851","","","","","","","","","","","","","","","","","","","","",""
"","","","","","html-keyboard-response","32","118144","0.0-2.0-2.0-0.14","63b6f0c524c4735cd7755c27","B2","batch2","spm_show_trial_num","null","<p class=block-text>Trial 15 out of 60</p>","null","","","","","","","","","","","","","","","","","","","","","","","","","",""
"","","","","","image-button-response","33","122356","0.0-2.0-2.0-1.14","63b6f0c524c4735cd7755c27","B2","batch2","spm_respsonse","4207.89999999851","img/question_2_3.jpeg","0","mat_15","1","1","1","4207.89999999851","","","","","","","","","","","","","","","","","","","","",""
"","","","","","html-keyboard-response","34","123428","0.0-2.0-2.0-0.15","63b6f0c524c4735cd7755c27","B2","batch2","spm_show_trial_num","null","<p class=block-text>Trial 16 out of 60</p>","null","","","","","","","","","","","","","","","","","","","","","","","","","",""
"","","","","","image-button-response","35","128476","0.0-2.0-2.0-1.15","63b6f0c524c4735cd7755c27","B2","batch2","spm_respsonse","5044.199999999255","img/question_2_4.jpeg","1","mat_16","2","1","1","5044.199999999255","","","","","","","","","","","","","","","","","","","","",""
"","","","","","html-keyboard-response","36","129534","0.0-2.0-2.0-0.16","63b6f0c524c4735cd7755c27","B2","batch2","spm_show_trial_num","null","<p class=block-text>Trial 17 out of 60</p>","null","","","","","","","","","","","","","","","","","","","","","","","","","",""
"","","","","","image-button-response","37","135204","0.0-2.0-2.0-1.16","63b6f0c524c4735cd7755c27","B2","batch2","spm_respsonse","5666.099999997765","img/question_2_5.jpeg","0","mat_17","1","1","1","5666.099999997765","","","","","","","","","","","","","","","","","","","","",""
"","","","","","html-keyboard-response","38","136270","0.0-2.0-2.0-0.17","63b6f0c524c4735cd7755c27","B2","batch2","spm_show_trial_num","null","<p class=block-text>Trial 18 out of 60</p>","null","","","","","","","","","","","","","","","","","","","","","","","","","",""
"","","","","","image-button-response","39","142980","0.0-2.0-2.0-1.17","63b6f0c524c4735cd7755c27","B2","batch2","spm_respsonse","6706.099999997765","img/question_2_6.jpeg","2","mat_18","3","1","1","6706.099999997765","","","","","","","","","","","","","","","","","","","","",""
"","","","","","html-keyboard-response","40","144033","0.0-2.0-2.0-0.18","63b6f0c524c4735cd7755c27","B2","batch2","spm_show_trial_num","null","<p class=block-text>Trial 19 out of 60</p>","null","","","","","","","","","","","","","","","","","","","","","","","","","",""
"","","","","","image-button-response","41","153500","0.0-2.0-2.0-1.18","63b6f0c524c4735cd7755c27","B2","batch2","spm_respsonse","9463","img/question_2_7.jpeg","4","mat_19","5","1","1","9463","","","","","","","","","","","","","","","","","","","","",""
"","","","","","html-keyboard-response","42","154564","0.0-2.0-2.0-0.19","63b6f0c524c4735cd7755c27","B2","batch2","spm_show_trial_num","null","<p class=block-text>Trial 20 out of 60</p>","null","","","","","","","","","","","","","","","","","","","","","","","","","",""
"","","","","","image-button-response","43","163308","0.0-2.0-2.0-1.19","63b6f0c524c4735cd7755c27","B2","batch2","spm_respsonse","8740.699999999255","img/question_2_8.jpeg","5","mat_20","6","1","1","8740.699999999255","","","","","","","","","","","","","","","","","","","","",""
"","","","","","html-keyboard-response","44","164362","0.0-2.0-2.0-0.20","63b6f0c524c4735cd7755c27","B2","batch2","spm_show_trial_num","null","<p class=block-text>Trial 21 out of 60</p>","null","","","","","","","","","","","","","","","","","","","","","","","","","",""
"","","","","","image-button-response","45","169604","0.0-2.0-2.0-1.20","63b6f0c524c4735cd7755c27","B2","batch2","spm_respsonse","5237.60000000149","img/question_2_9.jpeg","3","mat_21","4","1","1","5237.60000000149","","","","","","","","","","","","","","","","","","","","",""
"","","","","","html-keyboard-response","46","170660","0.0-2.0-2.0-0.21","63b6f0c524c4735cd7755c27","B2","batch2","spm_show_trial_num","null","<p class=block-text>Trial 22 out of 60</p>","null","","","","","","","","","","","","","","","","","","","","","","","","","",""
"","","","","","image-button-response","47","176860","0.0-2.0-2.0-1.21","63b6f0c524c4735cd7755c27","B2","batch2","spm_respsonse","6196.39999999851","img/question_2_10.jpeg","2","mat_22","3","1","1","6196.39999999851","","","","","","","","","","","","","","","","","","","","",""
"","","","","","html-keyboard-response","48","177924","0.0-2.0-2.0-0.22","63b6f0c524c4735cd7755c27","B2","batch2","spm_show_trial_num","null","<p class=block-text>Trial 23 out of 60</p>","null","","","","","","","","","","","","","","","","","","","","","","","","","",""
"","","","","","image-button-response","49","183172","0.0-2.0-2.0-1.22","63b6f0c524c4735cd7755c27","B2","batch2","spm_respsonse","5244.5","img/question_2_11.jpeg","3","mat_23","4","1","1","5244.5","","","","","","","","","","","","","","","","","","","","",""
"","","","","","html-keyboard-response","50","184236","0.0-2.0-2.0-0.23","63b6f0c524c4735cd7755c27","B2","batch2","spm_show_trial_num","null","<p class=block-text>Trial 24 out of 60</p>","null","","","","","","","","","","","","","","","","","","","","","","","","","",""
"","","","","","image-button-response","51","205412","0.0-2.0-2.0-1.23","63b6f0c524c4735cd7755c27","B2","batch2","spm_respsonse","21171.800000000745","img/question_2_12.jpeg","4","mat_24","5","1","1","21171.800000000745","","","","","","","","","","","","","","","","","","","","",""
"","","","","","html-button-response","52","207972","0.0-2.0-3.0","63b6f0c524c4735cd7755c27","B2","batch2","attention_check","2297.800000000745","<p class = block-text>Attention check: Please choose 1<br></p>","0","","","true","","","","","","","","","","","","","","","","","","","","","","",""
"","","","","","html-keyboard-response","53","208777","0.0-2.0-4.0-0.0","63b6f0c524c4735cd7755c27","B2","batch2","spm_show_trial_num","null","<p class=block-text>Trial 25 out of 60</p>","null","","","","","","","","","","","","","","","","","","","","","","","","","",""
"","","","","","image-button-response","54","216900","0.0-2.0-4.0-1.0","63b6f0c524c4735cd7755c27","B2","batch2","spm_respsonse","8118.099999997765","img/question_3_1.jpeg","7","mat_25","8","1","1","8118.099999997765","","","","","","","","","","","","","","","","","","","","",""
"","","","","","html-keyboard-response","55","217960","0.0-2.0-4.0-0.1","63b6f0c524c4735cd7755c27","B2","batch2","spm_show_trial_num","null","<p class=block-text>Trial 26 out of 60</p>","null","","","","","","","","","","","","","","","","","","","","","","","","","",""
"","","","","","image-button-response","56","224172","0.0-2.0-4.0-1.1","63b6f0c524c4735cd7755c27","B2","batch2","spm_respsonse","6208.300000000745","img/question_3_2.jpeg","1","mat_26","2","1","1","6208.300000000745","","","","","","","","","","","","","","","","","","","","",""
"","","","","","html-keyboard-response","57","225240","0.0-2.0-4.0-0.2","63b6f0c524c4735cd7755c27","B2","batch2","spm_show_trial_num","null","<p class=block-text>Trial 27 out of 60</p>","null","","","","","","","","","","","","","","","","","","","","","","","","","",""
"","","","","","image-button-response","58","240428","0.0-2.0-4.0-1.2","63b6f0c524c4735cd7755c27","B2","batch2","spm_respsonse","15186","img/question_3_3.jpeg","2","mat_27","3","1","1","15186","","","","","","","","","","","","","","","","","","","","",""
"","","","","","html-keyboard-response","59","241482","0.0-2.0-4.0-0.3","63b6f0c524c4735cd7755c27","B2","batch2","spm_show_trial_num","null","<p class=block-text>Trial 28 out of 60</p>","null","","","","","","","","","","","","","","","","","","","","","","","","","",""
"","","","","","image-button-response","60","255956","0.0-2.0-4.0-1.3","63b6f0c524c4735cd7755c27","B2","batch2","spm_respsonse","14471.89999999851","img/question_3_4.jpeg","7","mat_28","8","1","1","14471.89999999851","","","","","","","","","","","","","","","","","","","","",""
"","","","","","html-keyboard-response","61","257014","0.0-2.0-4.0-0.4","63b6f0c524c4735cd7755c27","B2","batch2","spm_show_trial_num","null","<p class=block-text>Trial 29 out of 60</p>","null","","","","","","","","","","","","","","","","","","","","","","","","","",""
"","","","","","image-button-response","62","272060","0.0-2.0-4.0-1.4","63b6f0c524c4735cd7755c27","B2","batch2","spm_respsonse","15044.199999999255","img/question_3_5.jpeg","6","mat_29","7","1","1","15044.199999999255","","","","","","","","","","","","","","","","","","","","",""
"","","","","","html-keyboard-response","63","273115","0.0-2.0-4.0-0.5","63b6f0c524c4735cd7755c27","B2","batch2","spm_show_trial_num","null","<p class=block-text>Trial 30 out of 60</p>","null","","","","","","","","","","","","","","","","","","","","","","","","","",""
"","","","","","image-button-response","64","282860","0.0-2.0-4.0-1.5","63b6f0c524c4735cd7755c27","B2","batch2","spm_respsonse","9740.800000000745","img/question_3_6.jpeg","3","mat_30","4","1","1","9740.800000000745","","","","","","","","","","","","","","","","","","","","",""
"","","","","","html-keyboard-response","65","283916","0.0-2.0-4.0-0.6","63b6f0c524c4735cd7755c27","B2","batch2","spm_show_trial_num","null","<p class=block-text>Trial 31 out of 60</p>","null","","","","","","","","","","","","","","","","","","","","","","","","","",""
"","","","","","image-button-response","66","301884","0.0-2.0-4.0-1.6","63b6f0c524c4735cd7755c27","B2","batch2","spm_respsonse","17964.60000000149","img/question_3_7.jpeg","4","mat_31","5","1","1","17964.60000000149","","","","","","","","","","","","","","","","","","","","",""
"","","","","","html-keyboard-response","67","302942","0.0-2.0-4.0-0.7","63b6f0c524c4735cd7755c27","B2","batch2","spm_show_trial_num","null","<p class=block-text>Trial 32 out of 60</p>","null","","","","","","","","","","","","","","","","","","","","","","","","","",""
"","","","","","image-button-response","68","313908","0.0-2.0-4.0-1.7","63b6f0c524c4735cd7755c27","B2","batch2","spm_respsonse","10961","img/question_3_8.jpeg","0","mat_32","1","1","1","10961","","","","","","","","","","","","","","","","","","","","",""
"","","","","","html-keyboard-response","69","314970","0.0-2.0-4.0-0.8","63b6f0c524c4735cd7755c27","B2","batch2","spm_show_trial_num","null","<p class=block-text>Trial 33 out of 60</p>","null","","","","","","","","","","","","","","","","","","","","","","","","","",""
"","","","","","image-button-response","70","329452","0.0-2.0-4.0-1.8","63b6f0c524c4735cd7755c27","B2","batch2","spm_respsonse","14477.5","img/question_3_9.jpeg","6","mat_33","7","1","1","14477.5","","","","","","","","","","","","","","","","","","","","",""
"","","","","","html-keyboard-response","71","330525","0.0-2.0-4.0-0.9","63b6f0c524c4735cd7755c27","B2","batch2","spm_show_trial_num","null","<p class=block-text>Trial 34 out of 60</p>","null","","","","","","","","","","","","","","","","","","","","","","","","","",""
"","","","","","image-button-response","72","346532","0.0-2.0-4.0-1.9","63b6f0c524c4735cd7755c27","B2","batch2","spm_respsonse","16004.70000000298","img/question_3_10.jpeg","7","mat_34","6","0","0","16004.70000000298","","","","","","","","","","","","","","","","","","","","",""
"","","","","","html-keyboard-response","73","347598","0.0-2.0-4.0-0.10","63b6f0c524c4735cd7755c27","B2","batch2","spm_show_trial_num","null","<p class=block-text>Trial 35 out of 60</p>","null","","","","","","","","","","","","","","","","","","","","","","","","","",""
"","","","","","image-button-response","74","388908","0.0-2.0-4.0-1.10","63b6f0c524c4735cd7755c27","B2","batch2","spm_respsonse","41305.300000000745","img/question_3_11.jpeg","0","mat_35","1","1","1","41305.300000000745","","","","","","","","","","","","","","","","","","","","",""
"","","","","","html-keyboard-response","75","389972","0.0-2.0-4.0-0.11","63b6f0c524c4735cd7755c27","B2","batch2","spm_show_trial_num","null","<p class=block-text>Trial 36 out of 60</p>","null","","","","","","","","","","","","","","","","","","","","","","","","","",""
"","","","","","image-button-response","76","418196","0.0-2.0-4.0-1.11","63b6f0c524c4735cd7755c27","B2","batch2","spm_respsonse","28219.800000000745","img/question_3_12.jpeg","0","mat_36","2","0","0","28219.800000000745","","","","","","","","","","","","","","","","","","","","",""
"","","","","","html-keyboard-response","77","419266","0.0-2.0-4.0-0.12","63b6f0c524c4735cd7755c27","B2","batch2","spm_show_trial_num","null","<p class=block-text>Trial 37 out of 60</p>","null","","","","","","","","","","","","","","","","","","","","","","","","","",""
"","","","","","image-button-response","78","422932","0.0-2.0-4.0-1.12","63b6f0c524c4735cd7755c27","B2","batch2","spm_respsonse","3661.7999999970198","img/question_4_1.jpeg","2","mat_37","3","1","1","3661.7999999970198","","","","","","","","","","","","","","","","","","","","",""
"","","","","","html-keyboard-response","79","423986","0.0-2.0-4.0-0.13","63b6f0c524c4735cd7755c27","B2","batch2","spm_show_trial_num","null","<p class=block-text>Trial 38 out of 60</p>","null","","","","","","","","","","","","","","","","","","","","","","","","","",""
"","","","","","image-button-response","80","441644","0.0-2.0-4.0-1.13","63b6f0c524c4735cd7755c27","B2","batch2","spm_respsonse","17654.699999999255","img/question_4_2.jpeg","3","mat_38","4","1","1","17654.699999999255","","","","","","","","","","","","","","","","","","","","",""
"","","","","","html-keyboard-response","81","442717","0.0-2.0-4.0-0.14","63b6f0c524c4735cd7755c27","B2","batch2","spm_show_trial_num","null","<p class=block-text>Trial 39 out of 60</p>","null","","","","","","","","","","","","","","","","","","","","","","","","","",""
"","","","","","image-button-response","82","449524","0.0-2.0-4.0-1.14","63b6f0c524c4735cd7755c27","B2","batch2","spm_respsonse","6803.10000000149","img/question_4_3.jpeg","2","mat_39","3","1","1","6803.10000000149","","","","","","","","","","","","","","","","","","","","",""
"","","","","","html-keyboard-response","83","450601","0.0-2.0-4.0-0.15","63b6f0c524c4735cd7755c27","B2","batch2","spm_show_trial_num","null","<p class=block-text>Trial 40 out of 60</p>","null","","","","","","","","","","","","","","","","","","","","","","","","","",""
"","","","","","image-button-response","84","460324","0.0-2.0-4.0-1.15","63b6f0c524c4735cd7755c27","B2","batch2","spm_respsonse","9720.5","img/question_4_4.jpeg","6","mat_40","7","1","1","9720.5","","","","","","","","","","","","","","","","","","","","",""
"","","","","","html-keyboard-response","85","461400","0.0-2.0-4.0-0.16","63b6f0c524c4735cd7755c27","B2","batch2","spm_show_trial_num","null","<p class=block-text>Trial 41 out of 60</p>","null","","","","","","","","","","","","","","","","","","","","","","","","","",""
"","","","","","image-button-response","86","470244","0.0-2.0-4.0-1.16","63b6f0c524c4735cd7755c27","B2","batch2","spm_respsonse","8841.60000000149","img/question_4_5.jpeg","7","mat_41","8","1","1","8841.60000000149","","","","","","","","","","","","","","","","","","","","",""
"","","","","","html-keyboard-response","87","471309","0.0-2.0-4.0-0.17","63b6f0c524c4735cd7755c27","B2","batch2","spm_show_trial_num","null","<p class=block-text>Trial 42 out of 60</p>","null","","","","","","","","","","","","","","","","","","","","","","","","","",""
"","","","","","image-button-response","88","481908","0.0-2.0-4.0-1.17","63b6f0c524c4735cd7755c27","B2","batch2","spm_respsonse","10597.300000000745","img/question_4_6.jpeg","5","mat_42","6","1","1","10597.300000000745","","","","","","","","","","","","","","","","","","","","",""
"","","","","","html-keyboard-response","89","482967","0.0-2.0-4.0-0.18","63b6f0c524c4735cd7755c27","B2","batch2","spm_show_trial_num","null","<p class=block-text>Trial 43 out of 60</p>","null","","","","","","","","","","","","","","","","","","","","","","","","","",""
"","","","","","image-button-response","90","490308","0.0-2.0-4.0-1.18","63b6f0c524c4735cd7755c27","B2","batch2","spm_respsonse","7336.300000000745","img/question_4_7.jpeg","4","mat_43","5","1","1","7336.300000000745","","","","","","","","","","","","","","","","","","","","",""
"","","","","","html-keyboard-response","91","491385","0.0-2.0-4.0-0.19","63b6f0c524c4735cd7755c27","B2","batch2","spm_show_trial_num","null","<p class=block-text>Trial 44 out of 60</p>","null","","","","","","","","","","","","","","","","","","","","","","","","","",""
"","","","","","image-button-response","92","500276","0.0-2.0-4.0-1.19","63b6f0c524c4735cd7755c27","B2","batch2","spm_respsonse","8889.39999999851","img/question_4_8.jpeg","3","mat_44","4","1","1","8889.39999999851","","","","","","","","","","","","","","","","","","","","",""
"","","","","","html-keyboard-response","93","501331","0.0-2.0-4.0-0.20","63b6f0c524c4735cd7755c27","B2","batch2","spm_show_trial_num","null","<p class=block-text>Trial 45 out of 60</p>","null","","","","","","","","","","","","","","","","","","","","","","","","","",""
"","","","","","image-button-response","94","513324","0.0-2.0-4.0-1.20","63b6f0c524c4735cd7755c27","B2","batch2","spm_respsonse","11991.70000000298","img/question_4_9.jpeg","0","mat_45","1","1","1","11991.70000000298","","","","","","","","","","","","","","","","","","","","",""
"","","","","","html-keyboard-response","95","514380","0.0-2.0-4.0-0.21","63b6f0c524c4735cd7755c27","B2","batch2","spm_show_trial_num","null","<p class=block-text>Trial 46 out of 60</p>","null","","","","","","","","","","","","","","","","","","","","","","","","","",""
"","","","","","image-button-response","96","532156","0.0-2.0-4.0-1.21","63b6f0c524c4735cd7755c27","B2","batch2","spm_respsonse","17772.89999999851","img/question_4_10.jpeg","1","mat_46","2","1","1","17772.89999999851","","","","","","","","","","","","","","","","","","","","",""
"","","","","","html-keyboard-response","97","533211","0.0-2.0-4.0-0.22","63b6f0c524c4735cd7755c27","B2","batch2","spm_show_trial_num","null","<p class=block-text>Trial 47 out of 60</p>","null","","","","","","","","","","","","","","","","","","","","","","","","","",""
"","","","","","image-button-response","98","587876","0.0-2.0-4.0-1.22","63b6f0c524c4735cd7755c27","B2","batch2","spm_respsonse","54661.89999999851","img/question_4_11.jpeg","4","mat_47","5","1","1","54661.89999999851","","","","","","","","","","","","","","","","","","","","",""
"","","","","","html-keyboard-response","99","588945","0.0-2.0-4.0-0.23","63b6f0c524c4735cd7755c27","B2","batch2","spm_show_trial_num","null","<p class=block-text>Trial 48 out of 60</p>","null","","","","","","","","","","","","","","","","","","","","","","","","","",""
"","","","","","image-button-response","100","629756","0.0-2.0-4.0-1.23","63b6f0c524c4735cd7755c27","B2","batch2","spm_respsonse","40807.300000000745","img/question_4_12.jpeg","6","mat_48","6","0","0","40807.300000000745","","","","","","","","","","","","","","","","","","","","",""
"","","","","","html-keyboard-response","101","630823","0.0-2.0-4.0-0.24","63b6f0c524c4735cd7755c27","B2","batch2","spm_show_trial_num","null","<p class=block-text>Trial 49 out of 60</p>","null","","","","","","","","","","","","","","","","","","","","","","","","","",""
"","","","","","image-button-response","102","642092","0.0-2.0-4.0-1.24","63b6f0c524c4735cd7755c27","B2","batch2","spm_respsonse","11265.10000000149","img/question_5_1.jpeg","6","mat_49","7","1","1","11265.10000000149","","","","","","","","","","","","","","","","","","","","",""
"","","","","","html-keyboard-response","103","643154","0.0-2.0-4.0-0.25","63b6f0c524c4735cd7755c27","B2","batch2","spm_show_trial_num","null","<p class=block-text>Trial 50 out of 60</p>","null","","","","","","","","","","","","","","","","","","","","","","","","","",""
"","","","","","image-button-response","104","663540","0.0-2.0-4.0-1.25","63b6f0c524c4735cd7755c27","B2","batch2","spm_respsonse","20382.10000000149","img/question_5_2.jpeg","5","mat_50","6","1","1","20382.10000000149","","","","","","","","","","","","","","","","","","","","",""
"","","","","","html-keyboard-response","105","664599","0.0-2.0-4.0-0.26","63b6f0c524c4735cd7755c27","B2","batch2","spm_show_trial_num","null","<p class=block-text>Trial 51 out of 60</p>","null","","","","","","","","","","","","","","","","","","","","","","","","","",""
"","","","","","image-button-response","106","682444","0.0-2.0-4.0-1.26","63b6f0c524c4735cd7755c27","B2","batch2","spm_respsonse","17839.900000002235","img/question_5_3.jpeg","7","mat_51","8","1","1","17839.900000002235","","","","","","","","","","","","","","","","","","","","",""
"","","","","","html-keyboard-response","107","683503","0.0-2.0-4.0-0.27","63b6f0c524c4735cd7755c27","B2","batch2","spm_show_trial_num","null","<p class=block-text>Trial 52 out of 60</p>","null","","","","","","","","","","","","","","","","","","","","","","","","","",""
"","","","","","image-button-response","108","715932","0.0-2.0-4.0-1.27","63b6f0c524c4735cd7755c27","B2","batch2","spm_respsonse","32427.10000000149","img/question_5_4.jpeg","1","mat_52","2","1","1","32427.10000000149","","","","","","","","","","","","","","","","","","","","",""
"","","","","","html-keyboard-response","109","716984","0.0-2.0-4.0-0.28","63b6f0c524c4735cd7755c27","B2","batch2","spm_show_trial_num","null","<p class=block-text>Trial 53 out of 60</p>","null","","","","","","","","","","","","","","","","","","","","","","","","","",""
"","","","","","image-button-response","110","725020","0.0-2.0-4.0-1.28","63b6f0c524c4735cd7755c27","B2","batch2","spm_respsonse","8032","img/question_5_5.jpeg","0","mat_53","1","1","1","8032","","","","","","","","","","","","","","","","","","","","",""
"","","","","","html-keyboard-response","111","726073","0.0-2.0-4.0-0.29","63b6f0c524c4735cd7755c27","B2","batch2","spm_show_trial_num","null","<p class=block-text>Trial 54 out of 60</p>","null","","","","","","","","","","","","","","","","","","","","","","","","","",""
"","","","","","image-button-response","112","751596","0.0-2.0-4.0-1.29","63b6f0c524c4735cd7755c27","B2","batch2","spm_respsonse","25522.10000000149","img/question_5_6.jpeg","4","mat_54","5","1","1","25522.10000000149","","","","","","","","","","","","","","","","","","","","",""
"","","","","","html-keyboard-response","113","752664","0.0-2.0-4.0-0.30","63b6f0c524c4735cd7755c27","B2","batch2","spm_show_trial_num","null","<p class=block-text>Trial 55 out of 60</p>","null","","","","","","","","","","","","","","","","","","","","","","","","","",""
"","","","","","image-button-response","114","778340","0.0-2.0-4.0-1.30","63b6f0c524c4735cd7755c27","B2","batch2","spm_respsonse","25669.20000000298","img/question_5_7.jpeg","0","mat_55","1","1","1","25669.20000000298","","","","","","","","","","","","","","","","","","","","",""
"","","","","","html-keyboard-response","115","779404","0.0-2.0-4.0-0.31","63b6f0c524c4735cd7755c27","B2","batch2","spm_show_trial_num","null","<p class=block-text>Trial 56 out of 60</p>","null","","","","","","","","","","","","","","","","","","","","","","","","","",""
"","","","","","image-button-response","116","794284","0.0-2.0-4.0-1.31","63b6f0c524c4735cd7755c27","B2","batch2","spm_respsonse","14877","img/question_5_8.jpeg","5","mat_56","6","1","1","14877","","","","","","","","","","","","","","","","","","","","",""
"","","","","","html-keyboard-response","117","795348","0.0-2.0-4.0-0.32","63b6f0c524c4735cd7755c27","B2","batch2","spm_show_trial_num","null","<p class=block-text>Trial 57 out of 60</p>","null","","","","","","","","","","","","","","","","","","","","","","","","","",""
"","","","","","image-button-response","118","817860","0.0-2.0-4.0-1.32","63b6f0c524c4735cd7755c27","B2","batch2","spm_respsonse","22508.20000000298","img/question_5_9.jpeg","4","mat_57","3","0","0","22508.20000000298","","","","","","","","","","","","","","","","","","","","",""
"","","","","","html-keyboard-response","119","818932","0.0-2.0-4.0-0.33","63b6f0c524c4735cd7755c27","B2","batch2","spm_show_trial_num","null","<p class=block-text>Trial 58 out of 60</p>","null","","","","","","","","","","","","","","","","","","","","","","","","","",""
"","","","","","image-button-response","120","845292","0.0-2.0-4.0-1.33","63b6f0c524c4735cd7755c27","B2","batch2","spm_respsonse","26355.599999997765","img/question_5_10.jpeg","1","mat_58","2","1","1","26355.599999997765","","","","","","","","","","","","","","","","","","","","",""
"","","","","","html-keyboard-response","121","846355","0.0-2.0-4.0-0.34","63b6f0c524c4735cd7755c27","B2","batch2","spm_show_trial_num","null","<p class=block-text>Trial 59 out of 60</p>","null","","","","","","","","","","","","","","","","","","","","","","","","","",""
"","","","","","image-button-response","122","887284","0.0-2.0-4.0-1.34","63b6f0c524c4735cd7755c27","B2","batch2","spm_respsonse","40924.39999999851","img/question_5_11.jpeg","5","mat_59","4","0","0","40924.39999999851","","","","","","","","","","","","","","","","","","","","",""
"","","","","","html-keyboard-response","123","888352","0.0-2.0-4.0-0.35","63b6f0c524c4735cd7755c27","B2","batch2","spm_show_trial_num","null","<p class=block-text>Trial 60 out of 60</p>","null","","","","","","","","","","","","","","","","","","","","","","","","","",""
"","","","","","image-button-response","124","927732","0.0-2.0-4.0-1.35","63b6f0c524c4735cd7755c27","B2","batch2","spm_respsonse","39376.300000000745","img/question_5_12.jpeg","1","mat_60","5","0","0","39376.300000000745","","","","","","","","","","","","","","","","","","","","",""
"","","","","","html-button-response","125","930124","0.0-2.0-5.0","63b6f0c524c4735cd7755c27","B2","batch2","spm_goodbye","2139.800000000745","<p class= block-text>This concludes the Standard Progressive Matrix game. Thank you for your responses!<br> When you are ready, click the button continue</p>","0","","","","","","","","","","","","","","","","","","","","","","","","","",""
"true","","","","","fullscreen","126","935269","0.0-3.0-0.0","63b6f0c524c4735cd7755c27","B2","batch2","","","","","","","","","","","","","","","","","","","","","","","","","","","","","",""
"","","","","","instructions","127","976052","0.0-3.0-1.0-0.0","63b6f0c524c4735cd7755c27","B2","batch2","","40782.699999999255","","","","","","","","[{""page_index"":0,""viewing_time"":12038.400000002235},{""page_index"":1,""viewing_time"":5040.099999997765},{""page_index"":0,""viewing_time"":7191.699999999255},{""page_index"":1,""viewing_time"":16512.20000000298}]","","","","","","","","","","","","","","","","","","","",""
"","","","","","html-button-response","128","979252","0.0-3.0-1.0-1.0-0.0","63b6f0c524c4735cd7755c27","B2","batch2","pattern_enter_quiz","3199.199999999255","<p class=block-text> Let's answer a few questions <br>","0","","","","","","","","","","","","","","","","","","","","","","","","","",""
"","","","","","html-button-response","129","982900","0.0-3.0-1.0-1.0-1.0","63b6f0c524c4735cd7755c27","B2","batch2","pattern_quiz","3647.300000000745","<p class = block-text>True or False: You will have as much time as you want to make each choice. <br></p>","1","","","true","","","","","","","","","","","","","","","","","","","","","","",""
"","","","","","html-button-response","130","984572","0.0-3.0-1.0-1.0-2.0","63b6f0c524c4735cd7755c27","B2","batch2","pattern_quiz_feedback","1670.800000000745","<p class = block-text>Correct! You should make your choice <strong> as fast as you can</strong>.</p>","0","","","","","","","","","","","","","","","","","","","","","","","","","",""
"","","","","","html-button-response","131","988020","0.0-3.0-1.0-1.0-3.0","63b6f0c524c4735cd7755c27","B2","batch2","pattern_quiz","3447","<p class = block-text>True or False: You will look for 4 pieces in black or white color connected in a row either horizontally, vertically or diagonally. <br></p>","0","","","true","","","","","","","","","","","","","","","","","","","","","","",""
"","","","","","html-button-response","132","988996","0.0-3.0-1.0-1.0-4.0","63b6f0c524c4735cd7755c27","B2","batch2","pattern_quiz_feedback","975.1000000014901","<p class = block-text>Correct! </p>","0","","","","","","","","","","","","","","","","","","","","","","","","","",""
"","","","","","html-button-response","133","991444","0.0-3.0-2.0","63b6f0c524c4735cd7755c27","B2","batch2","pattern_enter_practice","2446.900000002235","<p class=block-text> Now that you've understood the game, let's do a few practice trials before we start!<br> <br>","0","","","","","","","","","","","","","","","","","","","","","","","","","",""
"","","","","","image-keyboard-response","134","995272","0.0-3.0-3.0-0.0","63b6f0c524c4735cd7755c27","B2","batch2","pattern_practice","3825.5","stim/prac_no_16_1.png","j","","j","true","","","","","","","","","","","","","","","","","","","","","","",""
"","","","","","html-keyboard-response","135","996287","0.0-3.0-3.0-1.0","63b6f0c524c4735cd7755c27","B2","batch2","pattern_feedback","null","<p style=""font-size:30px;color:green;"">Correct!</p>","null","","","","","","","","","","","","","","","","","","","","","","","","","",""
"","","","","","image-keyboard-response","136","998071","0.0-3.0-3.0-0.1","63b6f0c524c4735cd7755c27","B2","batch2","pattern_practice","1781.699999999255","stim/prac_yes_18_hor_w1.png","f","","f","true","","","","","","","","","","","","","","","","","","","","","","",""
"","","","","","html-keyboard-response","137","999087","0.0-3.0-3.0-1.1","63b6f0c524c4735cd7755c27","B2","batch2","pattern_feedback","null","<p style=""font-size:30px;color:green;"">Correct!</p>","null","","","","","","","","","","","","","","","","","","","","","","","","","",""
"","","","","","image-keyboard-response","138","1000038","0.0-3.0-3.0-0.2","63b6f0c524c4735cd7755c27","B2","batch2","pattern_practice","947.6000000014901","stim/prac_yes_16_ver_w1.png","f","","f","true","","","","","","","","","","","","","","","","","","","","","","",""
"","","","","","html-keyboard-response","139","1001060","0.0-3.0-3.0-1.2","63b6f0c524c4735cd7755c27","B2","batch2","pattern_feedback","null","<p style=""font-size:30px;color:green;"">Correct!</p>","null","","","","","","","","","","","","","","","","","","","","","","","","","",""
"","","","","","image-keyboard-response","140","1002102","0.0-3.0-3.0-0.3","63b6f0c524c4735cd7755c27","B2","batch2","pattern_practice","1039.3999999985099","stim/prac_no_18_1.png","j","","j","true","","","","","","","","","","","","","","","","","","","","","","",""
"","","","","","html-keyboard-response","141","1003116","0.0-3.0-3.0-1.3","63b6f0c524c4735cd7755c27","B2","batch2","pattern_feedback","null","<p style=""font-size:30px;color:green;"">Correct!</p>","null","","","","","","","","","","","","","","","","","","","","","","","","","",""
"","","","","","image-keyboard-response","142","1004168","0.0-3.0-3.0-0.4","63b6f0c524c4735cd7755c27","B2","batch2","pattern_practice","1062.300000000745","stim/prac_yes_20_dia_b1.png","f","","f","true","","","","","","","","","","","","","","","","","","","","","","",""
"","","","","","html-keyboard-response","143","1005187","0.0-3.0-3.0-1.4","63b6f0c524c4735cd7755c27","B2","batch2","pattern_feedback","null","<p style=""font-size:30px;color:green;"">Correct!</p>","null","","","","","","","","","","","","","","","","","","","","","","","","","",""
"","","","","","html-button-response","144","1010207","0.0-3.0-4.0","63b6f0c524c4735cd7755c27","B2","batch2","pattern_enter_official_trials","5016.800000000745","<p class=block-text> Good job! You are done with practice trials!<br>
        You responded correctly on 100% of the trials.<br>
        Press the button below to start official trials. Now you won't see any feedback about your response</p>","0","","","","","","","","","","","","","","","","","","","","","","","","","",""
"","","","","","html-keyboard-response","145","1011010","0.0-3.0-5.0-0.0","63b6f0c524c4735cd7755c27","B2","batch2","pattern_show_trial_num","null","<p class=block-text>Trial 1 out of 78</p>","null","","","","","","","","","","","","","","","","","","","","","","","","","",""
"","","","","","image-keyboard-response","146","1016640","0.0-3.0-5.0-1.0","63b6f0c524c4735cd7755c27","B2","batch2","pattern_response","5625.800000000745","stim/no_67_1.png","j","pattern_39","j","true","","","","5625.800000000745","true","1","","","","","","","","","","","","","","","","",""
"","","","","","html-keyboard-response","147","1017959","0.0-3.0-5.0-0.1","63b6f0c524c4735cd7755c27","B2","batch2","pattern_show_trial_num","null","<p class=block-text>Trial 2 out of 78</p>","null","","","","","","","","","","","","","","","","","","","","","","","","","",""
"","","","","","image-keyboard-response","148","1018840","0.0-3.0-5.0-1.1","63b6f0c524c4735cd7755c27","B2","batch2","pattern_response","877.2999999970198","stim/yes_37_hor_w1_w.png","f","pattern_60","f","true","","","","877.2999999970198","true","2","","","","","","","","","","","","","","","","",""
"","","","","","html-keyboard-response","149","1020164","0.0-3.0-5.0-0.2","63b6f0c524c4735cd7755c27","B2","batch2","pattern_show_trial_num","null","<p class=block-text>Trial 3 out of 78</p>","null","","","","","","","","","","","","","","","","","","","","","","","","","",""
"","","","","","image-keyboard-response","150","1021000","0.0-3.0-5.0-1.2","63b6f0c524c4735cd7755c27","B2","batch2","pattern_response","834.6000000014901","stim/yes_26_dia_w2_w.png","f","pattern_50","f","true","","","","834.6000000014901","true","3","","","","","","","","","","","","","","","","",""
"","","","","","html-keyboard-response","151","1022313","0.0-3.0-5.0-0.3","63b6f0c524c4735cd7755c27","B2","batch2","pattern_show_trial_num","null","<p class=block-text>Trial 4 out of 78</p>","null","","","","","","","","","","","","","","","","","","","","","","","","","",""
"","","","","","image-keyboard-response","152","1024896","0.0-3.0-5.0-1.3","63b6f0c524c4735cd7755c27","B2","batch2","pattern_response","2581.699999999255","stim/no_36_1_b.png","j","pattern_17","j","true","","","","2581.699999999255","true","4","","","","","","","","","","","","","","","","",""
"","","","","","html-keyboard-response","153","1026214","0.0-3.0-5.0-0.4","63b6f0c524c4735cd7755c27","B2","batch2","pattern_show_trial_num","null","<p class=block-text>Trial 5 out of 78</p>","null","","","","","","","","","","","","","","","","","","","","","","","","","",""
"","","","","","image-keyboard-response","154","1027190","0.0-3.0-5.0-1.4","63b6f0c524c4735cd7755c27","B2","batch2","pattern_response","973","stim/yes_46_ver_b1_b.png","f","pattern_68","f","true","","","","973","true","5","","","","","","","","","","","","","","","","",""
"","","","","","html-keyboard-response","155","1028497","0.0-3.0-5.0-0.5","63b6f0c524c4735cd7755c27","B2","batch2","pattern_show_trial_num","null","<p class=block-text>Trial 6 out of 78</p>","null","","","","","","","","","","","","","","","","","","","","","","","","","",""
"","","","","","image-keyboard-response","156","1032177","0.0-3.0-5.0-1.5","63b6f0c524c4735cd7755c27","B2","batch2","pattern_response","3677.699999999255","stim/yes_42_dia_w1_w.png","j","pattern_64","f","false","","","","3677.699999999255","false","5","","","","","","","","","","","","","","","","",""
"","","","","","html-keyboard-response","157","1033492","0.0-3.0-5.0-0.6","63b6f0c524c4735cd7755c27","B2","batch2","pattern_show_trial_num","null","<p class=block-text>Trial 7 out of 78</p>","null","","","","","","","","","","","","","","","","","","","","","","","","","",""
"","","","","","image-keyboard-response","158","1035576","0.0-3.0-5.0-1.6","63b6f0c524c4735cd7755c27","B2","batch2","pattern_response","2082.39999999851","stim/no_25_1_b.png","j","pattern_09","j","true","","","","2082.39999999851","true","6","","","","","","","","","","","","","","","","",""
"","","","","","html-keyboard-response","159","1036904","0.0-3.0-5.0-0.7","63b6f0c524c4735cd7755c27","B2","batch2","pattern_show_trial_num","null","<p class=block-text>Trial 8 out of 78</p>","null","","","","","","","","","","","","","","","","","","","","","","","","","",""
"","","","","","image-keyboard-response","160","1038568","0.0-3.0-5.0-1.7","63b6f0c524c4735cd7755c27","B2","batch2","pattern_response","1661.3999999985099","stim/yes_33_dia_w1_w.png","f","pattern_56","f","true","","","","1661.3999999985099","true","7","","","","","","","","","","","","","","","","",""
"","","","","","html-keyboard-response","161","1039878","0.0-3.0-5.0-0.8","63b6f0c524c4735cd7755c27","B2","batch2","pattern_show_trial_num","null","<p class=block-text>Trial 9 out of 78</p>","null","","","","","","","","","","","","","","","","","","","","","","","","","",""
"","","","","","image-keyboard-response","162","1041391","0.0-3.0-5.0-1.8","63b6f0c524c4735cd7755c27","B2","batch2","pattern_response","1509.3999999985099","stim/no_15_1_w.png","j","pattern_03","j","true","","","","1509.3999999985099","true","8","","","","","","","","","","","","","","","","",""
"","","","","","html-keyboard-response","163","1042705","0.0-3.0-5.0-0.9","63b6f0c524c4735cd7755c27","B2","batch2","pattern_show_trial_num","null","<p class=block-text>Trial 10 out of 78</p>","null","","","","","","","","","","","","","","","","","","","","","","","","","",""
"","","","","","image-keyboard-response","164","1045521","0.0-3.0-5.0-1.9","63b6f0c524c4735cd7755c27","B2","batch2","pattern_response","2814","stim/no_18_1_b.png","j","pattern_05","j","true","","","","2814","true","9","","","","","","","","","","","","","","","","",""
"","","","","","html-keyboard-response","165","1046829","0.0-3.0-5.0-0.10","63b6f0c524c4735cd7755c27","B2","batch2","pattern_show_trial_num","null","<p class=block-text>Trial 11 out of 78</p>","null","","","","","","","","","","","","","","","","","","","","","","","","","",""
"","","","","","image-keyboard-response","166","1047679","0.0-3.0-5.0-1.10","63b6f0c524c4735cd7755c27","B2","batch2","pattern_response","845.4000000022352","stim/yes_15_dia_b1u_b.png","f","pattern_44","f","true","","","","845.4000000022352","true","10","","","","","","","","","","","","","","","","",""
"","","","","","html-keyboard-response","167","1049004","0.0-3.0-5.0-0.11","63b6f0c524c4735cd7755c27","B2","batch2","pattern_show_trial_num","null","<p class=block-text>Trial 12 out of 78</p>","null","","","","","","","","","","","","","","","","","","","","","","","","","",""
"","","","","","image-keyboard-response","168","1053592","0.0-3.0-5.0-1.11","63b6f0c524c4735cd7755c27","B2","batch2","pattern_response","4585.10000000149","stim/no_53_1_b.png","j","pattern_33","j","true","","","","4585.10000000149","true","11","","","","","","","","","","","","","","","","",""
"","","","","","html-keyboard-response","169","1054912","0.0-3.0-5.0-0.12","63b6f0c524c4735cd7755c27","B2","batch2","pattern_show_trial_num","null","<p class=block-text>Trial 13 out of 78</p>","null","","","","","","","","","","","","","","","","","","","","","","","","","",""
"","","","","","image-keyboard-response","170","1057080","0.0-3.0-5.0-1.12","63b6f0c524c4735cd7755c27","B2","batch2","pattern_response","2164.199999999255","stim/no_47_1_b.png","j","pattern_27","j","true","","","","2164.199999999255","true","12","","","","","","","","","","","","","","","","",""
"","","","","","html-keyboard-response","171","1058395","0.0-3.0-5.0-0.13","63b6f0c524c4735cd7755c27","B2","batch2","pattern_show_trial_num","null","<p class=block-text>Trial 14 out of 78</p>","null","","","","","","","","","","","","","","","","","","","","","","","","","",""
"","","","","","image-keyboard-response","172","1059070","0.0-3.0-5.0-1.13","63b6f0c524c4735cd7755c27","B2","batch2","pattern_response","674","stim/yes_17_ver_b1_b.png","f","pattern_46","f","true","","","","674","true","13","","","","","","","","","","","","","","","","",""
"","","","","","html-keyboard-response","173","1060396","0.0-3.0-5.0-0.14","63b6f0c524c4735cd7755c27","B2","batch2","pattern_show_trial_num","null","<p class=block-text>Trial 15 out of 78</p>","null","","","","","","","","","","","","","","","","","","","","","","","","","",""
"","","","","","image-keyboard-response","174","1063544","0.0-3.0-5.0-1.14","63b6f0c524c4735cd7755c27","B2","batch2","pattern_response","3146.199999999255","stim/no_45_1_w.png","j","pattern_25","j","true","","","","3146.199999999255","true","14","","","","","","","","","","","","","","","","",""
"","","","","","html-keyboard-response","175","1064877","0.0-3.0-5.0-0.15","63b6f0c524c4735cd7755c27","B2","batch2","pattern_show_trial_num","null","<p class=block-text>Trial 16 out of 78</p>","null","","","","","","","","","","","","","","","","","","","","","","","","","",""
"","","","","","image-keyboard-response","176","1066421","0.0-3.0-5.0-1.15","63b6f0c524c4735cd7755c27","B2","batch2","pattern_response","1541.800000000745","stim/yes_23_ver_b1.png","f","pattern_48","f","true","","","","1541.800000000745","true","15","","","","","","","","","","","","","","","","",""
"","","","","","html-keyboard-response","177","1067734","0.0-3.0-5.0-0.16","63b6f0c524c4735cd7755c27","B2","batch2","pattern_show_trial_num","null","<p class=block-text>Trial 17 out of 78</p>","null","","","","","","","","","","","","","","","","","","","","","","","","","",""
"","","","","","image-keyboard-response","178","1069551","0.0-3.0-5.0-1.16","63b6f0c524c4735cd7755c27","B2","batch2","pattern_response","1814","stim/no_43_2_b.png","j","pattern_23","j","true","","","","1814","true","16","","","","","","","","","","","","","","","","",""
"","","","","","html-keyboard-response","179","1070862","0.0-3.0-5.0-0.17","63b6f0c524c4735cd7755c27","B2","batch2","pattern_show_trial_num","null","<p class=block-text>Trial 18 out of 78</p>","null","","","","","","","","","","","","","","","","","","","","","","","","","",""
"","","","","","image-keyboard-response","180","1072197","0.0-3.0-5.0-1.17","63b6f0c524c4735cd7755c27","B2","batch2","pattern_response","1333.0999999977648","stim/no_12_1.png","j","pattern_01","j","true","","","","1333.0999999977648","true","17","","","","","","","","","","","","","","","","",""
"","","","","","html-keyboard-response","181","1073514","0.0-3.0-5.0-0.18","63b6f0c524c4735cd7755c27","B2","batch2","pattern_show_trial_num","null","<p class=block-text>Trial 19 out of 78</p>","null","","","","","","","","","","","","","","","","","","","","","","","","","",""
"","","","","","image-keyboard-response","182","1074429","0.0-3.0-5.0-1.18","63b6f0c524c4735cd7755c27","B2","batch2","pattern_response","912.5999999977648","stim/yes_39_hor_w1_w.png","f","pattern_62","f","true","","","","912.5999999977648","true","18","","","","","","","","","","","","","","","","",""
"","","","","","html-keyboard-response","183","1075741","0.0-3.0-5.0-0.19","63b6f0c524c4735cd7755c27","B2","batch2","pattern_show_trial_num","null","<p class=block-text>Trial 20 out of 78</p>","null","","","","","","","","","","","","","","","","","","","","","","","","","",""
"","","","","","image-keyboard-response","184","1078541","0.0-3.0-5.0-1.19","63b6f0c524c4735cd7755c27","B2","batch2","pattern_response","2798.400000002235","stim/yes_63_dia_b1.png","f","pattern_78","f","true","","","","2798.400000002235","true","19","","","","","","","","","","","","","","","","",""
"","","","","","html-keyboard-response","185","1079862","0.0-3.0-5.0-0.20","63b6f0c524c4735cd7755c27","B2","batch2","pattern_show_trial_num","null","<p class=block-text>Trial 21 out of 78</p>","null","","","","","","","","","","","","","","","","","","","","","","","","","",""
"","","","","","image-keyboard-response","186","1081879","0.0-3.0-5.0-1.20","63b6f0c524c4735cd7755c27","B2","batch2","pattern_response","2015.5","stim/no_33_1_b.png","j","pattern_15","j","true","","","","2015.5","true","20","","","","","","","","","","","","","","","","",""
"","","","","","html-keyboard-response","187","1083202","0.0-3.0-5.0-0.21","63b6f0c524c4735cd7755c27","B2","batch2","pattern_show_trial_num","null","<p class=block-text>Trial 22 out of 78</p>","null","","","","","","","","","","","","","","","","","","","","","","","","","",""
"","","","","","image-keyboard-response","188","1085388","0.0-3.0-5.0-1.21","63b6f0c524c4735cd7755c27","B2","batch2","pattern_response","2183.199999999255","stim/no_37_2_w.png","j","pattern_19","j","true","","","","2183.199999999255","true","21","","","","","","","","","","","","","","","","",""
"","","","","","html-keyboard-response","189","1086714","0.0-3.0-5.0-0.22","63b6f0c524c4735cd7755c27","B2","batch2","pattern_show_trial_num","null","<p class=block-text>Trial 23 out of 78</p>","null","","","","","","","","","","","","","","","","","","","","","","","","","",""
"","","","","","image-keyboard-response","190","1088222","0.0-3.0-5.0-1.22","63b6f0c524c4735cd7755c27","B2","batch2","pattern_response","1504.3999999985099","stim/no_22_1_b.png","j","pattern_07","j","true","","","","1504.3999999985099","true","22","","","","","","","","","","","","","","","","",""
"","","","","","html-keyboard-response","191","1089530","0.0-3.0-5.0-0.23","63b6f0c524c4735cd7755c27","B2","batch2","pattern_show_trial_num","null","<p class=block-text>Trial 24 out of 78</p>","null","","","","","","","","","","","","","","","","","","","","","","","","","",""
"","","","","","image-keyboard-response","192","1091893","0.0-3.0-5.0-1.23","63b6f0c524c4735cd7755c27","B2","batch2","pattern_response","2360.5","stim/no_28_2.png","j","pattern_11","j","true","","","","2360.5","true","23","","","","","","","","","","","","","","","","",""
"","","","","","html-keyboard-response","193","1093217","0.0-3.0-5.0-0.24","63b6f0c524c4735cd7755c27","B2","batch2","pattern_show_trial_num","null","<p class=block-text>Trial 25 out of 78</p>","null","","","","","","","","","","","","","","","","","","","","","","","","","",""
"","","","","","image-keyboard-response","194","1098109","0.0-3.0-5.0-1.24","63b6f0c524c4735cd7755c27","B2","batch2","pattern_response","4890.199999999255","stim/yes_53_ver_b1_b.png","f","pattern_74","f","true","","","","4890.199999999255","true","24","","","","","","","","","","","","","","","","",""
"","","","","","html-keyboard-response","195","1099441","0.0-3.0-5.0-0.25","63b6f0c524c4735cd7755c27","B2","batch2","pattern_show_trial_num","null","<p class=block-text>Trial 26 out of 78</p>","null","","","","","","","","","","","","","","","","","","","","","","","","","",""
"","","","","","image-keyboard-response","196","1103415","0.0-3.0-5.0-1.25","63b6f0c524c4735cd7755c27","B2","batch2","pattern_response","3970.60000000149","stim/no_58_1_w.png","j","pattern_35","j","true","","","","3970.60000000149","true","25","","","","","","","","","","","","","","","","",""
"","","","","","html-keyboard-response","197","1104737","0.0-3.0-5.0-0.26","63b6f0c524c4735cd7755c27","B2","batch2","pattern_show_trial_num","null","<p class=block-text>Trial 27 out of 78</p>","null","","","","","","","","","","","","","","","","","","","","","","","","","",""
"","","","","","image-keyboard-response","198","1105782","0.0-3.0-5.0-1.26","63b6f0c524c4735cd7755c27","B2","batch2","pattern_response","1040.9000000022352","stim/yes_51_dia_b1.png","f","pattern_72","f","true","","","","1040.9000000022352","true","26","","","","","","","","","","","","","","","","",""
"","","","","","html-keyboard-response","199","1107107","0.0-3.0-5.0-0.27","63b6f0c524c4735cd7755c27","B2","batch2","pattern_show_trial_num","null","<p class=block-text>Trial 28 out of 78</p>","null","","","","","","","","","","","","","","","","","","","","","","","","","",""
"","","","","","image-keyboard-response","200","1110165","0.0-3.0-5.0-1.27","63b6f0c524c4735cd7755c27","B2","batch2","pattern_response","3056.400000002235","stim/no_39_1_w.png","j","pattern_21","j","true","","","","3056.400000002235","true","27","","","","","","","","","","","","","","","","",""
"","","","","","html-keyboard-response","201","1111488","0.0-3.0-5.0-0.28","63b6f0c524c4735cd7755c27","B2","batch2","pattern_show_trial_num","null","<p class=block-text>Trial 29 out of 78</p>","null","","","","","","","","","","","","","","","","","","","","","","","","","",""
"","","","","","image-keyboard-response","202","1112397","0.0-3.0-5.0-1.28","63b6f0c524c4735cd7755c27","B2","batch2","pattern_response","906","stim/yes_70_ver_b1.png","f","pattern_80","f","true","","","","906","true","28","","","","","","","","","","","","","","","","",""
"","","","","","html-keyboard-response","203","1113723","0.0-3.0-5.0-0.29","63b6f0c524c4735cd7755c27","B2","batch2","pattern_show_trial_num","null","<p class=block-text>Trial 30 out of 78</p>","null","","","","","","","","","","","","","","","","","","","","","","","","","",""
"","","","","","image-keyboard-response","204","1115335","0.0-3.0-5.0-1.29","63b6f0c524c4735cd7755c27","B2","batch2","pattern_response","1610.5","stim/no_30_1_b.png","j","pattern_13","j","true","","","","1610.5","true","29","","","","","","","","","","","","","","","","",""
"","","","","","html-keyboard-response","205","1116657","0.0-3.0-5.0-0.30","63b6f0c524c4735cd7755c27","B2","batch2","pattern_show_trial_num","null","<p class=block-text>Trial 31 out of 78</p>","null","","","","","","","","","","","","","","","","","","","","","","","","","",""
"","","","","","image-keyboard-response","206","1117558","0.0-3.0-5.0-1.30","63b6f0c524c4735cd7755c27","B2","batch2","pattern_response","897.8000000007451","stim/yes_29_hor_b1_b.png","f","pattern_52","f","true","","","","897.8000000007451","true","30","","","","","","","","","","","","","","","","",""
"","","","","","html-keyboard-response","207","1118874","0.0-3.0-5.0-0.31","63b6f0c524c4735cd7755c27","B2","batch2","pattern_show_trial_num","null","<p class=block-text>Trial 32 out of 78</p>","null","","","","","","","","","","","","","","","","","","","","","","","","","",""
"","","","","","image-keyboard-response","208","1119869","0.0-3.0-5.0-1.31","63b6f0c524c4735cd7755c27","B2","batch2","pattern_response","992.6000000014901","stim/yes_12_hor_w1_w.png","f","pattern_42","f","true","","","","992.6000000014901","true","31","","","","","","","","","","","","","","","","",""
"","","","","","html-keyboard-response","209","1121196","0.0-3.0-5.0-0.32","63b6f0c524c4735cd7755c27","B2","batch2","pattern_show_trial_num","null","<p class=block-text>Trial 33 out of 78</p>","null","","","","","","","","","","","","","","","","","","","","","","","","","",""
"","","","","","image-keyboard-response","210","1122429","0.0-3.0-5.0-1.32","63b6f0c524c4735cd7755c27","B2","batch2","pattern_response","1231","stim/yes_30_ver_b1_b.png","f","pattern_54","f","true","","","","1231","true","32","","","","","","","","","","","","","","","","",""
"","","","","","html-keyboard-response","211","1123744","0.0-3.0-5.0-0.33","63b6f0c524c4735cd7755c27","B2","batch2","pattern_show_trial_num","null","<p class=block-text>Trial 34 out of 78</p>","null","","","","","","","","","","","","","","","","","","","","","","","","","",""
"","","","","","image-keyboard-response","212","1126591","0.0-3.0-5.0-1.33","63b6f0c524c4735cd7755c27","B2","batch2","pattern_response","2853","stim/no_49_2_b.png","j","pattern_29","j","true","","","","2853","true","33","","","","","","","","","","","","","","","","",""
"","","","","","html-keyboard-response","213","1127906","0.0-3.0-5.0-0.34","63b6f0c524c4735cd7755c27","B2","batch2","pattern_show_trial_num","null","<p class=block-text>Trial 35 out of 78</p>","null","","","","","","","","","","","","","","","","","","","","","","","","","",""
"","","","","","image-keyboard-response","214","1128813","0.0-3.0-5.0-1.34","63b6f0c524c4735cd7755c27","B2","batch2","pattern_response","903.9000000022352","stim/yes_44_ver_w1_w.png","f","pattern_66","f","true","","","","903.9000000022352","true","34","","","","","","","","","","","","","","","","",""
"","","","","","html-keyboard-response","215","1130122","0.0-3.0-5.0-0.35","63b6f0c524c4735cd7755c27","B2","batch2","pattern_show_trial_num","null","<p class=block-text>Trial 36 out of 78</p>","null","","","","","","","","","","","","","","","","","","","","","","","","","",""
"","","","","","image-keyboard-response","216","1130940","0.0-3.0-5.0-1.35","63b6f0c524c4735cd7755c27","B2","batch2","pattern_response","814.9000000022352","stim/yes_36_ver_w1_w.png","f","pattern_58","f","true","","","","814.9000000022352","true","35","","","","","","","","","","","","","","","","",""
"","","","","","html-keyboard-response","217","1132252","0.0-3.0-5.0-0.36","63b6f0c524c4735cd7755c27","B2","batch2","pattern_show_trial_num","null","<p class=block-text>Trial 37 out of 78</p>","null","","","","","","","","","","","","","","","","","","","","","","","","","",""
"","","","","","image-keyboard-response","218","1135388","0.0-3.0-5.0-1.36","63b6f0c524c4735cd7755c27","B2","batch2","pattern_response","3133.900000002235","stim/no_51_1.png","j","pattern_31","j","true","","","","3133.900000002235","true","36","","","","","","","","","","","","","","","","",""
"","","","","","html-keyboard-response","219","1136712","0.0-3.0-5.0-0.37","63b6f0c524c4735cd7755c27","B2","batch2","pattern_show_trial_num","null","<p class=block-text>Trial 38 out of 78</p>","null","","","","","","","","","","","","","","","","","","","","","","","","","",""
"","","","","","image-keyboard-response","220","1140175","0.0-3.0-5.0-1.37","63b6f0c524c4735cd7755c27","B2","batch2","pattern_response","3460.699999999255","stim/yes_58_dia_w1_w.png","j","pattern_76","f","false","","","","3460.699999999255","false","36","","","","","","","","","","","","","","","","",""
"","","","","","html-keyboard-response","221","1141495","0.0-3.0-5.0-0.38","63b6f0c524c4735cd7755c27","B2","batch2","pattern_show_trial_num","null","<p class=block-text>Trial 39 out of 78</p>","null","","","","","","","","","","","","","","","","","","","","","","","","","",""
"","","","","","image-keyboard-response","222","1142445","0.0-3.0-5.0-1.38","63b6f0c524c4735cd7755c27","B2","batch2","pattern_response","948.3999999985099","stim/yes_49_hor_w1_b.png","f","pattern_70","f","true","","","","948.3999999985099","true","37","","","","","","","","","","","","","","","","",""
"","","","","","image-keyboard-response","223","1145573","0.0-3.0-6.0","63b6f0c524c4735cd7755c27","B2","batch2","attention_check","2618.800000000745","stim/empty_board.png","j","","j","true","","","","","","","500","[""f"",""j""]","","","","","","","","","","","","","","",""
"","","","","","html-keyboard-response","224","1146381","0.0-3.0-7.0-0.0","63b6f0c524c4735cd7755c27","B2","batch2","pattern_show_trial_num","null","<p class=block-text>Trial 40 out of 78</p>","null","","","","","","","","","","","","","","","","","","","","","","","","","",""
"","","","","","image-keyboard-response","225","1150005","0.0-3.0-7.0-1.0","63b6f0c524c4735cd7755c27","B2","batch2","pattern_response","3622.199999999255","stim/yes_37_dia_w1.png","j","pattern_59","f","false","","","","3622.199999999255","false","37","","","","","","","","","","","","","","","","",""
"","","","","","html-keyboard-response","226","1151319","0.0-3.0-7.0-0.1","63b6f0c524c4735cd7755c27","B2","batch2","pattern_show_trial_num","null","<p class=block-text>Trial 41 out of 78</p>","null","","","","","","","","","","","","","","","","","","","","","","","","","",""
"","","","","","image-keyboard-response","227","1153831","0.0-3.0-7.0-1.1","63b6f0c524c4735cd7755c27","B2","batch2","pattern_response","2508","stim/yes_40_dia_b1_b.png","j","pattern_63","f","false","","","","2508","false","37","","","","","","","","","","","","","","","","",""
"","","","","","html-keyboard-response","228","1155142","0.0-3.0-7.0-0.2","63b6f0c524c4735cd7755c27","B2","batch2","pattern_show_trial_num","null","<p class=block-text>Trial 42 out of 78</p>","null","","","","","","","","","","","","","","","","","","","","","","","","","",""
"","","","","","image-keyboard-response","229","1156517","0.0-3.0-7.0-1.2","63b6f0c524c4735cd7755c27","B2","batch2","pattern_response","1372.0999999977648","stim/yes_38_hor_b1_b.png","f","pattern_61","f","true","","","","1372.0999999977648","true","38","","","","","","","","","","","","","","","","",""
"","","","","","html-keyboard-response","230","1157827","0.0-3.0-7.0-0.3","63b6f0c524c4735cd7755c27","B2","batch2","pattern_show_trial_num","null","<p class=block-text>Trial 43 out of 78</p>","null","","","","","","","","","","","","","","","","","","","","","","","","","",""
"","","","","","image-keyboard-response","231","1159181","0.0-3.0-7.0-1.3","63b6f0c524c4735cd7755c27","B2","batch2","pattern_response","1351","stim/no_29_1_b.png","j","pattern_12","j","true","","","","1351","true","39","","","","","","","","","","","","","","","","",""
"","","","","","html-keyboard-response","232","1160497","0.0-3.0-7.0-0.4","63b6f0c524c4735cd7755c27","B2","batch2","pattern_show_trial_num","null","<p class=block-text>Trial 44 out of 78</p>","null","","","","","","","","","","","","","","","","","","","","","","","","","",""
"","","","","","image-keyboard-response","233","1162717","0.0-3.0-7.0-1.4","63b6f0c524c4735cd7755c27","B2","batch2","pattern_response","2218","stim/no_46_1_b.png","j","pattern_26","j","true","","","","2218","true","40","","","","","","","","","","","","","","","","",""
"","","","","","html-keyboard-response","234","1164038","0.0-3.0-7.0-0.5","63b6f0c524c4735cd7755c27","B2","batch2","pattern_show_trial_num","null","<p class=block-text>Trial 45 out of 78</p>","null","","","","","","","","","","","","","","","","","","","","","","","","","",""
"","","","","","image-keyboard-response","235","1168892","0.0-3.0-7.0-1.5","63b6f0c524c4735cd7755c27","B2","batch2","pattern_response","4851.70000000298","stim/no_36_2_w.png","j","pattern_18","j","true","","","","4851.70000000298","true","41","","","","","","","","","","","","","","","","",""
"","","","","","html-keyboard-response","236","1170201","0.0-3.0-7.0-0.6","63b6f0c524c4735cd7755c27","B2","batch2","pattern_show_trial_num","null","<p class=block-text>Trial 46 out of 78</p>","null","","","","","","","","","","","","","","","","","","","","","","","","","",""
"","","","","","image-keyboard-response","237","1173524","0.0-3.0-7.0-1.6","63b6f0c524c4735cd7755c27","B2","batch2","pattern_response","3319.400000002235","stim/no_65_1_b.png","j","pattern_38","j","true","","","","3319.400000002235","true","42","","","","","","","","","","","","","","","","",""
"","","","","","html-keyboard-response","238","1174849","0.0-3.0-7.0-0.7","63b6f0c524c4735cd7755c27","B2","batch2","pattern_show_trial_num","null","<p class=block-text>Trial 47 out of 78</p>","null","","","","","","","","","","","","","","","","","","","","","","","","","",""
"","","","","","image-keyboard-response","239","1177365","0.0-3.0-7.0-1.7","63b6f0c524c4735cd7755c27","B2","batch2","pattern_response","2513.10000000149","stim/no_55_1_w.png","j","pattern_34","j","true","","","","2513.10000000149","true","43","","","","","","","","","","","","","","","","",""
"","","","","","html-keyboard-response","240","1178692","0.0-3.0-7.0-0.8","63b6f0c524c4735cd7755c27","B2","batch2","pattern_show_trial_num","null","<p class=block-text>Trial 48 out of 78</p>","null","","","","","","","","","","","","","","","","","","","","","","","","","",""
"","","","","","image-keyboard-response","241","1179711","0.0-3.0-7.0-1.8","63b6f0c524c4735cd7755c27","B2","batch2","pattern_response","1015.6000000014901","stim/yes_28_ver_b1.png","f","pattern_51","f","true","","","","1015.6000000014901","true","44","","","","","","","","","","","","","","","","",""
"","","","","","html-keyboard-response","242","1181028","0.0-3.0-7.0-0.9","63b6f0c524c4735cd7755c27","B2","batch2","pattern_show_trial_num","null","<p class=block-text>Trial 49 out of 78</p>","null","","","","","","","","","","","","","","","","","","","","","","","","","",""
"","","","","","image-keyboard-response","243","1181837","0.0-3.0-7.0-1.9","63b6f0c524c4735cd7755c27","B2","batch2","pattern_response","807.0999999977648","stim/yes_22_ver_w1.png","f","pattern_47","f","true","","","","807.0999999977648","true","45","","","","","","","","","","","","","","","","",""
"","","","","","html-keyboard-response","244","1183154","0.0-3.0-7.0-0.10","63b6f0c524c4735cd7755c27","B2","batch2","pattern_show_trial_num","null","<p class=block-text>Trial 50 out of 78</p>","null","","","","","","","","","","","","","","","","","","","","","","","","","",""
"","","","","","image-keyboard-response","245","1185173","0.0-3.0-7.0-1.10","63b6f0c524c4735cd7755c27","B2","batch2","pattern_response","2016.9000000022352","stim/no_42_1_w.png","j","pattern_22","j","true","","","","2016.9000000022352","true","46","","","","","","","","","","","","","","","","",""
"","","","","","html-keyboard-response","246","1186489","0.0-3.0-7.0-0.11","63b6f0c524c4735cd7755c27","B2","batch2","pattern_show_trial_num","null","<p class=block-text>Trial 51 out of 78</p>","null","","","","","","","","","","","","","","","","","","","","","","","","","",""
"","","","","","image-keyboard-response","247","1187806","0.0-3.0-7.0-1.11","63b6f0c524c4735cd7755c27","B2","batch2","pattern_response","1311.699999999255","stim/no_23_1.png","j","pattern_08","j","true","","","","1311.699999999255","true","47","","","","","","","","","","","","","","","","",""
"","","","","","html-keyboard-response","248","1189127","0.0-3.0-7.0-0.12","63b6f0c524c4735cd7755c27","B2","batch2","pattern_show_trial_num","null","<p class=block-text>Trial 52 out of 78</p>","null","","","","","","","","","","","","","","","","","","","","","","","","","",""
"","","","","","image-keyboard-response","249","1190423","0.0-3.0-7.0-1.12","63b6f0c524c4735cd7755c27","B2","batch2","pattern_response","1293.8999999985099","stim/yes_29_ver_w1.png","f","pattern_53","f","true","","","","1293.8999999985099","true","48","","","","","","","","","","","","","","","","",""
"","","","","","html-keyboard-response","250","1191744","0.0-3.0-7.0-0.13","63b6f0c524c4735cd7755c27","B2","batch2","pattern_show_trial_num","null","<p class=block-text>Trial 53 out of 78</p>","null","","","","","","","","","","","","","","","","","","","","","","","","","",""
"","","","","","image-keyboard-response","251","1194494","0.0-3.0-7.0-1.13","63b6f0c524c4735cd7755c27","B2","batch2","pattern_response","2748.199999999255","stim/no_50_1.png","j","pattern_30","j","true","","","","2748.199999999255","true","49","","","","","","","","","","","","","","","","",""
"","","","","","html-keyboard-response","252","1195821","0.0-3.0-7.0-0.14","63b6f0c524c4735cd7755c27","B2","batch2","pattern_show_trial_num","null","<p class=block-text>Trial 54 out of 78</p>","null","","","","","","","","","","","","","","","","","","","","","","","","","",""
"","","","","","image-keyboard-response","253","1196975","0.0-3.0-7.0-1.14","63b6f0c524c4735cd7755c27","B2","batch2","pattern_response","1150.6000000014901","stim/yes_25_hor_b1_b.png","f","pattern_49","f","true","","","","1150.6000000014901","true","50","","","","","","","","","","","","","","","","",""
"","","","","","html-keyboard-response","254","1198291","0.0-3.0-7.0-0.15","63b6f0c524c4735cd7755c27","B2","batch2","pattern_show_trial_num","null","<p class=block-text>Trial 55 out of 78</p>","null","","","","","","","","","","","","","","","","","","","","","","","","","",""
"","","","","","image-keyboard-response","255","1201145","0.0-3.0-7.0-1.15","63b6f0c524c4735cd7755c27","B2","batch2","pattern_response","2850.7999999970198","stim/yes_48_dia_w1_w.png","j","pattern_69","f","false","","","","2850.7999999970198","false","50","","","","","","","","","","","","","","","","",""
"","","","","","html-keyboard-response","256","1202451","0.0-3.0-7.0-0.16","63b6f0c524c4735cd7755c27","B2","batch2","pattern_show_trial_num","null","<p class=block-text>Trial 56 out of 78</p>","null","","","","","","","","","","","","","","","","","","","","","","","","","",""
"","","","","","image-keyboard-response","257","1203999","0.0-3.0-7.0-1.16","63b6f0c524c4735cd7755c27","B2","batch2","pattern_response","1544.7999999970198","stim/no_34_1_b.png","j","pattern_16","j","true","","","","1544.7999999970198","true","51","","","","","","","","","","","","","","","","",""
"","","","","","html-keyboard-response","258","1205314","0.0-3.0-7.0-0.17","63b6f0c524c4735cd7755c27","B2","batch2","pattern_show_trial_num","null","<p class=block-text>Trial 57 out of 78</p>","null","","","","","","","","","","","","","","","","","","","","","","","","","",""
"","","","","","image-keyboard-response","259","1208583","0.0-3.0-7.0-1.17","63b6f0c524c4735cd7755c27","B2","batch2","pattern_response","3267.5","stim/no_48_1_w.png","j","pattern_28","j","true","","","","3267.5","true","52","","","","","","","","","","","","","","","","",""
"","","","","","html-keyboard-response","260","1209902","0.0-3.0-7.0-0.18","63b6f0c524c4735cd7755c27","B2","batch2","pattern_show_trial_num","null","<p class=block-text>Trial 58 out of 78</p>","null","","","","","","","","","","","","","","","","","","","","","","","","","",""
"","","","","","image-keyboard-response","261","1211217","0.0-3.0-7.0-1.18","63b6f0c524c4735cd7755c27","B2","batch2","pattern_response","1311.8999999985099","stim/no_26_1_w.png","j","pattern_10","j","true","","","","1311.8999999985099","true","53","","","","","","","","","","","","","","","","",""
"","","","","","html-keyboard-response","262","1212530","0.0-3.0-7.0-0.19","63b6f0c524c4735cd7755c27","B2","batch2","pattern_show_trial_num","null","<p class=block-text>Trial 59 out of 78</p>","null","","","","","","","","","","","","","","","","","","","","","","","","","",""
"","","","","","image-keyboard-response","263","1213286","0.0-3.0-7.0-1.19","63b6f0c524c4735cd7755c27","B2","batch2","pattern_response","753","stim/yes_14_hor_b1_w.png","f","pattern_43","f","true","","","","753","true","54","","","","","","","","","","","","","","","","",""
"","","","","","html-keyboard-response","264","1214598","0.0-3.0-7.0-0.20","63b6f0c524c4735cd7755c27","B2","batch2","pattern_show_trial_num","null","<p class=block-text>Trial 60 out of 78</p>","null","","","","","","","","","","","","","","","","","","","","","","","","","",""
"","","","","","image-keyboard-response","265","1216567","0.0-3.0-7.0-1.20","63b6f0c524c4735cd7755c27","B2","batch2","pattern_response","1966.5","stim/yes_50_dia_w1.png","j","pattern_71","f","false","","","","1966.5","false","54","","","","","","","","","","","","","","","","",""
"","","","","","html-keyboard-response","266","1217885","0.0-3.0-7.0-0.21","63b6f0c524c4735cd7755c27","B2","batch2","pattern_show_trial_num","null","<p class=block-text>Trial 61 out of 78</p>","null","","","","","","","","","","","","","","","","","","","","","","","","","",""
"","","","","","image-keyboard-response","267","1220902","0.0-3.0-7.0-1.21","63b6f0c524c4735cd7755c27","B2","batch2","pattern_response","3015.900000002235","stim/no_70_2.png","j","pattern_40","j","true","","","","3015.900000002235","true","55","","","","","","","","","","","","","","","","",""
"","","","","","html-keyboard-response","268","1222218","0.0-3.0-7.0-0.22","63b6f0c524c4735cd7755c27","B2","batch2","pattern_show_trial_num","null","<p class=block-text>Trial 62 out of 78</p>","null","","","","","","","","","","","","","","","","","","","","","","","","","",""
"","","","","","image-keyboard-response","269","1223497","0.0-3.0-7.0-1.22","63b6f0c524c4735cd7755c27","B2","batch2","pattern_response","1274.699999999255","stim/no_17_1_w.png","j","pattern_04","j","true","","","","1274.699999999255","true","56","","","","","","","","","","","","","","","","",""
"","","","","","html-keyboard-response","270","1224802","0.0-3.0-7.0-0.23","63b6f0c524c4735cd7755c27","B2","batch2","pattern_show_trial_num","null","<p class=block-text>Trial 63 out of 78</p>","null","","","","","","","","","","","","","","","","","","","","","","","","","",""
"","","","","","image-keyboard-response","271","1228015","0.0-3.0-7.0-1.23","63b6f0c524c4735cd7755c27","B2","batch2","pattern_response","3210","stim/yes_60_ver_b1_b.png","j","pattern_77","f","false","","","","3210","false","56","","","","","","","","","","","","","","","","",""
"","","","","","html-keyboard-response","272","1229320","0.0-3.0-7.0-0.24","63b6f0c524c4735cd7755c27","B2","batch2","pattern_show_trial_num","null","<p class=block-text>Trial 64 out of 78</p>","null","","","","","","","","","","","","","","","","","","","","","","","","","",""
"","","","","","image-keyboard-response","273","1230287","0.0-3.0-7.0-1.24","63b6f0c524c4735cd7755c27","B2","batch2","pattern_response","964.1000000014901","stim/yes_55_hor_w1_w.png","f","pattern_75","f","true","","","","964.1000000014901","true","57","","","","","","","","","","","","","","","","",""
"","","","","","html-keyboard-response","274","1231608","0.0-3.0-7.0-0.25","63b6f0c524c4735cd7755c27","B2","batch2","pattern_show_trial_num","null","<p class=block-text>Trial 65 out of 78</p>","null","","","","","","","","","","","","","","","","","","","","","","","","","",""
"","","","","","image-keyboard-response","275","1232927","0.0-3.0-7.0-1.25","63b6f0c524c4735cd7755c27","B2","batch2","pattern_response","1317.5","stim/yes_43_ver_w1_w.png","f","pattern_65","f","true","","","","1317.5","true","58","","","","","","","","","","","","","","","","",""
"","","","","","html-keyboard-response","276","1234251","0.0-3.0-7.0-0.26","63b6f0c524c4735cd7755c27","B2","batch2","pattern_show_trial_num","null","<p class=block-text>Trial 66 out of 78</p>","null","","","","","","","","","","","","","","","","","","","","","","","","","",""
"","","","","","image-keyboard-response","277","1236017","0.0-3.0-7.0-1.26","63b6f0c524c4735cd7755c27","B2","batch2","pattern_response","1763.699999999255","stim/yes_17_dia_w1.png","f","pattern_45","f","true","","","","1763.699999999255","true","59","","","","","","","","","","","","","","","","",""
"","","","","","html-keyboard-response","278","1237346","0.0-3.0-7.0-0.27","63b6f0c524c4735cd7755c27","B2","batch2","pattern_show_trial_num","null","<p class=block-text>Trial 67 out of 78</p>","null","","","","","","","","","","","","","","","","","","","","","","","","","",""
"","","","","","image-keyboard-response","279","1239535","0.0-3.0-7.0-1.27","63b6f0c524c4735cd7755c27","B2","batch2","pattern_response","2186.300000000745","stim/no_44_1.png","j","pattern_24","j","true","","","","2186.300000000745","true","60","","","","","","","","","","","","","","","","",""
"","","","","","html-keyboard-response","280","1240855","0.0-3.0-7.0-0.28","63b6f0c524c4735cd7755c27","B2","batch2","pattern_show_trial_num","null","<p class=block-text>Trial 68 out of 78</p>","null","","","","","","","","","","","","","","","","","","","","","","","","","",""
"","","","","","image-keyboard-response","281","1244511","0.0-3.0-7.0-1.28","63b6f0c524c4735cd7755c27","B2","batch2","pattern_response","3652.400000002235","stim/no_62_1_w.png","j","pattern_36","j","true","","","","3652.400000002235","true","61","","","","","","","","","","","","","","","","",""
"","","","","","html-keyboard-response","282","1245834","0.0-3.0-7.0-0.29","63b6f0c524c4735cd7755c27","B2","batch2","pattern_show_trial_num","null","<p class=block-text>Trial 69 out of 78</p>","null","","","","","","","","","","","","","","","","","","","","","","","","","",""
"","","","","","image-keyboard-response","283","1246969","0.0-3.0-7.0-1.29","63b6f0c524c4735cd7755c27","B2","batch2","pattern_response","1131.6000000014901","stim/no_20_1_w.png","j","pattern_06","j","true","","","","1131.6000000014901","true","62","","","","","","","","","","","","","","","","",""
"","","","","","html-keyboard-response","284","1248301","0.0-3.0-7.0-0.30","63b6f0c524c4735cd7755c27","B2","batch2","pattern_show_trial_num","null","<p class=block-text>Trial 70 out of 78</p>","null","","","","","","","","","","","","","","","","","","","","","","","","","",""
"","","","","","image-keyboard-response","285","1249980","0.0-3.0-7.0-1.30","63b6f0c524c4735cd7755c27","B2","batch2","pattern_response","1676.5999999977648","stim/yes_45_hor_b2_b.png","f","pattern_67","f","true","","","","1676.5999999977648","true","63","","","","","","","","","","","","","","","","",""
"","","","","","html-keyboard-response","286","1251302","0.0-3.0-7.0-0.31","63b6f0c524c4735cd7755c27","B2","batch2","pattern_show_trial_num","null","<p class=block-text>Trial 71 out of 78</p>","null","","","","","","","","","","","","","","","","","","","","","","","","","",""
"","","","","","image-keyboard-response","287","1252396","0.0-3.0-7.0-1.31","63b6f0c524c4735cd7755c27","B2","batch2","pattern_response","1090.300000000745","stim/yes_67_hor_b1.png","f","pattern_79","f","true","","","","1090.300000000745","true","64","","","","","","","","","","","","","","","","",""
"","","","","","html-keyboard-response","288","1253723","0.0-3.0-7.0-0.32","63b6f0c524c4735cd7755c27","B2","batch2","pattern_show_trial_num","null","<p class=block-text>Trial 72 out of 78</p>","null","","","","","","","","","","","","","","","","","","","","","","","","","",""
"","","","","","image-keyboard-response","289","1254716","0.0-3.0-7.0-1.32","63b6f0c524c4735cd7755c27","B2","batch2","pattern_response","991.2000000029802","stim/no_13_2_b.png","j","pattern_02","j","true","","","","991.2000000029802","true","65","","","","","","","","","","","","","","","","",""
"","","","","","html-keyboard-response","290","1256030","0.0-3.0-7.0-0.33","63b6f0c524c4735cd7755c27","B2","batch2","pattern_show_trial_num","null","<p class=block-text>Trial 73 out of 78</p>","null","","","","","","","","","","","","","","","","","","","","","","","","","",""
"","","","","","image-keyboard-response","291","1260463","0.0-3.0-7.0-1.33","63b6f0c524c4735cd7755c27","B2","batch2","pattern_response","4430.300000000745","stim/no_38_1_b.png","j","pattern_20","j","true","","","","4430.300000000745","true","66","","","","","","","","","","","","","","","","",""
"","","","","","html-keyboard-response","292","1261778","0.0-3.0-7.0-0.34","63b6f0c524c4735cd7755c27","B2","batch2","pattern_show_trial_num","null","<p class=block-text>Trial 74 out of 78</p>","null","","","","","","","","","","","","","","","","","","","","","","","","","",""
"","","","","","image-keyboard-response","293","1264397","0.0-3.0-7.0-1.34","63b6f0c524c4735cd7755c27","B2","batch2","pattern_response","2617.099999997765","stim/yes_52_ver_w1.png","f","pattern_73","f","true","","","","2617.099999997765","true","67","","","","","","","","","","","","","","","","",""
"","","","","","html-keyboard-response","294","1265712","0.0-3.0-7.0-0.35","63b6f0c524c4735cd7755c27","B2","batch2","pattern_show_trial_num","null","<p class=block-text>Trial 75 out of 78</p>","null","","","","","","","","","","","","","","","","","","","","","","","","","",""
"","","","","","image-keyboard-response","295","1267325","0.0-3.0-7.0-1.35","63b6f0c524c4735cd7755c27","B2","batch2","pattern_response","1609.5","stim/yes_31_hor_b1.png","f","pattern_55","f","true","","","","1609.5","true","68","","","","","","","","","","","","","","","","",""
"","","","","","html-keyboard-response","296","1268653","0.0-3.0-7.0-0.36","63b6f0c524c4735cd7755c27","B2","batch2","pattern_show_trial_num","null","<p class=block-text>Trial 76 out of 78</p>","null","","","","","","","","","","","","","","","","","","","","","","","","","",""
"","","","","","image-keyboard-response","297","1269533","0.0-3.0-7.0-1.36","63b6f0c524c4735cd7755c27","B2","batch2","pattern_response","876.5","stim/yes_35_dia_b1.png","f","pattern_57","f","true","","","","876.5","true","69","","","","","","","","","","","","","","","","",""
"","","","","","html-keyboard-response","298","1270853","0.0-3.0-7.0-0.37","63b6f0c524c4735cd7755c27","B2","batch2","pattern_show_trial_num","null","<p class=block-text>Trial 77 out of 78</p>","null","","","","","","","","","","","","","","","","","","","","","","","","","",""
"","","","","","image-keyboard-response","299","1272351","0.0-3.0-7.0-1.37","63b6f0c524c4735cd7755c27","B2","batch2","pattern_response","1495.300000000745","stim/no_32_1_w.png","j","pattern_14","j","true","","","","1495.300000000745","true","70","","","","","","","","","","","","","","","","",""
"","","","","","html-keyboard-response","300","1273674","0.0-3.0-7.0-0.38","63b6f0c524c4735cd7755c27","B2","batch2","pattern_show_trial_num","null","<p class=block-text>Trial 78 out of 78</p>","null","","","","","","","","","","","","","","","","","","","","","","","","","",""
"","","","","","image-keyboard-response","301","1276460","0.0-3.0-7.0-1.38","63b6f0c524c4735cd7755c27","B2","batch2","pattern_response","2783","stim/no_52_1.png","j","pattern_32","j","true","","","","2783","true","71","","","","","","","","","","","","","","","","",""
"","","","","","html-button-response","302","1282268","0.0-3.0-8.0","63b6f0c524c4735cd7755c27","B2","batch2","","5298.300000000745","<p class = block-text>This concludes the 4-in-a-row detection game.Thank you for your responses!<br>
            You responded correctly on 91% of the trials.<br>
            When you are ready, press ""Continue"" button to continue </p>","0","","","","","","","","","","","","","","","","","","","","","","","","","",""
"true","","","","","fullscreen","303","1286086","0.0-4.0-0.0","63b6f0c524c4735cd7755c27","B2","batch2","","","","","","","","","","","","","","","","","","","","","","","","","","","","","",""
"","","","","","instructions","304","1338900","0.0-4.0-1.0-0.0-0.0","63b6f0c524c4735cd7755c27","B2","batch2","tol-instructions","52812.39999999851","","","","","","","","[{""page_index"":0,""viewing_time"":12668.10000000149},{""page_index"":1,""viewing_time"":5200.099999997765},{""page_index"":2,""viewing_time"":5823.900000002235},{""page_index"":3,""viewing_time"":7720.199999999255},{""page_index"":4,""viewing_time"":7703.800000000745},{""page_index"":5,""viewing_time"":11984},{""page_index"":6,""viewing_time"":1712.0999999977648}]","","","","","","","","","","","","","","","","","","","",""
"","","","","","html-button-response","305","1340229","0.0-4.0-1.0-1.0-0.0","63b6f0c524c4735cd7755c27","B2","batch2","tol_enter_quiz","1327.3999999985099","<p class=block-text> Let's answer a few questions <br>","0","","","","","","","","","","","","","","","","","","","","","","","","","",""
"","","","","","html-button-response","306","1347636","0.0-4.0-1.0-1.0-1.0","63b6f0c524c4735cd7755c27","B2","batch2","tol_quiz","7406.60000000149","<p class = block-text>True or False: You can only move the ball on top of a peg. <br></p>","0","","","true","","","","","","","","","","","","","","","","","","","","","","",""
"","","","","","html-button-response","307","1348876","0.0-4.0-1.0-1.0-2.0","63b6f0c524c4735cd7755c27","B2","batch2","tol_quiz_feedback","1239","<p class = block-text>Correct! You can only move the ball on top of a peg.</p>","0","","","","","","","","","","","","","","","","","","","","","","","","","",""
"","","","","","html-button-response","308","1352604","0.0-4.0-1.0-1.0-3.0","63b6f0c524c4735cd7755c27","B2","batch2","tol_quiz","3727.300000000745","<p class = block-text>True or False: You should try to match your board with the target board with fewest moves possible. <br></p>","0","","","true","","","","","","","","","","","","","","","","","","","","","","",""
"","","","","","html-button-response","309","1353484","0.0-4.0-1.0-1.0-4.0","63b6f0c524c4735cd7755c27","B2","batch2","tol_quiz_feedback","879.1999999992549","<p class = block-text>Correct! </p>","0","","","","","","","","","","","","","","","","","","","","","","","","","",""
"","","","","","html-button-response","310","1355044","0.0-4.0-2.0","63b6f0c524c4735cd7755c27","B2","batch2","","1559.3999999985099","<p class=block-text> Now that you've understood the game, let's practice a few easier examples before we start!<br> <br>","0","","","","","","","","","","","","","","","","","","","","","","","","","",""
"","","","","","single-stim-button","311","1357373","0.0-4.0-3.0-0.0","63b6f0c524c4735cd7755c27","B2","batch2","tol_practice","2328","","","","","","","","","","","","","","tol_peg_2","2328","2328","0","[[1,2,0],[0,0],[0]]","1","[[1,2,0],[0,0],[3]]","practice","2328","","","","","",""
"","","","","","single-stim-button","312","1358876","0.0-4.0-3.0-1.0","63b6f0c524c4735cd7755c27","B2","batch2","tol_practice","1502","","","","","","","","","","","","","","tol_peg_3","1502","1502","0","[[1,2,0],[0,0],[3]]","1","[[1,2,0],[0,0],[3]]","practice","1502","","","","","",""
"","","","","","poldrack-single-stim","313","1359885","0.0-4.0-4.0","63b6f0c524c4735cd7755c27","B2","batch2","tol_feedback","-1","","","","","true","","","","","","","","","","1000","1000","500","","","","","","-1","none","true","","0",""
"","","","","","single-stim-button","314","1367820","0.0-4.0-5.0-0.0","63b6f0c524c4735cd7755c27","B2","batch2","tol_practice","7933","","","","","","","","","","","","","","tol_peg_1","7933","7933","0","[[1,0,0],[3,0],[0]]","2","[[0,0,0],[3,1],[2]]","practice","7933","","","","","",""
"","","","","","single-stim-button","315","1368668","0.0-4.0-5.0-1.0","63b6f0c524c4735cd7755c27","B2","batch2","tol_practice","847","","","","","","","","","","","","","","tol_peg_3","847","847","0","[[1,0,0],[3,0],[2]]","2","[[0,0,0],[3,1],[2]]","practice","847","","","","","",""
"","","","","","single-stim-button","316","1370716","0.0-4.0-5.1-0.1","63b6f0c524c4735cd7755c27","B2","batch2","tol_practice","2047","","","","","","","","","","","","","","tol_peg_1","2047","2047","0","[[0,0,0],[3,0],[2]]","3","[[0,0,0],[3,1],[2]]","practice","2047","","","","","",""
"","","","","","single-stim-button","317","1371596","0.0-4.0-5.1-1.1","63b6f0c524c4735cd7755c27","B2","batch2","tol_practice","880","","","","","","","","","","","","","","tol_peg_2","880","880","0","[[0,0,0],[3,1],[2]]","3","[[0,0,0],[3,1],[2]]","practice","880","","","","","",""
"","","","","","poldrack-single-stim","318","1372605","0.0-4.0-6.0","63b6f0c524c4735cd7755c27","B2","batch2","tol_feedback","-1","","","","","true","","","","","","","","","","1000","1000","500","","","","","","-1","none","true","","0",""
"","","","","","single-stim-button","319","1375132","0.0-4.0-7.0-0.0","63b6f0c524c4735cd7755c27","B2","batch2","tol_practice","2526","","","","","","","","","","","","","","tol_peg_2","2526","2526","0","[[1,2,0],[0,0],[0]]","4","[[1,0,0],[2,0],[3]]","practice","2526","","","","","",""
"","","","","","single-stim-button","320","1375964","0.0-4.0-7.0-1.0","63b6f0c524c4735cd7755c27","B2","batch2","tol_practice","832","","","","","","","","","","","","","","tol_peg_3","832","832","0","[[1,2,0],[0,0],[3]]","4","[[1,0,0],[2,0],[3]]","practice","832","","","","","",""
"","","","","","single-stim-button","321","1376908","0.0-4.0-7.1-0.1","63b6f0c524c4735cd7755c27","B2","batch2","tol_practice","944","","","","","","","","","","","","","","tol_peg_1","944","944","0","[[1,0,0],[0,0],[3]]","5","[[1,0,0],[2,0],[3]]","practice","944","","","","","",""
"","","","","","single-stim-button","322","1377460","0.0-4.0-7.1-1.1","63b6f0c524c4735cd7755c27","B2","batch2","tol_practice","552","","","","","","","","","","","","","","tol_peg_2","552","552","0","[[1,0,0],[2,0],[3]]","5","[[1,0,0],[2,0],[3]]","practice","552","","","","","",""
"","","","","","poldrack-single-stim","323","1378469","0.0-4.0-8.0","63b6f0c524c4735cd7755c27","B2","batch2","tol_feedback","-1","","","","","true","","","","","","","","","","1000","1000","500","","","","","","-1","none","true","","0",""
"","","","","","html-button-response","324","1380444","0.0-4.0-9.0","63b6f0c524c4735cd7755c27","B2","batch2","tol_instruction","1973.8999999985099","<div class = centerbox><p class = center-block-text>Great job! You are done with practice trials<br>You are about to start official trials.<br> <br> Problem <strong>1</strong> out of 25 problems</p></div>","0","","","","","","","","","","","","","","","","","","","","","","","","","",""
"","","","","","single-stim-button","325","1386476","0.0-4.0-10.0-0.0","63b6f0c524c4735cd7755c27","B2","batch2","tol_tohand","5029","","","","","","","","","","","","","","tol_peg_1","5029","5029","0","[[1,0,0],[3,0],[0]]","1","[[1,3,0],[2,0],[0]]","0","0","","","","","","3"
"","","","","","single-stim-button","326","1387229","0.0-4.0-10.0-1.0","63b6f0c524c4735cd7755c27","B2","batch2","tol_toboard","751","","","","","","","","","","","","","","tol_peg_3","751","751","0","[[1,0,0],[3,0],[2]]","1","[[1,3,0],[2,0],[0]]","0","0","","","","","","3"
"","","","","","single-stim-button","327","1388012","0.0-4.0-10.1-0.1","63b6f0c524c4735cd7755c27","B2","batch2","tol_tohand","783","","","","","","","","","","","","","","tol_peg_2","783","783","0","[[1,0,0],[0,0],[2]]","2","[[1,3,0],[2,0],[0]]","0","0","","","","","","3"
"","","","","","single-stim-button","328","1388764","0.0-4.0-10.1-1.1","63b6f0c524c4735cd7755c27","B2","batch2","tol_toboard","752","","","","","","","","","","","","","","tol_peg_1","752","752","0","[[1,3,0],[0,0],[2]]","2","[[1,3,0],[2,0],[0]]","0","0","","","","","","3"
"","","","","","single-stim-button","329","1389572","0.0-4.0-10.2-0.2","63b6f0c524c4735cd7755c27","B2","batch2","tol_tohand","808","","","","","","","","","","","","","","tol_peg_3","808","808","0","[[1,3,0],[0,0],[0]]","3","[[1,3,0],[2,0],[0]]","0","0","","","","","","3"
"","","","","","single-stim-button","330","1390380","0.0-4.0-10.2-1.2","63b6f0c524c4735cd7755c27","B2","batch2","tol_toboard","808","","","","","","","","","","","","","","tol_peg_2","808","808","0","[[1,3,0],[2,0],[0]]","3","[[1,3,0],[2,0],[0]]","0","0","","","","","","3"
"","","","","","poldrack-single-stim","331","1391394","0.0-4.0-11.0","63b6f0c524c4735cd7755c27","B2","batch2","tol_feedback","-1","","","","","true","","","","","","","","","","1000","1000","500","","","","","","-1","none","true","5029","6620",""
"","","","","","html-button-response","332","1392348","0.0-4.0-12.0","63b6f0c524c4735cd7755c27","B2","batch2","tol_trial_num","953.6000000014901","<div class = centerbox><p class = center-block-text>problem <strong>2</strong> out of 25 problems</p></div>","0","","","","","","","","","","","","","","","","","","","","","","","","","",""
"","","","","","single-stim-button","333","1405308","0.0-4.0-13.0-0.0","63b6f0c524c4735cd7755c27","B2","batch2","tol_tohand","12960","","","","","","","","","","","","","","tol_peg_1","12960","12960","0","[[1,0,0],[3,0],[0]]","1","[[2,1,3],[0,0],[0]]","1","0","","","","","","5"
"","","","","","single-stim-button","334","1406172","0.0-4.0-13.0-1.0","63b6f0c524c4735cd7755c27","B2","batch2","tol_toboard","863","","","","","","","","","","","","","","tol_peg_2","863","863","0","[[1,0,0],[3,2],[0]]","1","[[2,1,3],[0,0],[0]]","1","0","","","","","","5"
"","","","","","single-stim-button","335","1407076","0.0-4.0-13.1-0.1","63b6f0c524c4735cd7755c27","B2","batch2","tol_tohand","904","","","","","","","","","","","","","","tol_peg_1","904","904","0","[[0,0,0],[3,2],[0]]","2","[[2,1,3],[0,0],[0]]","1","0","","","","","","5"
"","","","","","single-stim-button","336","1407916","0.0-4.0-13.1-1.1","63b6f0c524c4735cd7755c27","B2","batch2","tol_toboard","840","","","","","","","","","","","","","","tol_peg_3","840","840","0","[[0,0,0],[3,2],[1]]","2","[[2,1,3],[0,0],[0]]","1","0","","","","","","5"
"","","","","","single-stim-button","337","1408644","0.0-4.0-13.2-0.2","63b6f0c524c4735cd7755c27","B2","batch2","tol_tohand","728","","","","","","","","","","","","","","tol_peg_2","728","728","0","[[0,0,0],[3,0],[1]]","3","[[2,1,3],[0,0],[0]]","1","0","","","","","","5"
"","","","","","single-stim-button","338","1409548","0.0-4.0-13.2-1.2","63b6f0c524c4735cd7755c27","B2","batch2","tol_toboard","904","","","","","","","","","","","","","","tol_peg_1","904","904","0","[[2,0,0],[3,0],[1]]","3","[[2,1,3],[0,0],[0]]","1","0","","","","","","5"
"","","","","","single-stim-button","339","1410172","0.0-4.0-13.3-0.3","63b6f0c524c4735cd7755c27","B2","batch2","tol_tohand","624","","","","","","","","","","","","","","tol_peg_3","624","624","0","[[2,0,0],[3,0],[0]]","4","[[2,1,3],[0,0],[0]]","1","0","","","","","","5"
"","","","","","single-stim-button","340","1410828","0.0-4.0-13.3-1.3","63b6f0c524c4735cd7755c27","B2","batch2","tol_toboard","656","","","","","","","","","","","","","","tol_peg_1","656","656","0","[[2,1,0],[3,0],[0]]","4","[[2,1,3],[0,0],[0]]","1","0","","","","","","5"
"","","","","","single-stim-button","341","1411468","0.0-4.0-13.4-0.4","63b6f0c524c4735cd7755c27","B2","batch2","tol_tohand","640","","","","","","","","","","","","","","tol_peg_2","640","640","0","[[2,1,0],[0,0],[0]]","5","[[2,1,3],[0,0],[0]]","1","0","","","","","","5"
"","","","","","single-stim-button","342","1412324","0.0-4.0-13.4-1.4","63b6f0c524c4735cd7755c27","B2","batch2","tol_toboard","856","","","","","","","","","","","","","","tol_peg_1","856","856","0","[[2,1,3],[0,0],[0]]","5","[[2,1,3],[0,0],[0]]","1","0","","","","","","5"
"","","","","","poldrack-single-stim","343","1413330","0.0-4.0-14.0","63b6f0c524c4735cd7755c27","B2","batch2","tol_feedback","-1","","","","","true","","","","","","","","","","1000","1000","500","","","","","","-1","none","true","12960","15856",""
"","","","","","html-button-response","344","1414220","0.0-4.0-15.0","63b6f0c524c4735cd7755c27","B2","batch2","tol_trial_num","889.0999999977648","<div class = centerbox><p class = center-block-text>problem <strong>3</strong> out of 25 problems</p></div>","0","","","","","","","","","","","","","","","","","","","","","","","","","",""
"","","","","","single-stim-button","345","1418156","0.0-4.0-16.0-0.0","63b6f0c524c4735cd7755c27","B2","batch2","tol_tohand","3936","","","","","","","","","","","","","","tol_peg_1","3936","3936","0","[[2,0,0],[0,0],[1]]","1","[[1,2,0],[3,0],[0]]","2","0","","","","","","4"
"","","","","","single-stim-button","346","1419228","0.0-4.0-16.0-1.0","63b6f0c524c4735cd7755c27","B2","batch2","tol_toboard","1072","","","","","","","","","","","","","","tol_peg_2","1072","1072","0","[[2,0,0],[3,0],[1]]","1","[[1,2,0],[3,0],[0]]","2","0","","","","","","4"
"","","","","","single-stim-button","347","1420236","0.0-4.0-16.1-0.1","63b6f0c524c4735cd7755c27","B2","batch2","tol_tohand","1008","","","","","","","","","","","","","","tol_peg_1","1008","1008","0","[[0,0,0],[3,0],[1]]","2","[[1,2,0],[3,0],[0]]","2","0","","","","","","4"
