"success","timeout","failed_images","failed_audio","failed_video","trial_type","trial_index","time_elapsed","internal_node_id","subject_id","study_id","session_id","view_history","rt","task","stimulus","response","correct","mouse_click","stim_duration","block_duration","timing_post_trial","current_position","tol_num_moves_made","tol_target","tol_problem_id","tol_rt","key_press","possible_responses","tol_correct","preplanning","tol_rt_per_trial","tol_min_moves","item","answer","spm_correct","spm_rt","fiar_detect_rt","fiar_detect_correct","total_correct_fiar_detect","post_trial_gap","choices"
"true","false","[]","[]","[]","preload","0","1429","0.0-0.0","63bb4ea524b89495f4bad8af","A3","batch1","","","","","","","","","","","","","","","","","","","","","","","","","","","","","",""
"true","","","","","fullscreen","1","47334","0.0-1.0-0.0","63bb4ea524b89495f4bad8af","A3","batch1","","","","","","","","","","","","","","","","","","","","","","","","","","","","","",""
"true","","","","","fullscreen","2","51686","0.0-2.0-0.0","63bb4ea524b89495f4bad8af","A3","batch1","","","","","","","","","","","","","","","","","","","","","","","","","","","","","",""
"","","","","","instructions","3","131672","0.0-2.0-1.0-0.0-0.0","63bb4ea524b89495f4bad8af","A3","batch1","[{""page_index"":0,""viewing_time"":18927.89999999851},{""page_index"":1,""viewing_time"":9979.80000000447},{""page_index"":2,""viewing_time"":4440.69999999553},{""page_index"":3,""viewing_time"":10510.20000000298},{""page_index"":4,""viewing_time"":14869.39999999851},{""page_index"":5,""viewing_time"":16880.20000000298},{""page_index"":6,""viewing_time"":4376.69999999553}]","79985.39999999851","tol-instructions","","","","","","","","","","","","","","","","","","","","","","","","","","",""
"","","","","","html-button-response","4","133026","0.0-2.0-1.0-1.0-0.0","63bb4ea524b89495f4bad8af","A3","batch1","","1351.2000000029802","tol_enter_quiz","<p class=block-text> Let's answer a few questions <br>","0","","","","","","","","","","","","","","","","","","","","","","","","",""
"","","","","","html-button-response","5","137384","0.0-2.0-1.0-1.0-1.0","63bb4ea524b89495f4bad8af","A3","batch1","","4356.39999999851","tol_quiz","<p class = block-text>True or False: You can only move the ball on top of a peg. <br></p>","0","true","","","","","","","","","","","","","","","","","","","","","","","",""
"","","","","","html-button-response","6","139021","0.0-2.0-1.0-1.0-2.0","63bb4ea524b89495f4bad8af","A3","batch1","","1630.8000000044703","tol_quiz_feedback","<p class = block-text>Correct! You can only move the ball on top of a peg.</p>","0","","","","","","","","","","","","","","","","","","","","","","","","",""
"","","","","","html-button-response","7","143460","0.0-2.0-1.0-1.0-3.0","63bb4ea524b89495f4bad8af","A3","batch1","","4437.10000000149","tol_quiz","<p class = block-text>True or False: You should try to match your board with the target board with fewest moves possible. <br></p>","0","true","","","","","","","","","","","","","","","","","","","","","","","",""
"","","","","","html-button-response","8","144504","0.0-2.0-1.0-1.0-4.0","63bb4ea524b89495f4bad8af","A3","batch1","","1042.3999999985099","tol_quiz_feedback","<p class = block-text>Correct! </p>","0","","","","","","","","","","","","","","","","","","","","","","","","",""
"","","","","","html-button-response","9","146433","0.0-2.0-2.0","63bb4ea524b89495f4bad8af","A3","batch1","","1927.1000000014901","","<p class=block-text> Now that you've understood the game, let's practice a few easier examples before we start!<br> <br>","0","","","","","","","","","","","","","","","","","","","","","","","","",""
"","","","","","single-stim-button","10","148664","0.0-2.0-3.0-0.0","63bb4ea524b89495f4bad8af","A3","batch1","","2228","tol_practice","","","","tol_peg_2","2228","2228","0","[[1,2,0],[0,0],[0]]","1","[[1,2,0],[0,0],[3]]","practice","2228","","","","","","","","","","","","","","",""
"","","","","","single-stim-button","11","150183","0.0-2.0-3.0-1.0","63bb4ea524b89495f4bad8af","A3","batch1","","1516","tol_practice","","","","tol_peg_3","1516","1516","0","[[1,2,0],[0,0],[3]]","1","[[1,2,0],[0,0],[3]]","practice","1516","","","","","","","","","","","","","","",""
"","","","","","poldrack-single-stim","12","151191","0.0-2.0-4.0","63bb4ea524b89495f4bad8af","A3","batch1","","-1","tol_feedback","","","true","","1000","1000","500","","","","","","-1","none","true","","0","","","","","","","","","",""
"","","","","","single-stim-button","13","155810","0.0-2.0-5.0-0.0","63bb4ea524b89495f4bad8af","A3","batch1","","4619","tol_practice","","","","tol_peg_1","4619","4619","0","[[1,0,0],[3,0],[0]]","2","[[0,0,0],[3,1],[2]]","practice","4619","","","","","","","","","","","","","","",""
"","","","","","single-stim-button","14","157481","0.0-2.0-5.0-1.0","63bb4ea524b89495f4bad8af","A3","batch1","","1669","tol_practice","","","","tol_peg_3","1669","1669","0","[[1,0,0],[3,0],[2]]","2","[[0,0,0],[3,1],[2]]","practice","1669","","","","","","","","","","","","","","",""
"","","","","","single-stim-button","15","158504","0.0-2.0-5.1-0.1","63bb4ea524b89495f4bad8af","A3","batch1","","1022","tol_practice","","","","tol_peg_1","1022","1022","0","[[0,0,0],[3,0],[2]]","3","[[0,0,0],[3,1],[2]]","practice","1022","","","","","","","","","","","","","","",""
"","","","","","single-stim-button","16","159778","0.0-2.0-5.1-1.1","63bb4ea524b89495f4bad8af","A3","batch1","","1272","tol_practice","","","","tol_peg_2","1272","1272","0","[[0,0,0],[3,1],[2]]","3","[[0,0,0],[3,1],[2]]","practice","1272","","","","","","","","","","","","","","",""
"","","","","","poldrack-single-stim","17","160782","0.0-2.0-6.0","63bb4ea524b89495f4bad8af","A3","batch1","","-1","tol_feedback","","","true","","1000","1000","500","","","","","","-1","none","true","","0","","","","","","","","","",""
"","","","","","single-stim-button","18","164968","0.0-2.0-7.0-0.0","63bb4ea524b89495f4bad8af","A3","batch1","","4184","tol_practice","","","","tol_peg_2","4184","4184","0","[[1,2,0],[0,0],[0]]","4","[[1,0,0],[2,0],[3]]","practice","4184","","","","","","","","","","","","","","",""
"","","","","","single-stim-button","19","166628","0.0-2.0-7.0-1.0","63bb4ea524b89495f4bad8af","A3","batch1","","1659","tol_practice","","","","tol_peg_3","1659","1659","0","[[1,2,0],[0,0],[3]]","4","[[1,0,0],[2,0],[3]]","practice","1659","","","","","","","","","","","","","","",""
"","","","","","single-stim-button","20","167622","0.0-2.0-7.1-0.1","63bb4ea524b89495f4bad8af","A3","batch1","","994","tol_practice","","","","tol_peg_1","994","994","0","[[1,0,0],[0,0],[3]]","5","[[1,0,0],[2,0],[3]]","practice","994","","","","","","","","","","","","","","",""
"","","","","","single-stim-button","21","168687","0.0-2.0-7.1-1.1","63bb4ea524b89495f4bad8af","A3","batch1","","1063","tol_practice","","","","tol_peg_2","1063","1063","0","[[1,0,0],[2,0],[3]]","5","[[1,0,0],[2,0],[3]]","practice","1063","","","","","","","","","","","","","","",""
"","","","","","poldrack-single-stim","22","169695","0.0-2.0-8.0","63bb4ea524b89495f4bad8af","A3","batch1","","-1","tol_feedback","","","true","","1000","1000","500","","","","","","-1","none","true","","0","","","","","","","","","",""
"","","","","","html-button-response","23","177756","0.0-2.0-9.0","63bb4ea524b89495f4bad8af","A3","batch1","","8060.30000000447","tol_instruction","<div class = centerbox><p class = center-block-text>Great job! You are done with practice trials<br>You are about to start official trials.<br> <br> Problem <strong>1</strong> out of 25 problems</p></div>","0","","","","","","","","","","","","","","","","","","","","","","","","",""
"","","","","","single-stim-button","24","188466","0.0-2.0-10.0-0.0","63bb4ea524b89495f4bad8af","A3","batch1","","9706","tol_tohand","","","","tol_peg_1","9706","9706","0","[[1,0,0],[3,0],[0]]","1","[[1,3,0],[2,0],[0]]","0","0","","","","","","3","","","","","","","","",""
"","","","","","single-stim-button","25","191657","0.0-2.0-10.0-1.0","63bb4ea524b89495f4bad8af","A3","batch1","","3190","tol_toboard","","","","tol_peg_3","3190","3190","0","[[1,0,0],[3,0],[2]]","1","[[1,3,0],[2,0],[0]]","0","0","","","","","","3","","","","","","","","",""
"","","","","","single-stim-button","26","192612","0.0-2.0-10.1-0.1","63bb4ea524b89495f4bad8af","A3","batch1","","953","tol_tohand","","","","tol_peg_2","953","953","0","[[1,0,0],[0,0],[2]]","2","[[1,3,0],[2,0],[0]]","0","0","","","","","","3","","","","","","","","",""
"","","","","","single-stim-button","27","194412","0.0-2.0-10.1-1.1","63bb4ea524b89495f4bad8af","A3","batch1","","1799","tol_toboard","","","","tol_peg_1","1799","1799","0","[[1,3,0],[0,0],[2]]","2","[[1,3,0],[2,0],[0]]","0","0","","","","","","3","","","","","","","","",""
"","","","","","single-stim-button","28","195386","0.0-2.0-10.2-0.2","63bb4ea524b89495f4bad8af","A3","batch1","","973","tol_tohand","","","","tol_peg_3","973","973","0","[[1,3,0],[0,0],[0]]","3","[[1,3,0],[2,0],[0]]","0","0","","","","","","3","","","","","","","","",""
"","","","","","single-stim-button","29","196679","0.0-2.0-10.2-1.2","63bb4ea524b89495f4bad8af","A3","batch1","","1291","tol_toboard","","","","tol_peg_2","1291","1291","0","[[1,3,0],[2,0],[0]]","3","[[1,3,0],[2,0],[0]]","0","0","","","","","","3","","","","","","","","",""
"","","","","","poldrack-single-stim","30","197686","0.0-2.0-11.0","63bb4ea524b89495f4bad8af","A3","batch1","","-1","tol_feedback","","","true","","1000","1000","500","","","","","","-1","none","true","9706","11632","","","","","","","","","",""
"","","","","","html-button-response","31","198999","0.0-2.0-12.0","63bb4ea524b89495f4bad8af","A3","batch1","","1311.2000000029802","tol_trial_num","<div class = centerbox><p class = center-block-text>problem <strong>2</strong> out of 25 problems</p></div>","0","","","","","","","","","","","","","","","","","","","","","","","","",""
"","","","","","single-stim-button","32","206702","0.0-2.0-13.0-0.0","63bb4ea524b89495f4bad8af","A3","batch1","","7702","tol_tohand","","","","tol_peg_1","7702","7702","0","[[1,0,0],[3,0],[0]]","1","[[2,1,3],[0,0],[0]]","1","0","","","","","","5","","","","","","","","",""
"","","","","","single-stim-button","33","210268","0.0-2.0-13.0-1.0","63bb4ea524b89495f4bad8af","A3","batch1","","3564","tol_toboard","","","","tol_peg_3","3564","3564","0","[[1,0,0],[3,0],[2]]","1","[[2,1,3],[0,0],[0]]","1","0","","","","","","5","","","","","","","","",""
"","","","","","single-stim-button","34","211263","0.0-2.0-13.1-0.1","63bb4ea524b89495f4bad8af","A3","batch1","","994","tol_tohand","","","","tol_peg_1","994","994","0","[[0,0,0],[3,0],[2]]","2","[[2,1,3],[0,0],[0]]","1","0","","","","","","5","","","","","","","","",""
"","","","","","single-stim-button","35","212280","0.0-2.0-13.1-1.1","63bb4ea524b89495f4bad8af","A3","batch1","","1015","tol_toboard","","","","tol_peg_2","1015","1015","0","[[0,0,0],[3,1],[2]]","2","[[2,1,3],[0,0],[0]]","1","0","","","","","","5","","","","","","","","",""
"","","","","","single-stim-button","36","213113","0.0-2.0-13.2-0.2","63bb4ea524b89495f4bad8af","A3","batch1","","832","tol_tohand","","","","tol_peg_3","832","832","0","[[0,0,0],[3,1],[0]]","3","[[2,1,3],[0,0],[0]]","1","0","","","","","","5","","","","","","","","",""
"","","","","","single-stim-button","37","214288","0.0-2.0-13.2-1.2","63bb4ea524b89495f4bad8af","A3","batch1","","1173","tol_toboard","","","","tol_peg_1","1173","1173","0","[[2,0,0],[3,1],[0]]","3","[[2,1,3],[0,0],[0]]","1","0","","","","","","5","","","","","","","","",""
"","","","","","single-stim-button","38","215186","0.0-2.0-13.3-0.3","63bb4ea524b89495f4bad8af","A3","batch1","","898","tol_tohand","","","","tol_peg_2","898","898","0","[[2,0,0],[3,0],[0]]","4","[[2,1,3],[0,0],[0]]","1","0","","","","","","5","","","","","","","","",""
"","","","","","single-stim-button","39","216100","0.0-2.0-13.3-1.3","63bb4ea524b89495f4bad8af","A3","batch1","","913","tol_toboard","","","","tol_peg_1","913","913","0","[[2,1,0],[3,0],[0]]","4","[[2,1,3],[0,0],[0]]","1","0","","","","","","5","","","","","","","","",""
"","","","","","single-stim-button","40","217196","0.0-2.0-13.4-0.4","63bb4ea524b89495f4bad8af","A3","batch1","","1095","tol_tohand","","","","tol_peg_2","1095","1095","0","[[2,1,0],[0,0],[0]]","5","[[2,1,3],[0,0],[0]]","1","0","","","","","","5","","","","","","","","",""
"","","","","","single-stim-button","41","218202","0.0-2.0-13.4-1.4","63bb4ea524b89495f4bad8af","A3","batch1","","1004","tol_toboard","","","","tol_peg_1","1004","1004","0","[[2,1,3],[0,0],[0]]","5","[[2,1,3],[0,0],[0]]","1","0","","","","","","5","","","","","","","","",""
"","","","","","poldrack-single-stim","42","219207","0.0-2.0-14.0","63bb4ea524b89495f4bad8af","A3","batch1","","-1","tol_feedback","","","true","","1000","1000","500","","","","","","-1","none","true","7702","11521","","","","","","","","","",""
"","","","","","html-button-response","43","220274","0.0-2.0-15.0","63bb4ea524b89495f4bad8af","A3","batch1","","1065.3999999985099","tol_trial_num","<div class = centerbox><p class = center-block-text>problem <strong>3</strong> out of 25 problems</p></div>","0","","","","","","","","","","","","","","","","","","","","","","","","",""
"","","","","","single-stim-button","44","225172","0.0-2.0-16.0-0.0","63bb4ea524b89495f4bad8af","A3","batch1","","4897","tol_tohand","","","","tol_peg_1","4897","4897","0","[[2,0,0],[0,0],[1]]","1","[[1,2,0],[3,0],[0]]","2","0","","","","","","4","","","","","","","","",""
"","","","","","single-stim-button","45","226646","0.0-2.0-16.0-1.0","63bb4ea524b89495f4bad8af","A3","batch1","","1473","tol_toboard","","","","tol_peg_2","1473","1473","0","[[2,0,0],[3,0],[1]]","1","[[1,2,0],[3,0],[0]]","2","0","","","","","","4","","","","","","","","",""
"","","","","","single-stim-button","46","229656","0.0-2.0-16.1-0.1","63bb4ea524b89495f4bad8af","A3","batch1","","3008","tol_tohand","","","","tol_peg_1","3008","3008","0","[[0,0,0],[3,0],[1]]","2","[[1,2,0],[3,0],[0]]","2","0","","","","","","4","","","","","","","","",""
"","","","","","single-stim-button","47","233536","0.0-2.0-16.1-1.1","63bb4ea524b89495f4bad8af","A3","batch1","","3879","tol_toboard","","","","tol_peg_2","3879","3879","0","[[0,0,0],[3,2],[1]]","2","[[1,2,0],[3,0],[0]]","2","0","","","","","","4","","","","","","","","",""
"","","","","","single-stim-button","48","234333","0.0-2.0-16.2-0.2","63bb4ea524b89495f4bad8af","A3","batch1","","795","tol_tohand","","","","tol_peg_3","795","795","0","[[0,0,0],[3,2],[0]]","3","[[1,2,0],[3,0],[0]]","2","0","","","","","","4","","","","","","","","",""
"","","","","","single-stim-button","49","235359","0.0-2.0-16.2-1.2","63bb4ea524b89495f4bad8af","A3","batch1","","1026","tol_toboard","","","","tol_peg_1","1026","1026","0","[[1,0,0],[3,2],[0]]","3","[[1,2,0],[3,0],[0]]","2","0","","","","","","4","","","","","","","","",""
"","","","","","single-stim-button","50","236304","0.0-2.0-16.3-0.3","63bb4ea524b89495f4bad8af","A3","batch1","","943","tol_tohand","","","","tol_peg_2","943","943","0","[[1,0,0],[3,0],[0]]","4","[[1,2,0],[3,0],[0]]","2","0","","","","","","4","","","","","","","","",""
"","","","","","single-stim-button","51","237689","0.0-2.0-16.3-1.3","63bb4ea524b89495f4bad8af","A3","batch1","","1385","tol_toboard","","","","tol_peg_1","1385","1385","0","[[1,2,0],[3,0],[0]]","4","[[1,2,0],[3,0],[0]]","2","0","","","","","","4","","","","","","","","",""
"","","","","","poldrack-single-stim","52","238694","0.0-2.0-17.0","63bb4ea524b89495f4bad8af","A3","batch1","","-1","tol_feedback","","","true","","1000","1000","500","","","","","","-1","none","true","4897","9643","","","","","","","","","",""
"","","","","","html-button-response","53","239869","0.0-2.0-18.0","63bb4ea524b89495f4bad8af","A3","batch1","","1172.6999999955297","tol_trial_num","<div class = centerbox><p class = center-block-text>problem <strong>4</strong> out of 25 problems</p></div>","0","","","","","","","","","","","","","","","","","","","","","","","","",""
"","","","","","single-stim-button","54","244300","0.0-2.0-19.0-0.0","63bb4ea524b89495f4bad8af","A3","batch1","","4429","tol_tohand","","","","tol_peg_2","4429","4429","0","[[3,0,0],[2,0],[0]]","1","[[3,0,0],[1,0],[2]]","3","0","","","","","","3","","","","","","","","",""
"","","","","","single-stim-button","55","245834","0.0-2.0-19.0-1.0","63bb4ea524b89495f4bad8af","A3","batch1","","1534","tol_toboard","","","","tol_peg_1","1534","1534","0","[[3,1,0],[2,0],[0]]","1","[[3,0,0],[1,0],[2]]","3","0","","","","","","3","","","","","","","","",""
"","","","","","single-stim-button","56","246780","0.0-2.0-19.1-0.1","63bb4ea524b89495f4bad8af","A3","batch1","","944","tol_tohand","","","","tol_peg_2","944","944","0","[[3,1,0],[0,0],[0]]","2","[[3,0,0],[1,0],[2]]","3","0","","","","","","3","","","","","","","","",""
"","","","","","single-stim-button","57","247955","0.0-2.0-19.1-1.1","63bb4ea524b89495f4bad8af","A3","batch1","","1175","tol_toboard","","","","tol_peg_3","1175","1175","0","[[3,1,0],[0,0],[2]]","2","[[3,0,0],[1,0],[2]]","3","0","","","","","","3","","","","","","","","",""
"","","","","","single-stim-button","58","248921","0.0-2.0-19.2-0.2","63bb4ea524b89495f4bad8af","A3","batch1","","964","tol_tohand","","","","tol_peg_1","964","964","0","[[3,0,0],[0,0],[2]]","3","[[3,0,0],[1,0],[2]]","3","0","","","","","","3","","","","","","","","",""
"","","","","","single-stim-button","59","249778","0.0-2.0-19.2-1.2","63bb4ea524b89495f4bad8af","A3","batch1","","857","tol_toboard","","","","tol_peg_2","857","857","0","[[3,0,0],[1,0],[2]]","3","[[3,0,0],[1,0],[2]]","3","0","","","","","","3","","","","","","","","",""
"","","","","","poldrack-single-stim","60","250782","0.0-2.0-20.0","63bb4ea524b89495f4bad8af","A3","batch1","","-1","tol_feedback","","","true","","1000","1000","500","","","","","","-1","none","true","4429","6337","","","","","","","","","",""
"","","","","","html-button-response","61","252227","0.0-2.0-21.0","63bb4ea524b89495f4bad8af","A3","batch1","","1443.6000000014901","tol_trial_num","<div class = centerbox><p class = center-block-text>problem <strong>5</strong> out of 25 problems</p></div>","0","","","","","","","","","","","","","","","","","","","","","","","","",""
"","","","","","single-stim-button","62","255832","0.0-2.0-22.0-0.0","63bb4ea524b89495f4bad8af","A3","batch1","","3604","tol_tohand","","","","tol_peg_2","3604","3604","0","[[1,0,0],[0,0],[3]]","1","[[0,0,0],[1,2],[3]]","4","0","","","","","","7","","","","","","","","",""
"","","","","","single-stim-button","63","262623","0.0-2.0-22.0-1.0","63bb4ea524b89495f4bad8af","A3","batch1","","6790","tol_toboard","","","","tol_peg_2","6790","6790","0","[[1,0,0],[2,0],[3]]","1","[[0,0,0],[1,2],[3]]","4","0","","","","","","7","","","","","","","","",""
"","","","","","single-stim-button","64","267733","0.0-2.0-22.1-0.1","63bb4ea524b89495f4bad8af","A3","batch1","","5109","tol_tohand","","","","tol_peg_1","5109","5109","0","[[0,0,0],[2,0],[3]]","2","[[0,0,0],[1,2],[3]]","4","0","","","","","","7","","","","","","","","",""
"","","","","","single-stim-button","65","274143","0.0-2.0-22.1-1.1","63bb4ea524b89495f4bad8af","A3","batch1","","6409","tol_toboard","","","","tol_peg_1","6409","6409","0","[[1,0,0],[2,0],[3]]","2","[[0,0,0],[1,2],[3]]","4","0","","","","","","7","","","","","","","","",""
"","","","","","single-stim-button","66","277131","0.0-2.0-22.2-0.2","63bb4ea524b89495f4bad8af","A3","batch1","","2986","tol_tohand","","","","tol_peg_3","2986","2986","0","[[1,0,0],[2,0],[0]]","3","[[0,0,0],[1,2],[3]]","4","0","","","","","","7","","","","","","","","",""
"","","","","","single-stim-button","67","295506","0.0-2.0-22.2-1.2","63bb4ea524b89495f4bad8af","A3","batch1","","18375","tol_toboard","","","","tol_peg_2","18375","18375","0","[[1,0,0],[2,3],[0]]","3","[[0,0,0],[1,2],[3]]","4","0","","","","","","7","","","","","","","","",""
"","","","","","single-stim-button","68","298194","0.0-2.0-22.3-0.3","63bb4ea524b89495f4bad8af","A3","batch1","","2686","tol_tohand","","","","tol_peg_1","2686","2686","0","[[0,0,0],[2,3],[0]]","4","[[0,0,0],[1,2],[3]]","4","0","","","","","","7","","","","","","","","",""
"","","","","","single-stim-button","69","300335","0.0-2.0-22.3-1.3","63bb4ea524b89495f4bad8af","A3","batch1","","2140","tol_toboard","","","","tol_peg_3","2140","2140","0","[[0,0,0],[2,3],[1]]","4","[[0,0,0],[1,2],[3]]","4","0","","","","","","7","","","","","","","","",""
"","","","","","single-stim-button","70","301290","0.0-2.0-22.4-0.4","63bb4ea524b89495f4bad8af","A3","batch1","","955","tol_tohand","","","","tol_peg_2","955","955","0","[[0,0,0],[2,0],[1]]","5","[[0,0,0],[1,2],[3]]","4","0","","","","","","7","","","","","","","","",""
"","","","","","single-stim-button","71","302366","0.0-2.0-22.4-1.4","63bb4ea524b89495f4bad8af","A3","batch1","","1075","tol_toboard","","","","tol_peg_1","1075","1075","0","[[3,0,0],[2,0],[1]]","5","[[0,0,0],[1,2],[3]]","4","0","","","","","","7","","","","","","","","",""
"","","","","","single-stim-button","72","303551","0.0-2.0-22.5-0.5","63bb4ea524b89495f4bad8af","A3","batch1","","1184","tol_tohand","","","","tol_peg_2","1184","1184","0","[[3,0,0],[0,0],[1]]","6","[[0,0,0],[1,2],[3]]","4","0","","","","","","7","","","","","","","","",""
"","","","","","single-stim-button","73","304969","0.0-2.0-22.5-1.5","63bb4ea524b89495f4bad8af","A3","batch1","","1416","tol_toboard","","","","tol_peg_1","1416","1416","0","[[3,2,0],[0,0],[1]]","6","[[0,0,0],[1,2],[3]]","4","0","","","","","","7","","","","","","","","",""
"","","","","","single-stim-button","74","305934","0.0-2.0-22.6-0.6","63bb4ea524b89495f4bad8af","A3","batch1","","965","tol_tohand","","","","tol_peg_3","965","965","0","[[3,2,0],[0,0],[0]]","7","[[0,0,0],[1,2],[3]]","4","0","","","","","","7","","","","","","","","",""
"","","","","","single-stim-button","75","306918","0.0-2.0-22.6-1.6","63bb4ea524b89495f4bad8af","A3","batch1","","982","tol_toboard","","","","tol_peg_2","982","982","0","[[3,2,0],[1,0],[0]]","7","[[0,0,0],[1,2],[3]]","4","0","","","","","","7","","","","","","","","",""
"","","","","","single-stim-button","76","307893","0.0-2.0-22.7-0.7","63bb4ea524b89495f4bad8af","A3","batch1","","975","tol_tohand","","","","tol_peg_1","975","975","0","[[3,0,0],[1,0],[0]]","8","[[0,0,0],[1,2],[3]]","4","0","","","","","","7","","","","","","","","",""
"","","","","","single-stim-button","77","309069","0.0-2.0-22.7-1.7","63bb4ea524b89495f4bad8af","A3","batch1","","1174","tol_toboard","","","","tol_peg_2","1174","1174","0","[[3,0,0],[1,2],[0]]","8","[[0,0,0],[1,2],[3]]","4","0","","","","","","7","","","","","","","","",""
"","","","","","single-stim-button","78","310144","0.0-2.0-22.8-0.8","63bb4ea524b89495f4bad8af","A3","batch1","","1074","tol_tohand","","","","tol_peg_1","1074","1074","0","[[0,0,0],[1,2],[0]]","9","[[0,0,0],[1,2],[3]]","4","0","","","","","","7","","","","","","","","",""
"","","","","","single-stim-button","79","311321","0.0-2.0-22.8-1.8","63bb4ea524b89495f4bad8af","A3","batch1","","1176","tol_toboard","","","","tol_peg_3","1176","1176","0","[[0,0,0],[1,2],[3]]","9","[[0,0,0],[1,2],[3]]","4","0","","","","","","7","","","","","","","","",""
"","","","","","poldrack-single-stim","80","312327","0.0-2.0-23.0","63bb4ea524b89495f4bad8af","A3","batch1","","-1","tol_feedback","","","true","","1000","1000","500","","","","","","-1","none","true","3604","19538","","","","","","","","","",""
"","","","","","html-button-response","81","313678","0.0-2.0-24.0","63bb4ea524b89495f4bad8af","A3","batch1","","1350.5","tol_trial_num","<div class = centerbox><p class = center-block-text>problem <strong>6</strong> out of 25 problems</p></div>","0","","","","","","","","","","","","","","","","","","","","","","","","",""
"","","","","","single-stim-button","82","323697","0.0-2.0-25.0-0.0","63bb4ea524b89495f4bad8af","A3","batch1","","10018","tol_tohand","","","","tol_peg_3","10018","10018","0","[[0,0,0],[1,2],[0]]","1","[[1,0,0],[2,3],[0]]","5","0","","","","","","6","","","","","","","","",""
"","","","","","single-stim-button","83","326694","0.0-2.0-25.0-1.0","63bb4ea524b89495f4bad8af","A3","batch1","","2996","tol_toboard","","","","tol_peg_1","2996","2996","0","[[3,0,0],[1,2],[0]]","1","[[1,0,0],[2,3],[0]]","5","0","","","","","","6","","","","","","","","",""
"","","","","","single-stim-button","84","327919","0.0-2.0-25.1-0.1","63bb4ea524b89495f4bad8af","A3","batch1","","1224","tol_tohand","","","","tol_peg_2","1224","1224","0","[[3,0,0],[1,0],[0]]","2","[[1,0,0],[2,3],[0]]","5","0","","","","","","6","","","","","","","","",""
"","","","","","single-stim-button","85","341515","0.0-2.0-25.1-1.1","63bb4ea524b89495f4bad8af","A3","batch1","","13595","tol_toboard","","","","tol_peg_2","13595","13595","0","[[3,0,0],[1,2],[0]]","2","[[1,0,0],[2,3],[0]]","5","0","","","","","","6","","","","","","","","",""
"","","","","","single-stim-button","86","342343","0.0-2.0-25.2-0.2","63bb4ea524b89495f4bad8af","A3","batch1","","826","tol_tohand","","","","tol_peg_1","826","826","0","[[0,0,0],[1,2],[0]]","3","[[1,0,0],[2,3],[0]]","5","0","","","","","","6","","","","","","","","",""
"","","","","","single-stim-button","87","343616","0.0-2.0-25.2-1.2","63bb4ea524b89495f4bad8af","A3","batch1","","1272","tol_toboard","","","","tol_peg_3","1272","1272","0","[[0,0,0],[1,2],[3]]","3","[[1,0,0],[2,3],[0]]","5","0","","","","","","6","","","","","","","","",""
"","","","","","single-stim-button","88","349522","0.0-2.0-25.3-0.3","63bb4ea524b89495f4bad8af","A3","batch1","","5905","tol_tohand","","","","tol_peg_3","5905","5905","0","[[0,0,0],[1,2],[0]]","4","[[1,0,0],[2,3],[0]]","5","0","","","","","","6","","","","","","","","",""
"","","","","","single-stim-button","89","350686","0.0-2.0-25.3-1.3","63bb4ea524b89495f4bad8af","A3","batch1","","1164","tol_toboard","","","","tol_peg_1","1164","1164","0","[[3,0,0],[1,2],[0]]","4","[[1,0,0],[2,3],[0]]","5","0","","","","","","6","","","","","","","","",""
"","","","","","single-stim-button","90","354093","0.0-2.0-25.4-0.4","63bb4ea524b89495f4bad8af","A3","batch1","","3406","tol_tohand","","","","tol_peg_2","3406","3406","0","[[3,0,0],[1,0],[0]]","5","[[1,0,0],[2,3],[0]]","5","0","","","","","","6","","","","","","","","",""
"","","","","","single-stim-button","91","356840","0.0-2.0-25.4-1.4","63bb4ea524b89495f4bad8af","A3","batch1","","2746","tol_toboard","","","","tol_peg_3","2746","2746","0","[[3,0,0],[1,0],[2]]","5","[[1,0,0],[2,3],[0]]","5","0","","","","","","6","","","","","","","","",""
"","","","","","single-stim-button","92","357628","0.0-2.0-25.5-0.5","63bb4ea524b89495f4bad8af","A3","batch1","","786","tol_tohand","","","","tol_peg_2","786","786","0","[[3,0,0],[0,0],[2]]","6","[[1,0,0],[2,3],[0]]","5","0","","","","","","6","","","","","","","","",""
"","","","","","single-stim-button","93","358753","0.0-2.0-25.5-1.5","63bb4ea524b89495f4bad8af","A3","batch1","","1123","tol_toboard","","","","tol_peg_1","1123","1123","0","[[3,1,0],[0,0],[2]]","6","[[1,0,0],[2,3],[0]]","5","0","","","","","","6","","","","","","","","",""
"","","","","","single-stim-button","94","359908","0.0-2.0-25.6-0.6","63bb4ea524b89495f4bad8af","A3","batch1","","1155","tol_tohand","","","","tol_peg_3","1155","1155","0","[[3,1,0],[0,0],[0]]","7","[[1,0,0],[2,3],[0]]","5","0","","","","","","6","","","","","","","","",""
"","","","","","single-stim-button","95","361022","0.0-2.0-25.6-1.6","63bb4ea524b89495f4bad8af","A3","batch1","","1113","tol_toboard","","","","tol_peg_2","1113","1113","0","[[3,1,0],[2,0],[0]]","7","[[1,0,0],[2,3],[0]]","5","0","","","","","","6","","","","","","","","",""
"","","","","","single-stim-button","96","361979","0.0-2.0-25.7-0.7","63bb4ea524b89495f4bad8af","A3","batch1","","955","tol_tohand","","","","tol_peg_1","955","955","0","[[3,0,0],[2,0],[0]]","8","[[1,0,0],[2,3],[0]]","5","0","","","","","","6","","","","","","","","",""
"","","","","","single-stim-button","97","363005","0.0-2.0-25.7-1.7","63bb4ea524b89495f4bad8af","A3","batch1","","1024","tol_toboard","","","","tol_peg_3","1024","1024","0","[[3,0,0],[2,0],[1]]","8","[[1,0,0],[2,3],[0]]","5","0","","","","","","6","","","","","","","","",""
"","","","","","single-stim-button","98","363961","0.0-2.0-25.8-0.8","63bb4ea524b89495f4bad8af","A3","batch1","","956","tol_tohand","","","","tol_peg_1","956","956","0","[[0,0,0],[2,0],[1]]","9","[[1,0,0],[2,3],[0]]","5","0","","","","","","6","","","","","","","","",""
"","","","","","single-stim-button","99","365137","0.0-2.0-25.8-1.8","63bb4ea524b89495f4bad8af","A3","batch1","","1174","tol_toboard","","","","tol_peg_2","1174","1174","0","[[0,0,0],[2,3],[1]]","9","[[1,0,0],[2,3],[0]]","5","0","","","","","","6","","","","","","","","",""
"","","","","","single-stim-button","100","365972","0.0-2.0-25.9-0.9","63bb4ea524b89495f4bad8af","A3","batch1","","835","tol_tohand","","","","tol_peg_3","835","835","0","[[0,0,0],[2,3],[0]]","10","[[1,0,0],[2,3],[0]]","5","0","","","","","","6","","","","","","","","",""
"","","","","","single-stim-button","101","366959","0.0-2.0-25.9-1.9","63bb4ea524b89495f4bad8af","A3","batch1","","985","tol_toboard","","","","tol_peg_1","985","985","0","[[1,0,0],[2,3],[0]]","10","[[1,0,0],[2,3],[0]]","5","0","","","","","","6","","","","","","","","",""
"","","","","","poldrack-single-stim","102","367966","0.0-2.0-26.0","63bb4ea524b89495f4bad8af","A3","batch1","","-1","tol_feedback","","","true","","1000","1000","500","","","","","","-1","none","true","10018","26066","","","","","","","","","",""
"","","","","","html-button-response","103","370066","0.0-2.0-27.0","63bb4ea524b89495f4bad8af","A3","batch1","","2098.3000000044703","tol_trial_num","<div class = centerbox><p class = center-block-text>problem <strong>7</strong> out of 25 problems</p></div>","0","","","","","","","","","","","","","","","","","","","","","","","","",""
"","","","","","single-stim-button","104","381390","0.0-2.0-28.0-0.0","63bb4ea524b89495f4bad8af","A3","batch1","","11322","tol_tohand","","","","tol_peg_3","11322","11322","0","[[2,1,0],[0,0],[0]]","1","[[1,2,0],[3,0],[0]]","6","0","","","","","","5","","","","","","","","",""
"","","","","","single-stim-button","105","382374","0.0-2.0-28.0-1.0","63bb4ea524b89495f4bad8af","A3","batch1","","983","tol_toboard","","","","tol_peg_2","983","983","0","[[2,1,0],[3,0],[0]]","1","[[1,2,0],[3,0],[0]]","6","0","","","","","","5","","","","","","","","",""
"","","","","","single-stim-button","106","383759","0.0-2.0-28.1-0.1","63bb4ea524b89495f4bad8af","A3","batch1","","1384","tol_tohand","","","","tol_peg_1","1384","1384","0","[[2,0,0],[3,0],[0]]","2","[[1,2,0],[3,0],[0]]","6","0","","","","","","5","","","","","","","","",""
"","","","","","single-stim-button","107","385482","0.0-2.0-28.1-1.1","63bb4ea524b89495f4bad8af","A3","batch1","","1721","tol_toboard","","","","tol_peg_3","1721","1721","0","[[2,0,0],[3,0],[1]]","2","[[1,2,0],[3,0],[0]]","6","0","","","","","","5","","","","","","","","",""
"","","","","","single-stim-button","108","386538","0.0-2.0-28.2-0.2","63bb4ea524b89495f4bad8af","A3","batch1","","1056","tol_tohand","","","","tol_peg_1","1056","1056","0","[[0,0,0],[3,0],[1]]","3","[[1,2,0],[3,0],[0]]","6","0","","","","","","5","","","","","","","","",""
"","","","","","single-stim-button","109","387456","0.0-2.0-28.2-1.2","63bb4ea524b89495f4bad8af","A3","batch1","","916","tol_toboard","","","","tol_peg_2","916","916","0","[[0,0,0],[3,2],[1]]","3","[[1,2,0],[3,0],[0]]","6","0","","","","","","5","","","","","","","","",""
"","","","","","single-stim-button","110","388370","0.0-2.0-28.3-0.3","63bb4ea524b89495f4bad8af","A3","batch1","","913","tol_tohand","","","","tol_peg_3","913","913","0","[[0,0,0],[3,2],[0]]","4","[[1,2,0],[3,0],[0]]","6","0","","","","","","5","","","","","","","","",""
"","","","","","single-stim-button","111","389525","0.0-2.0-28.3-1.3","63bb4ea524b89495f4bad8af","A3","batch1","","1153","tol_toboard","","","","tol_peg_1","1153","1153","0","[[1,0,0],[3,2],[0]]","4","[[1,2,0],[3,0],[0]]","6","0","","","","","","5","","","","","","","","",""
"","","","","","single-stim-button","112","390332","0.0-2.0-28.4-0.4","63bb4ea524b89495f4bad8af","A3","batch1","","805","tol_tohand","","","","tol_peg_2","805","805","0","[[1,0,0],[3,0],[0]]","5","[[1,2,0],[3,0],[0]]","6","0","","","","","","5","","","","","","","","",""
"","","","","","single-stim-button","113","391169","0.0-2.0-28.4-1.4","63bb4ea524b89495f4bad8af","A3","batch1","","836","tol_toboard","","","","tol_peg_1","836","836","0","[[1,2,0],[3,0],[0]]","5","[[1,2,0],[3,0],[0]]","6","0","","","","","","5","","","","","","","","",""
"","","","","","poldrack-single-stim","114","392174","0.0-2.0-29.0","63bb4ea524b89495f4bad8af","A3","batch1","","-1","tol_feedback","","","true","","1000","1000","500","","","","","","-1","none","true","11322","15480","","","","","","","","","",""
"","","","","","html-button-response","115","393371","0.0-2.0-30.0","63bb4ea524b89495f4bad8af","A3","batch1","","1195.4000000059605","tol_trial_num","<div class = centerbox><p class = center-block-text>problem <strong>8</strong> out of 25 problems</p></div>","0","","","","","","","","","","","","","","","","","","","","","","","","",""
"","","","","","single-stim-button","116","397065","0.0-2.0-31.0-0.0","63bb4ea524b89495f4bad8af","A3","batch1","","3693","tol_tohand","","","","tol_peg_3","3693","3693","0","[[0,0,0],[2,3],[0]]","1","[[1,2,0],[3,0],[0]]","7","0","","","","","","4","","","","","","","","",""
"","","","","","single-stim-button","117","397961","0.0-2.0-31.0-1.0","63bb4ea524b89495f4bad8af","A3","batch1","","896","tol_toboard","","","","tol_peg_1","896","896","0","[[1,0,0],[2,3],[0]]","1","[[1,2,0],[3,0],[0]]","7","0","","","","","","4","","","","","","","","",""
"","","","","","single-stim-button","118","399167","0.0-2.0-31.1-0.1","63bb4ea524b89495f4bad8af","A3","batch1","","1204","tol_tohand","","","","tol_peg_2","1204","1204","0","[[1,0,0],[2,0],[0]]","2","[[1,2,0],[3,0],[0]]","7","0","","","","","","4","","","","","","","","",""
"","","","","","single-stim-button","119","400182","0.0-2.0-31.1-1.1","63bb4ea524b89495f4bad8af","A3","batch1","","1014","tol_toboard","","","","tol_peg_3","1014","1014","0","[[1,0,0],[2,0],[3]]","2","[[1,2,0],[3,0],[0]]","7","0","","","","","","4","","","","","","","","",""
"","","","","","single-stim-button","120","401079","0.0-2.0-31.2-0.2","63bb4ea524b89495f4bad8af","A3","batch1","","895","tol_tohand","","","","tol_peg_2","895","895","0","[[1,0,0],[0,0],[3]]","3","[[1,2,0],[3,0],[0]]","7","0","","","","","","4","","","","","","","","",""
"","","","","","single-stim-button","121","402125","0.0-2.0-31.2-1.2","63bb4ea524b89495f4bad8af","A3","batch1","","1044","tol_toboard","","","","tol_peg_1","1044","1044","0","[[1,2,0],[0,0],[3]]","3","[[1,2,0],[3,0],[0]]","7","0","","","","","","4","","","","","","","","",""
"","","","","","single-stim-button","122","403639","0.0-2.0-31.3-0.3","63bb4ea524b89495f4bad8af","A3","batch1","","1513","tol_tohand","","","","tol_peg_3","1513","1513","0","[[1,2,0],[0,0],[0]]","4","[[1,2,0],[3,0],[0]]","7","0","","","","","","4","","","","","","","","",""
"","","","","","single-stim-button","123","404864","0.0-2.0-31.3-1.3","63bb4ea524b89495f4bad8af","A3","batch1","","1223","tol_toboard","","","","tol_peg_2","1223","1223","0","[[1,2,0],[3,0],[0]]","4","[[1,2,0],[3,0],[0]]","7","0","","","","","","4","","","","","","","","",""
"","","","","","poldrack-single-stim","124","405871","0.0-2.0-32.0","63bb4ea524b89495f4bad8af","A3","batch1","","-1","tol_feedback","","","true","","1000","1000","500","","","","","","-1","none","true","3693","7305","","","","","","","","","",""
"","","","","","html-button-response","125","407375","0.0-2.0-33.0","63bb4ea524b89495f4bad8af","A3","batch1","","1502.7000000029802","tol_trial_num","<div class = centerbox><p class = center-block-text>problem <strong>9</strong> out of 25 problems</p></div>","0","","","","","","","","","","","","","","","","","","","","","","","","",""
"","","","","","single-stim-button","126","421012","0.0-2.0-34.0-0.0","63bb4ea524b89495f4bad8af","A3","batch1","","13635","tol_tohand","","","","tol_peg_1","13635","13635","0","[[3,0,0],[0,0],[1]]","1","[[2,1,0],[3,0],[0]]","8","0","","","","","","6","","","","","","","","",""
"","","","","","single-stim-button","127","423112","0.0-2.0-34.0-1.0","63bb4ea524b89495f4bad8af","A3","batch1","","2098","tol_toboard","","","","tol_peg_2","2098","2098","0","[[3,0,0],[2,0],[1]]","1","[[2,1,0],[3,0],[0]]","8","0","","","","","","6","","","","","","","","",""
"","","","","","single-stim-button","128","424757","0.0-2.0-34.1-0.1","63bb4ea524b89495f4bad8af","A3","batch1","","1645","tol_tohand","","","","tol_peg_1","1645","1645","0","[[0,0,0],[2,0],[1]]","2","[[2,1,0],[3,0],[0]]","8","0","","","","","","6","","","","","","","","",""
"","","","","","single-stim-button","129","425973","0.0-2.0-34.1-1.1","63bb4ea524b89495f4bad8af","A3","batch1","","1214","tol_toboard","","","","tol_peg_2","1214","1214","0","[[0,0,0],[2,3],[1]]","2","[[2,1,0],[3,0],[0]]","8","0","","","","","","6","","","","","","","","",""
"","","","","","single-stim-button","130","429479","0.0-2.0-34.2-0.2","63bb4ea524b89495f4bad8af","A3","batch1","","3505","tol_tohand","","","","tol_peg_2","3505","3505","0","[[0,0,0],[2,0],[1]]","3","[[2,1,0],[3,0],[0]]","8","0","","","","","","6","","","","","","","","",""
"","","","","","single-stim-button","131","430625","0.0-2.0-34.2-1.2","63bb4ea524b89495f4bad8af","A3","batch1","","1145","tol_toboard","","","","tol_peg_1","1145","1145","0","[[3,0,0],[2,0],[1]]","3","[[2,1,0],[3,0],[0]]","8","0","","","","","","6","","","","","","","","",""
"","","","","","single-stim-button","132","431572","0.0-2.0-34.3-0.3","63bb4ea524b89495f4bad8af","A3","batch1","","945","tol_tohand","","","","tol_peg_3","945","945","0","[[3,0,0],[2,0],[0]]","4","[[2,1,0],[3,0],[0]]","8","0","","","","","","6","","","","","","","","",""
"","","","","","single-stim-button","133","432618","0.0-2.0-34.3-1.3","63bb4ea524b89495f4bad8af","A3","batch1","","1044","tol_toboard","","","","tol_peg_2","1044","1044","0","[[3,0,0],[2,1],[0]]","4","[[2,1,0],[3,0],[0]]","8","0","","","","","","6","","","","","","","","",""
"","","","","","single-stim-button","134","433882","0.0-2.0-34.4-0.4","63bb4ea524b89495f4bad8af","A3","batch1","","1264","tol_tohand","","","","tol_peg_1","1264","1264","0","[[0,0,0],[2,1],[0]]","5","[[2,1,0],[3,0],[0]]","8","0","","","","","","6","","","","","","","","",""
"","","","","","single-stim-button","135","434998","0.0-2.0-34.4-1.4","63bb4ea524b89495f4bad8af","A3","batch1","","1115","tol_toboard","","","","tol_peg_3","1115","1115","0","[[0,0,0],[2,1],[3]]","5","[[2,1,0],[3,0],[0]]","8","0","","","","","","6","","","","","","","","",""
"","","","","","single-stim-button","136","439212","0.0-2.0-34.5-0.5","63bb4ea524b89495f4bad8af","A3","batch1","","4213","tol_tohand","","","","tol_peg_3","4213","4213","0","[[0,0,0],[2,1],[0]]","6","[[2,1,0],[3,0],[0]]","8","0","","","","","","6","","","","","","","","",""
"","","","","","single-stim-button","137","440846","0.0-2.0-34.5-1.5","63bb4ea524b89495f4bad8af","A3","batch1","","1632","tol_toboard","","","","tol_peg_1","1632","1632","0","[[3,0,0],[2,1],[0]]","6","[[2,1,0],[3,0],[0]]","8","0","","","","","","6","","","","","","","","",""
"","","","","","single-stim-button","138","441823","0.0-2.0-34.6-0.6","63bb4ea524b89495f4bad8af","A3","batch1","","976","tol_tohand","","","","tol_peg_2","976","976","0","[[3,0,0],[2,0],[0]]","7","[[2,1,0],[3,0],[0]]","8","0","","","","","","6","","","","","","","","",""
"","","","","","single-stim-button","139","442648","0.0-2.0-34.6-1.6","63bb4ea524b89495f4bad8af","A3","batch1","","824","tol_toboard","","","","tol_peg_3","824","824","0","[[3,0,0],[2,0],[1]]","7","[[2,1,0],[3,0],[0]]","8","0","","","","","","6","","","","","","","","",""
"","","","","","single-stim-button","140","444531","0.0-2.0-34.7-0.7","63bb4ea524b89495f4bad8af","A3","batch1","","1881","tol_tohand","","","","tol_peg_2","1881","1881","0","[[3,0,0],[0,0],[1]]","8","[[2,1,0],[3,0],[0]]","8","0","","","","","","6","","","","","","","","",""
"","","","","","single-stim-button","141","450030","0.0-2.0-34.7-1.7","63bb4ea524b89495f4bad8af","A3","batch1","","5498","tol_toboard","","","","tol_peg_2","5498","5498","0","[[3,0,0],[2,0],[1]]","8","[[2,1,0],[3,0],[0]]","8","0","","","","","","6","","","","","","","","",""
"","","","","","single-stim-button","142","450955","0.0-2.0-34.8-0.8","63bb4ea524b89495f4bad8af","A3","batch1","","924","tol_tohand","","","","tol_peg_3","924","924","0","[[3,0,0],[2,0],[0]]","9","[[2,1,0],[3,0],[0]]","8","0","","","","","","6","","","","","","","","",""
"","","","","","single-stim-button","143","452041","0.0-2.0-34.8-1.8","63bb4ea524b89495f4bad8af","A3","batch1","","1084","tol_toboard","","","","tol_peg_2","1084","1084","0","[[3,0,0],[2,1],[0]]","9","[[2,1,0],[3,0],[0]]","8","0","","","","","","6","","","","","","","","",""
"","","","","","single-stim-button","144","452787","0.0-2.0-34.9-0.9","63bb4ea524b89495f4bad8af","A3","batch1","","745","tol_tohand","","","","tol_peg_1","745","745","0","[[0,0,0],[2,1],[0]]","10","[[2,1,0],[3,0],[0]]","8","0","","","","","","6","","","","","","","","",""
"","","","","","single-stim-button","145","454012","0.0-2.0-34.9-1.9","63bb4ea524b89495f4bad8af","A3","batch1","","1224","tol_toboard","","","","tol_peg_3","1224","1224","0","[[0,0,0],[2,1],[3]]","10","[[2,1,0],[3,0],[0]]","8","0","","","","","","6","","","","","","","","",""
"","","","","","single-stim-button","146","455176","0.0-2.0-34.10-0.10","63bb4ea524b89495f4bad8af","A3","batch1","","1163","tol_tohand","","","","tol_peg_2","1163","1163","0","[[0,0,0],[2,0],[3]]","11","[[2,1,0],[3,0],[0]]","8","0","","","","","","6","","","","","","","","",""
"","","","","","single-stim-button","147","456341","0.0-2.0-34.10-1.10","63bb4ea524b89495f4bad8af","A3","batch1","","1164","tol_toboard","","","","tol_peg_1","1164","1164","0","[[1,0,0],[2,0],[3]]","11","[[2,1,0],[3,0],[0]]","8","0","","","","","","6","","","","","","","","",""
"","","","","","single-stim-button","148","457316","0.0-2.0-34.11-0.11","63bb4ea524b89495f4bad8af","A3","batch1","","975","tol_tohand","","","","tol_peg_2","975","975","0","[[1,0,0],[0,0],[3]]","12","[[2,1,0],[3,0],[0]]","8","0","","","","","","6","","","","","","","","",""
"","","","","","single-stim-button","149","458521","0.0-2.0-34.11-1.11","63bb4ea524b89495f4bad8af","A3","batch1","","1204","tol_toboard","","","","tol_peg_1","1204","1204","0","[[1,2,0],[0,0],[3]]","12","[[2,1,0],[3,0],[0]]","8","0","","","","","","6","","","","","","","","",""
"","","","","","single-stim-button","150","459576","0.0-2.0-34.12-0.12","63bb4ea524b89495f4bad8af","A3","batch1","","1054","tol_tohand","","","","tol_peg_3","1054","1054","0","[[1,2,0],[0,0],[0]]","13","[[2,1,0],[3,0],[0]]","8","0","","","","","","6","","","","","","","","",""
"","","","","","single-stim-button","151","460403","0.0-2.0-34.12-1.12","63bb4ea524b89495f4bad8af","A3","batch1","","825","tol_toboard","","","","tol_peg_2","825","825","0","[[1,2,0],[3,0],[0]]","13","[[2,1,0],[3,0],[0]]","8","0","","","","","","6","","","","","","","","",""
"","","","","","single-stim-button","152","461438","0.0-2.0-34.13-0.13","63bb4ea524b89495f4bad8af","A3","batch1","","1034","tol_tohand","","","","tol_peg_1","1034","1034","0","[[1,0,0],[3,0],[0]]","14","[[2,1,0],[3,0],[0]]","8","0","","","","","","6","","","","","","","","",""
"","","","","","single-stim-button","153","463784","0.0-2.0-34.13-1.13","63bb4ea524b89495f4bad8af","A3","batch1","","2345","tol_toboard","","","","tol_peg_2","2345","2345","0","[[1,0,0],[3,2],[0]]","14","[[2,1,0],[3,0],[0]]","8","0","","","","","","6","","","","","","","","",""
"","","","","","single-stim-button","154","464544","0.0-2.0-34.14-0.14","63bb4ea524b89495f4bad8af","A3","batch1","","760","tol_tohand","","","","tol_peg_1","760","760","0","[[0,0,0],[3,2],[0]]","15","[[2,1,0],[3,0],[0]]","8","0","","","","","","6","","","","","","","","",""
"","","","","","single-stim-button","155","465867","0.0-2.0-34.14-1.14","63bb4ea524b89495f4bad8af","A3","batch1","","1322","tol_toboard","","","","tol_peg_3","1322","1322","0","[[0,0,0],[3,2],[1]]","15","[[2,1,0],[3,0],[0]]","8","0","","","","","","6","","","","","","","","",""
"","","","","","single-stim-button","156","466594","0.0-2.0-34.15-0.15","63bb4ea524b89495f4bad8af","A3","batch1","","726","tol_tohand","","","","tol_peg_2","726","726","0","[[0,0,0],[3,0],[1]]","16","[[2,1,0],[3,0],[0]]","8","0","","","","","","6","","","","","","","","",""
"","","","","","single-stim-button","157","467690","0.0-2.0-34.15-1.15","63bb4ea524b89495f4bad8af","A3","batch1","","1094","tol_toboard","","","","tol_peg_1","1094","1094","0","[[2,0,0],[3,0],[1]]","16","[[2,1,0],[3,0],[0]]","8","0","","","","","","6","","","","","","","","",""
"","","","","","single-stim-button","158","468735","0.0-2.0-34.16-0.16","63bb4ea524b89495f4bad8af","A3","batch1","","1044","tol_tohand","","","","tol_peg_3","1044","1044","0","[[2,0,0],[3,0],[0]]","17","[[2,1,0],[3,0],[0]]","8","0","","","","","","6","","","","","","","","",""
"","","","","","single-stim-button","159","470009","0.0-2.0-34.16-1.16","63bb4ea524b89495f4bad8af","A3","batch1","","1273","tol_toboard","","","","tol_peg_1","1273","1273","0","[[2,1,0],[3,0],[0]]","17","[[2,1,0],[3,0],[0]]","8","0","","","","","","6","","","","","","","","",""
"","","","","","poldrack-single-stim","160","471015","0.0-2.0-35.0","63bb4ea524b89495f4bad8af","A3","batch1","","-1","tol_feedback","","","true","","1000","1000","500","","","","","","-1","none","true","13635","36489","","","","","","","","","",""
"","","","","","html-button-response","161","473115","0.0-2.0-36.0","63bb4ea524b89495f4bad8af","A3","batch1","","2099","tol_trial_num","<div class = centerbox><p class = center-block-text>problem <strong>10</strong> out of 25 problems</p></div>","0","","","","","","","","","","","","","","","","","","","","","","","","",""
"","","","","","single-stim-button","162","478721","0.0-2.0-37.0-0.0","63bb4ea524b89495f4bad8af","A3","batch1","","5604","tol_tohand","","","","tol_peg_2","5604","5604","0","[[3,0,0],[0,0],[2]]","1","[[3,0,0],[2,1],[0]]","9","0","","","","","","3","","","","","","","","",""
"","","","","","single-stim-button","163","479804","0.0-2.0-37.0-1.0","63bb4ea524b89495f4bad8af","A3","batch1","","1082","tol_toboard","","","","tol_peg_1","1082","1082","0","[[3,1,0],[0,0],[2]]","1","[[3,0,0],[2,1],[0]]","9","0","","","","","","3","","","","","","","","",""
"","","","","","single-stim-button","164","480879","0.0-2.0-37.1-0.1","63bb4ea524b89495f4bad8af","A3","batch1","","1074","tol_tohand","","","","tol_peg_3","1074","1074","0","[[3,1,0],[0,0],[0]]","2","[[3,0,0],[2,1],[0]]","9","0","","","","","","3","","","","","","","","",""
"","","","","","single-stim-button","165","482103","0.0-2.0-37.1-1.1","63bb4ea524b89495f4bad8af","A3","batch1","","1223","tol_toboard","","","","tol_peg_2","1223","1223","0","[[3,1,0],[2,0],[0]]","2","[[3,0,0],[2,1],[0]]","9","0","","","","","","3","","","","","","","","",""
"","","","","","single-stim-button","166","482890","0.0-2.0-37.2-0.2","63bb4ea524b89495f4bad8af","A3","batch1","","786","tol_tohand","","","","tol_peg_1","786","786","0","[[3,0,0],[2,0],[0]]","3","[[3,0,0],[2,1],[0]]","9","0","","","","","","3","","","","","","","","",""
"","","","","","single-stim-button","167","483747","0.0-2.0-37.2-1.2","63bb4ea524b89495f4bad8af","A3","batch1","","855","tol_toboard","","","","tol_peg_2","855","855","0","[[3,0,0],[2,1],[0]]","3","[[3,0,0],[2,1],[0]]","9","0","","","","","","3","","","","","","","","",""
"","","","","","poldrack-single-stim","168","484751","0.0-2.0-38.0","63bb4ea524b89495f4bad8af","A3","batch1","","-1","tol_feedback","","","true","","1000","1000","500","","","","","","-1","none","true","5604","7464","","","","","","","","","",""
"","","","","","html-button-response","169","485848","0.0-2.0-39.0","63bb4ea524b89495f4bad8af","A3","batch1","","1095.7000000029802","tol_trial_num","<div class = centerbox><p class = center-block-text>problem <strong>11</strong> out of 25 problems</p></div>","0","","","","","","","","","","","","","","","","","","","","","","","","",""
"","","","","","single-stim-button","170","490874","0.0-2.0-40.0-0.0","63bb4ea524b89495f4bad8af","A3","batch1","","5025","tol_tohand","","","","tol_peg_2","5025","5025","0","[[1,2,0],[0,0],[0]]","1","[[2,0,0],[1,3],[0]]","10","0","","","","","","6","","","","","","","","",""
"","","","","","single-stim-button","171","492049","0.0-2.0-40.0-1.0","63bb4ea524b89495f4bad8af","A3","batch1","","1173","tol_toboard","","","","tol_peg_3","1173","1173","0","[[1,2,0],[0,0],[3]]","1","[[2,0,0],[1,3],[0]]","10","0","","","","","","6","","","","","","","","",""
"","","","","","single-stim-button","172","493263","0.0-2.0-40.1-0.1","63bb4ea524b89495f4bad8af","A3","batch1","","1214","tol_tohand","","","","tol_peg_1","1214","1214","0","[[1,0,0],[0,0],[3]]","2","[[2,0,0],[1,3],[0]]","10","0","","","","","","6","","","","","","","","",""
"","","","","","single-stim-button","173","496648","0.0-2.0-40.1-1.1","63bb4ea524b89495f4bad8af","A3","batch1","","3384","tol_toboard","","","","tol_peg_2","3384","3384","0","[[1,0,0],[2,0],[3]]","2","[[2,0,0],[1,3],[0]]","10","0","","","","","","6","","","","","","","","",""
"","","","","","single-stim-button","174","497444","0.0-2.0-40.2-0.2","63bb4ea524b89495f4bad8af","A3","batch1","","795","tol_tohand","","","","tol_peg_3","795","795","0","[[1,0,0],[2,0],[0]]","3","[[2,0,0],[1,3],[0]]","10","0","","","","","","6","","","","","","","","",""
"","","","","","single-stim-button","175","498670","0.0-2.0-40.2-1.2","63bb4ea524b89495f4bad8af","A3","batch1","","1224","tol_toboard","","","","tol_peg_2","1224","1224","0","[[1,0,0],[2,3],[0]]","3","[[2,0,0],[1,3],[0]]","10","0","","","","","","6","","","","","","","","",""
"","","","","","single-stim-button","176","499555","0.0-2.0-40.3-0.3","63bb4ea524b89495f4bad8af","A3","batch1","","884","tol_tohand","","","","tol_peg_1","884","884","0","[[0,0,0],[2,3],[0]]","4","[[2,0,0],[1,3],[0]]","10","0","","","","","","6","","","","","","","","",""
"","","","","","single-stim-button","177","500680","0.0-2.0-40.3-1.3","63bb4ea524b89495f4bad8af","A3","batch1","","1124","tol_toboard","","","","tol_peg_3","1124","1124","0","[[0,0,0],[2,3],[1]]","4","[[2,0,0],[1,3],[0]]","10","0","","","","","","6","","","","","","","","",""
"","","","","","single-stim-button","178","502025","0.0-2.0-40.4-0.4","63bb4ea524b89495f4bad8af","A3","batch1","","1344","tol_tohand","","","","tol_peg_2","1344","1344","0","[[0,0,0],[2,0],[1]]","5","[[2,0,0],[1,3],[0]]","10","0","","","","","","6","","","","","","","","",""
"","","","","","single-stim-button","179","503099","0.0-2.0-40.4-1.4","63bb4ea524b89495f4bad8af","A3","batch1","","1072","tol_toboard","","","","tol_peg_1","1072","1072","0","[[3,0,0],[2,0],[1]]","5","[[2,0,0],[1,3],[0]]","10","0","","","","","","6","","","","","","","","",""
"","","","","","single-stim-button","180","506813","0.0-2.0-40.5-0.5","63bb4ea524b89495f4bad8af","A3","batch1","","3712","tol_tohand","","","","tol_peg_2","3712","3712","0","[[3,0,0],[0,0],[1]]","6","[[2,0,0],[1,3],[0]]","10","0","","","","","","6","","","","","","","","",""
"","","","","","single-stim-button","181","508685","0.0-2.0-40.5-1.5","63bb4ea524b89495f4bad8af","A3","batch1","","1870","tol_toboard","","","","tol_peg_1","1870","1870","0","[[3,2,0],[0,0],[1]]","6","[[2,0,0],[1,3],[0]]","10","0","","","","","","6","","","","","","","","",""
"","","","","","single-stim-button","182","509541","0.0-2.0-40.6-0.6","63bb4ea524b89495f4bad8af","A3","batch1","","855","tol_tohand","","","","tol_peg_3","855","855","0","[[3,2,0],[0,0],[0]]","7","[[2,0,0],[1,3],[0]]","10","0","","","","","","6","","","","","","","","",""
"","","","","","single-stim-button","183","510477","0.0-2.0-40.6-1.6","63bb4ea524b89495f4bad8af","A3","batch1","","935","tol_toboard","","","","tol_peg_2","935","935","0","[[3,2,0],[1,0],[0]]","7","[[2,0,0],[1,3],[0]]","10","0","","","","","","6","","","","","","","","",""
"","","","","","single-stim-button","184","512050","0.0-2.0-40.7-0.7","63bb4ea524b89495f4bad8af","A3","batch1","","1572","tol_tohand","","","","tol_peg_1","1572","1572","0","[[3,0,0],[1,0],[0]]","8","[[2,0,0],[1,3],[0]]","10","0","","","","","","6","","","","","","","","",""
"","","","","","single-stim-button","185","513006","0.0-2.0-40.7-1.7","63bb4ea524b89495f4bad8af","A3","batch1","","954","tol_toboard","","","","tol_peg_3","954","954","0","[[3,0,0],[1,0],[2]]","8","[[2,0,0],[1,3],[0]]","10","0","","","","","","6","","","","","","","","",""
"","","","","","single-stim-button","186","513762","0.0-2.0-40.8-0.8","63bb4ea524b89495f4bad8af","A3","batch1","","755","tol_tohand","","","","tol_peg_1","755","755","0","[[0,0,0],[1,0],[2]]","9","[[2,0,0],[1,3],[0]]","10","0","","","","","","6","","","","","","","","",""
"","","","","","single-stim-button","187","514810","0.0-2.0-40.8-1.8","63bb4ea524b89495f4bad8af","A3","batch1","","1047","tol_toboard","","","","tol_peg_2","1047","1047","0","[[0,0,0],[1,3],[2]]","9","[[2,0,0],[1,3],[0]]","10","0","","","","","","6","","","","","","","","",""
"","","","","","single-stim-button","188","515594","0.0-2.0-40.9-0.9","63bb4ea524b89495f4bad8af","A3","batch1","","783","tol_tohand","","","","tol_peg_3","783","783","0","[[0,0,0],[1,3],[0]]","10","[[2,0,0],[1,3],[0]]","10","0","","","","","","6","","","","","","","","",""
"","","","","","single-stim-button","189","516739","0.0-2.0-40.9-1.9","63bb4ea524b89495f4bad8af","A3","batch1","","1143","tol_toboard","","","","tol_peg_1","1143","1143","0","[[2,0,0],[1,3],[0]]","10","[[2,0,0],[1,3],[0]]","10","0","","","","","","6","","","","","","","","",""
"","","","","","poldrack-single-stim","190","517743","0.0-2.0-41.0","63bb4ea524b89495f4bad8af","A3","batch1","","-1","tol_feedback","","","true","","1000","1000","500","","","","","","-1","none","true","5025","16939","","","","","","","","","",""
"","","","","","html-button-response","191","519238","0.0-2.0-42.0","63bb4ea524b89495f4bad8af","A3","batch1","","1493.8999999985099","tol_trial_num","<div class = centerbox><p class = center-block-text>problem <strong>12</strong> out of 25 problems</p></div>","0","","","","","","","","","","","","","","","","","","","","","","","","",""
"","","","","","single-stim-button","192","527065","0.0-2.0-43.0-0.0","63bb4ea524b89495f4bad8af","A3","batch1","","7825","tol_tohand","","","","tol_peg_1","7825","7825","0","[[1,0,0],[3,0],[0]]","1","[[2,3,0],[0,0],[1]]","11","0","","","","","","4","","","","","","","","",""
"","","","","","single-stim-button","193","528060","0.0-2.0-43.0-1.0","63bb4ea524b89495f4bad8af","A3","batch1","","995","tol_toboard","","","","tol_peg_2","995","995","0","[[1,0,0],[3,2],[0]]","1","[[2,3,0],[0,0],[1]]","11","0","","","","","","4","","","","","","","","",""
"","","","","","single-stim-button","194","529096","0.0-2.0-43.1-0.1","63bb4ea524b89495f4bad8af","A3","batch1","","1034","tol_tohand","","","","tol_peg_1","1034","1034","0","[[0,0,0],[3,2],[0]]","2","[[2,3,0],[0,0],[1]]","11","0","","","","","","4","","","","","","","","",""
"","","","","","single-stim-button","195","530013","0.0-2.0-43.1-1.1","63bb4ea524b89495f4bad8af","A3","batch1","","917","tol_toboard","","","","tol_peg_3","917","917","0","[[0,0,0],[3,2],[1]]","2","[[2,3,0],[0,0],[1]]","11","0","","","","","","4","","","","","","","","",""
"","","","","","single-stim-button","196","530769","0.0-2.0-43.2-0.2","63bb4ea524b89495f4bad8af","A3","batch1","","754","tol_tohand","","","","tol_peg_2","754","754","0","[[0,0,0],[3,0],[1]]","3","[[2,3,0],[0,0],[1]]","11","0","","","","","","4","","","","","","","","",""
"","","","","","single-stim-button","197","531715","0.0-2.0-43.2-1.2","63bb4ea524b89495f4bad8af","A3","batch1","","945","tol_toboard","","","","tol_peg_1","945","945","0","[[2,0,0],[3,0],[1]]","3","[[2,3,0],[0,0],[1]]","11","0","","","","","","4","","","","","","","","",""
"","","","","","single-stim-button","198","532452","0.0-2.0-43.3-0.3","63bb4ea524b89495f4bad8af","A3","batch1","","736","tol_tohand","","","","tol_peg_2","736","736","0","[[2,0,0],[0,0],[1]]","4","[[2,3,0],[0,0],[1]]","11","0","","","","","","4","","","","","","","","",""
"","","","","","single-stim-button","199","533478","0.0-2.0-43.3-1.3","63bb4ea524b89495f4bad8af","A3","batch1","","1024","tol_toboard","","","","tol_peg_1","1024","1024","0","[[2,3,0],[0,0],[1]]","4","[[2,3,0],[0,0],[1]]","11","0","","","","","","4","","","","","","","","",""
"","","","","","poldrack-single-stim","200","534486","0.0-2.0-44.0","63bb4ea524b89495f4bad8af","A3","batch1","","-1","tol_feedback","","","true","","1000","1000","500","","","","","","-1","none","true","7825","10349","","","","","","","","","",""
"","","","","","html-button-response","201","535817","0.0-2.0-45.0","63bb4ea524b89495f4bad8af","A3","batch1","","1330.1000000014901","tol_trial_num","<div class = centerbox><p class = center-block-text>problem <strong>13</strong> out of 25 problems</p></div>","0","","","","","","","","","","","","","","","","","","","","","","","","",""
"","","","","","single-stim-button","202","539485","0.0-2.0-46.0-0.0","63bb4ea524b89495f4bad8af","A3","batch1","","3666","tol_tohand","","","","tol_peg_2","3666","3666","0","[[1,2,0],[0,0],[0]]","1","[[0,0,0],[2,3],[1]]","12","0","","","","","","4","","","","","","","","",""
"","","","","","single-stim-button","203","540480","0.0-2.0-46.0-1.0","63bb4ea524b89495f4bad8af","A3","batch1","","994","tol_toboard","","","","tol_peg_3","994","994","0","[[1,2,0],[0,0],[3]]","1","[[0,0,0],[2,3],[1]]","12","0","","","","","","4","","","","","","","","",""
"","","","","","single-stim-button","204","541276","0.0-2.0-46.1-0.1","63bb4ea524b89495f4bad8af","A3","batch1","","795","tol_tohand","","","","tol_peg_1","795","795","0","[[1,0,0],[0,0],[3]]","2","[[0,0,0],[2,3],[1]]","12","0","","","","","","4","","","","","","","","",""
"","","","","","single-stim-button","205","542054","0.0-2.0-46.1-1.1","63bb4ea524b89495f4bad8af","A3","batch1","","776","tol_toboard","","","","tol_peg_2","776","776","0","[[1,0,0],[2,0],[3]]","2","[[0,0,0],[2,3],[1]]","12","0","","","","","","4","","","","","","","","",""
"","","","","","single-stim-button","206","543278","0.0-2.0-46.2-0.2","63bb4ea524b89495f4bad8af","A3","batch1","","1223","tol_tohand","","","","tol_peg_3","1223","1223","0","[[1,0,0],[2,0],[0]]","3","[[0,0,0],[2,3],[1]]","12","0","","","","","","4","","","","","","","","",""
"","","","","","single-stim-button","207","544234","0.0-2.0-46.2-1.2","63bb4ea524b89495f4bad8af","A3","batch1","","954","tol_toboard","","","","tol_peg_2","954","954","0","[[1,0,0],[2,3],[0]]","3","[[0,0,0],[2,3],[1]]","12","0","","","","","","4","","","","","","","","",""
"","","","","","single-stim-button","208","545061","0.0-2.0-46.3-0.3","63bb4ea524b89495f4bad8af","A3","batch1","","825","tol_tohand","","","","tol_peg_1","825","825","0","[[0,0,0],[2,3],[0]]","4","[[0,0,0],[2,3],[1]]","12","0","","","","","","4","","","","","","","","",""
"","","","","","single-stim-button","209","546127","0.0-2.0-46.3-1.3","63bb4ea524b89495f4bad8af","A3","batch1","","1066","tol_toboard","","","","tol_peg_3","1066","1066","0","[[0,0,0],[2,3],[1]]","4","[[0,0,0],[2,3],[1]]","12","0","","","","","","4","","","","","","","","",""
"","","","","","poldrack-single-stim","210","547134","0.0-2.0-47.0","63bb4ea524b89495f4bad8af","A3","batch1","","-1","tol_feedback","","","true","","1000","1000","500","","","","","","-1","none","true","3666","6509","","","","","","","","","",""
"","","","","","html-button-response","211","551635","0.0-2.0-48.0","63bb4ea524b89495f4bad8af","A3","batch1","","4499","attention_check","<p class = block-text>How many balls are in your board<br></p>","1","true","","","","","","","","","","","","","","","","","","","","","","","",""
"","","","","","html-button-response","212","553625","0.0-2.0-49.0","63bb4ea524b89495f4bad8af","A3","batch1","","1988","tol_trial_num","<div class = centerbox><p class = center-block-text>problem <strong>14</strong> out of 25 problems</p></div>","0","","","","","","","","","","","","","","","","","","","","","","","","",""
"","","","","","single-stim-button","213","558915","0.0-2.0-50.0-0.0","63bb4ea524b89495f4bad8af","A3","batch1","","5287","tol_tohand","","","","tol_peg_1","5287","5287","0","[[2,0,0],[3,0],[0]]","1","[[1,2,0],[3,0],[0]]","13","0","","","","","","4","","","","","","","","",""
"","","","","","single-stim-button","214","561153","0.0-2.0-50.0-1.0","63bb4ea524b89495f4bad8af","A3","batch1","","2236","tol_toboard","","","","tol_peg_2","2236","2236","0","[[2,0,0],[3,1],[0]]","1","[[1,2,0],[3,0],[0]]","13","0","","","","","","4","","","","","","","","",""
"","","","","","single-stim-button","215","562061","0.0-2.0-50.1-0.1","63bb4ea524b89495f4bad8af","A3","batch1","","907","tol_tohand","","","","tol_peg_1","907","907","0","[[0,0,0],[3,1],[0]]","2","[[1,2,0],[3,0],[0]]","13","0","","","","","","4","","","","","","","","",""
"","","","","","single-stim-button","216","563026","0.0-2.0-50.1-1.1","63bb4ea524b89495f4bad8af","A3","batch1","","964","tol_toboard","","","","tol_peg_3","964","964","0","[[0,0,0],[3,1],[2]]","2","[[1,2,0],[3,0],[0]]","13","0","","","","","","4","","","","","","","","",""
"","","","","","single-stim-button","217","564011","0.0-2.0-50.2-0.2","63bb4ea524b89495f4bad8af","A3","batch1","","985","tol_tohand","","","","tol_peg_2","985","985","0","[[0,0,0],[3,0],[2]]","3","[[1,2,0],[3,0],[0]]","13","0","","","","","","4","","","","","","","","",""
"","","","","","single-stim-button","218","565017","0.0-2.0-50.2-1.2","63bb4ea524b89495f4bad8af","A3","batch1","","1005","tol_toboard","","","","tol_peg_1","1005","1005","0","[[1,0,0],[3,0],[2]]","3","[[1,2,0],[3,0],[0]]","13","0","","","","","","4","","","","","","","","",""
"","","","","","single-stim-button","219","565863","0.0-2.0-50.3-0.3","63bb4ea524b89495f4bad8af","A3","batch1","","845","tol_tohand","","","","tol_peg_3","845","845","0","[[1,0,0],[3,0],[0]]","4","[[1,2,0],[3,0],[0]]","13","0","","","","","","4","","","","","","","","",""
"","","","","","single-stim-button","220","566978","0.0-2.0-50.3-1.3","63bb4ea524b89495f4bad8af","A3","batch1","","1113","tol_toboard","","","","tol_peg_1","1113","1113","0","[[1,2,0],[3,0],[0]]","4","[[1,2,0],[3,0],[0]]","13","0","","","","","","4","","","","","","","","",""
"","","","","","poldrack-single-stim","221","567982","0.0-2.0-51.0","63bb4ea524b89495f4bad8af","A3","batch1","","-1","tol_feedback","","","true","","1000","1000","500","","","","","","-1","none","true","5287","8024","","","","","","","","","",""
"","","","","","html-button-response","222","569199","0.0-2.0-52.0","63bb4ea524b89495f4bad8af","A3","batch1","","1215","tol_trial_num","<div class = centerbox><p class = center-block-text>problem <strong>15</strong> out of 25 problems</p></div>","0","","","","","","","","","","","","","","","","","","","","","","","","",""
"","","","","","single-stim-button","223","574019","0.0-2.0-53.0-0.0","63bb4ea524b89495f4bad8af","A3","batch1","","4818","tol_tohand","","","","tol_peg_1","4818","4818","0","[[1,0,0],[3,0],[0]]","1","[[2,0,0],[3,0],[1]]","14","0","","","","","","3","","","","","","","","",""
"","","","","","single-stim-button","224","574964","0.0-2.0-53.0-1.0","63bb4ea524b89495f4bad8af","A3","batch1","","945","tol_toboard","","","","tol_peg_2","945","945","0","[[1,0,0],[3,2],[0]]","1","[[2,0,0],[3,0],[1]]","14","0","","","","","","3","","","","","","","","",""
"","","","","","single-stim-button","225","575890","0.0-2.0-53.1-0.1","63bb4ea524b89495f4bad8af","A3","batch1","","924","tol_tohand","","","","tol_peg_1","924","924","0","[[0,0,0],[3,2],[0]]","2","[[2,0,0],[3,0],[1]]","14","0","","","","","","3","","","","","","","","",""
"","","","","","single-stim-button","226","577145","0.0-2.0-53.1-1.1","63bb4ea524b89495f4bad8af","A3","batch1","","1253","tol_toboard","","","","tol_peg_3","1253","1253","0","[[0,0,0],[3,2],[1]]","2","[[2,0,0],[3,0],[1]]","14","0","","","","","","3","","","","","","","","",""
"","","","","","single-stim-button","227","578121","0.0-2.0-53.2-0.2","63bb4ea524b89495f4bad8af","A3","batch1","","974","tol_tohand","","","","tol_peg_2","974","974","0","[[0,0,0],[3,0],[1]]","3","[[2,0,0],[3,0],[1]]","14","0","","","","","","3","","","","","","","","",""
"","","","","","single-stim-button","228","579198","0.0-2.0-53.2-1.2","63bb4ea524b89495f4bad8af","A3","batch1","","1076","tol_toboard","","","","tol_peg_1","1076","1076","0","[[2,0,0],[3,0],[1]]","3","[[2,0,0],[3,0],[1]]","14","0","","","","","","3","","","","","","","","",""
"","","","","","poldrack-single-stim","229","580207","0.0-2.0-54.0","63bb4ea524b89495f4bad8af","A3","batch1","","-1","tol_feedback","","","true","","1000","1000","500","","","","","","-1","none","true","4818","6716","","","","","","","","","",""
"","","","","","html-button-response","230","581178","0.0-2.0-55.0","63bb4ea524b89495f4bad8af","A3","batch1","","969.7000000029802","tol_trial_num","<div class = centerbox><p class = center-block-text>problem <strong>16</strong> out of 25 problems</p></div>","0","","","","","","","","","","","","","","","","","","","","","","","","",""
"","","","","","single-stim-button","231","588329","0.0-2.0-56.0-0.0","63bb4ea524b89495f4bad8af","A3","batch1","","7149","tol_tohand","","","","tol_peg_3","7149","7149","0","[[0,0,0],[2,3],[0]]","1","[[2,3,0],[1,0],[0]]","15","0","","","","","","7","","","","","","","","",""
"","","","","","single-stim-button","232","589594","0.0-2.0-56.0-1.0","63bb4ea524b89495f4bad8af","A3","batch1","","1265","tol_toboard","","","","tol_peg_1","1265","1265","0","[[1,0,0],[2,3],[0]]","1","[[2,3,0],[1,0],[0]]","15","0","","","","","","7","","","","","","","","",""
"","","","","","single-stim-button","233","590519","0.0-2.0-56.1-0.1","63bb4ea524b89495f4bad8af","A3","batch1","","923","tol_tohand","","","","tol_peg_2","923","923","0","[[1,0,0],[2,0],[0]]","2","[[2,3,0],[1,0],[0]]","15","0","","","","","","7","","","","","","","","",""
"","","","","","single-stim-button","234","591305","0.0-2.0-56.1-1.1","63bb4ea524b89495f4bad8af","A3","batch1","","786","tol_toboard","","","","tol_peg_3","786","786","0","[[1,0,0],[2,0],[3]]","2","[[2,3,0],[1,0],[0]]","15","0","","","","","","7","","","","","","","","",""
"","","","","","single-stim-button","235","593367","0.0-2.0-56.2-0.2","63bb4ea524b89495f4bad8af","A3","batch1","","2060","tol_tohand","","","","tol_peg_2","2060","2060","0","[[1,0,0],[0,0],[3]]","3","[[2,3,0],[1,0],[0]]","15","0","","","","","","7","","","","","","","","",""
"","","","","","single-stim-button","236","598126","0.0-2.0-56.2-1.2","63bb4ea524b89495f4bad8af","A3","batch1","","4758","tol_toboard","","","","tol_peg_2","4758","4758","0","[[1,0,0],[2,0],[3]]","3","[[2,3,0],[1,0],[0]]","15","0","","","","","","7","","","","","","","","",""
"","","","","","single-stim-button","237","598372","0.0-2.0-56.3-0.3","63bb4ea524b89495f4bad8af","A3","batch1","","245","tol_tohand","","","","tol_peg_2","245","245","0","[[1,0,0],[0,0],[3]]","4","[[2,3,0],[1,0],[0]]","15","0","","","","","","7","","","","","","","","",""
"","","","","","single-stim-button","238","600994","0.0-2.0-56.3-1.3","63bb4ea524b89495f4bad8af","A3","batch1","","2620","tol_toboard","","","","tol_peg_2","2620","2620","0","[[1,0,0],[2,0],[3]]","4","[[2,3,0],[1,0],[0]]","15","0","","","","","","7","","","","","","","","",""
"","","","","","single-stim-button","239","601840","0.0-2.0-56.4-0.4","63bb4ea524b89495f4bad8af","A3","batch1","","846","tol_tohand","","","","tol_peg_3","846","846","0","[[1,0,0],[2,0],[0]]","5","[[2,3,0],[1,0],[0]]","15","0","","","","","","7","","","","","","","","",""
"","","","","","single-stim-button","240","602847","0.0-2.0-56.4-1.4","63bb4ea524b89495f4bad8af","A3","batch1","","1006","tol_toboard","","","","tol_peg_2","1006","1006","0","[[1,0,0],[2,3],[0]]","5","[[2,3,0],[1,0],[0]]","15","0","","","","","","7","","","","","","","","",""
"","","","","","single-stim-button","241","603604","0.0-2.0-56.5-0.5","63bb4ea524b89495f4bad8af","A3","batch1","","755","tol_tohand","","","","tol_peg_1","755","755","0","[[0,0,0],[2,3],[0]]","6","[[2,3,0],[1,0],[0]]","15","0","","","","","","7","","","","","","","","",""
"","","","","","single-stim-button","242","605184","0.0-2.0-56.5-1.5","63bb4ea524b89495f4bad8af","A3","batch1","","1580","tol_toboard","","","","tol_peg_3","1580","1580","0","[[0,0,0],[2,3],[1]]","6","[[2,3,0],[1,0],[0]]","15","0","","","","","","7","","","","","","","","",""
"","","","","","single-stim-button","243","608740","0.0-2.0-56.6-0.6","63bb4ea524b89495f4bad8af","A3","batch1","","3554","tol_tohand","","","","tol_peg_2","3554","3554","0","[[0,0,0],[2,0],[1]]","7","[[2,3,0],[1,0],[0]]","15","0","","","","","","7","","","","","","","","",""
"","","","","","single-stim-button","244","609706","0.0-2.0-56.6-1.6","63bb4ea524b89495f4bad8af","A3","batch1","","965","tol_toboard","","","","tol_peg_1","965","965","0","[[3,0,0],[2,0],[1]]","7","[[2,3,0],[1,0],[0]]","15","0","","","","","","7","","","","","","","","",""
"","","","","","single-stim-button","245","610751","0.0-2.0-56.7-0.7","63bb4ea524b89495f4bad8af","A3","batch1","","1044","tol_tohand","","","","tol_peg_2","1044","1044","0","[[3,0,0],[0,0],[1]]","8","[[2,3,0],[1,0],[0]]","15","0","","","","","","7","","","","","","","","",""
"","","","","","single-stim-button","246","611767","0.0-2.0-56.7-1.7","63bb4ea524b89495f4bad8af","A3","batch1","","1014","tol_toboard","","","","tol_peg_1","1014","1014","0","[[3,2,0],[0,0],[1]]","8","[[2,3,0],[1,0],[0]]","15","0","","","","","","7","","","","","","","","",""
"","","","","","single-stim-button","247","612712","0.0-2.0-56.8-0.8","63bb4ea524b89495f4bad8af","A3","batch1","","945","tol_tohand","","","","tol_peg_3","945","945","0","[[3,2,0],[0,0],[0]]","9","[[2,3,0],[1,0],[0]]","15","0","","","","","","7","","","","","","","","",""
"","","","","","single-stim-button","248","614047","0.0-2.0-56.8-1.8","63bb4ea524b89495f4bad8af","A3","batch1","","1333","tol_toboard","","","","tol_peg_2","1333","1333","0","[[3,2,0],[1,0],[0]]","9","[[2,3,0],[1,0],[0]]","15","0","","","","","","7","","","","","","","","",""
"","","","","","single-stim-button","249","615003","0.0-2.0-56.9-0.9","63bb4ea524b89495f4bad8af","A3","batch1","","955","tol_tohand","","","","tol_peg_1","955","955","0","[[3,0,0],[1,0],[0]]","10","[[2,3,0],[1,0],[0]]","15","0","","","","","","7","","","","","","","","",""
"","","","","","single-stim-button","250","616009","0.0-2.0-56.9-1.9","63bb4ea524b89495f4bad8af","A3","batch1","","1006","tol_toboard","","","","tol_peg_2","1006","1006","0","[[3,0,0],[1,2],[0]]","10","[[2,3,0],[1,0],[0]]","15","0","","","","","","7","","","","","","","","",""
"","","","","","single-stim-button","251","617055","0.0-2.0-56.10-0.10","63bb4ea524b89495f4bad8af","A3","batch1","","1041","tol_tohand","","","","tol_peg_1","1041","1041","0","[[0,0,0],[1,2],[0]]","11","[[2,3,0],[1,0],[0]]","15","0","","","","","","7","","","","","","","","",""
"","","","","","single-stim-button","252","618021","0.0-2.0-56.10-1.10","63bb4ea524b89495f4bad8af","A3","batch1","","965","tol_toboard","","","","tol_peg_3","965","965","0","[[0,0,0],[1,2],[3]]","11","[[2,3,0],[1,0],[0]]","15","0","","","","","","7","","","","","","","","",""
"","","","","","single-stim-button","253","618879","0.0-2.0-56.11-0.11","63bb4ea524b89495f4bad8af","A3","batch1","","857","tol_tohand","","","","tol_peg_2","857","857","0","[[0,0,0],[1,0],[3]]","12","[[2,3,0],[1,0],[0]]","15","0","","","","","","7","","","","","","","","",""
"","","","","","single-stim-button","254","619774","0.0-2.0-56.11-1.11","63bb4ea524b89495f4bad8af","A3","batch1","","895","tol_toboard","","","","tol_peg_1","895","895","0","[[2,0,0],[1,0],[3]]","12","[[2,3,0],[1,0],[0]]","15","0","","","","","","7","","","","","","","","",""
"","","","","","single-stim-button","255","620640","0.0-2.0-56.12-0.12","63bb4ea524b89495f4bad8af","A3","batch1","","864","tol_tohand","","","","tol_peg_3","864","864","0","[[2,0,0],[1,0],[0]]","13","[[2,3,0],[1,0],[0]]","15","0","","","","","","7","","","","","","","","",""
"","","","","","single-stim-button","256","622183","0.0-2.0-56.12-1.12","63bb4ea524b89495f4bad8af","A3","batch1","","1542","tol_toboard","","","","tol_peg_1","1542","1542","0","[[2,3,0],[1,0],[0]]","13","[[2,3,0],[1,0],[0]]","15","0","","","","","","7","","","","","","","","",""
"","","","","","poldrack-single-stim","257","623190","0.0-2.0-57.0","63bb4ea524b89495f4bad8af","A3","batch1","","-1","tol_feedback","","","true","","1000","1000","500","","","","","","-1","none","true","7149","21238","","","","","","","","","",""
"","","","","","html-button-response","258","625948","0.0-2.0-58.0","63bb4ea524b89495f4bad8af","A3","batch1","","2756","tol_trial_num","<div class = centerbox><p class = center-block-text>problem <strong>17</strong> out of 25 problems</p></div>","0","","","","","","","","","","","","","","","","","","","","","","","","",""
"","","","","","single-stim-button","259","629981","0.0-2.0-59.0-0.0","63bb4ea524b89495f4bad8af","A3","batch1","","4032","tol_tohand","","","","tol_peg_1","4032","4032","0","[[1,0,0],[3,0],[0]]","1","[[3,1,0],[2,0],[0]]","16","0","","","","","","5","","","","","","","","",""
"","","","","","single-stim-button","260","634083","0.0-2.0-59.0-1.0","63bb4ea524b89495f4bad8af","A3","batch1","","4097","tol_toboard","","","","tol_peg_2","4097","4097","0","[[1,0,0],[3,2],[0]]","1","[[3,1,0],[2,0],[0]]","16","0","","","","","","5","","","","","","","","",""
"","","","","","single-stim-button","261","635068","0.0-2.0-59.1-0.1","63bb4ea524b89495f4bad8af","A3","batch1","","984","tol_tohand","","","","tol_peg_1","984","984","0","[[0,0,0],[3,2],[0]]","2","[[3,1,0],[2,0],[0]]","16","0","","","","","","5","","","","","","","","",""
"","","","","","single-stim-button","262","636163","0.0-2.0-59.1-1.1","63bb4ea524b89495f4bad8af","A3","batch1","","1094","tol_toboard","","","","tol_peg_3","1094","1094","0","[[0,0,0],[3,2],[1]]","2","[[3,1,0],[2,0],[0]]","16","0","","","","","","5","","","","","","","","",""
"","","","","","single-stim-button","263","637290","0.0-2.0-59.2-0.2","63bb4ea524b89495f4bad8af","A3","batch1","","1126","tol_tohand","","","","tol_peg_2","1126","1126","0","[[0,0,0],[3,0],[1]]","3","[[3,1,0],[2,0],[0]]","16","0","","","","","","5","","","","","","","","",""
"","","","","","single-stim-button","264","646391","0.0-2.0-59.2-1.2","63bb4ea524b89495f4bad8af","A3","batch1","","9099","tol_toboard","","","","tol_peg_1","9099","9099","0","[[2,0,0],[3,0],[1]]","3","[[3,1,0],[2,0],[0]]","16","0","","","","","","5","","","","","","","","",""
"","","","","","single-stim-button","265","647485","0.0-2.0-59.3-0.3","63bb4ea524b89495f4bad8af","A3","batch1","","1093","tol_tohand","","","","tol_peg_2","1093","1093","0","[[2,0,0],[0,0],[1]]","4","[[3,1,0],[2,0],[0]]","16","0","","","","","","5","","","","","","","","",""
"","","","","","single-stim-button","266","649406","0.0-2.0-59.3-1.3","63bb4ea524b89495f4bad8af","A3","batch1","","1919","tol_toboard","","","","tol_peg_1","1919","1919","0","[[2,3,0],[0,0],[1]]","4","[[3,1,0],[2,0],[0]]","16","0","","","","","","5","","","","","","","","",""
"","","","","","single-stim-button","267","653586","0.0-2.0-59.4-0.4","63bb4ea524b89495f4bad8af","A3","batch1","","4179","tol_tohand","","","","tol_peg_3","4179","4179","0","[[2,3,0],[0,0],[0]]","5","[[3,1,0],[2,0],[0]]","16","0","","","","","","5","","","","","","","","",""
"","","","","","single-stim-button","268","657273","0.0-2.0-59.4-1.4","63bb4ea524b89495f4bad8af","A3","batch1","","3686","tol_toboard","","","","tol_peg_2","3686","3686","0","[[2,3,0],[1,0],[0]]","5","[[3,1,0],[2,0],[0]]","16","0","","","","","","5","","","","","","","","",""
"","","","","","single-stim-button","269","658246","0.0-2.0-59.5-0.5","63bb4ea524b89495f4bad8af","A3","batch1","","972","tol_tohand","","","","tol_peg_1","972","972","0","[[2,0,0],[1,0],[0]]","6","[[3,1,0],[2,0],[0]]","16","0","","","","","","5","","","","","","","","",""
"","","","","","single-stim-button","270","659242","0.0-2.0-59.5-1.5","63bb4ea524b89495f4bad8af","A3","batch1","","988","tol_toboard","","","","tol_peg_2","988","988","0","[[2,0,0],[1,3],[0]]","6","[[3,1,0],[2,0],[0]]","16","0","","","","","","5","","","","","","","","",""
"","","","","","single-stim-button","271","660497","0.0-2.0-59.6-0.6","63bb4ea524b89495f4bad8af","A3","batch1","","1253","tol_tohand","","","","tol_peg_1","1253","1253","0","[[0,0,0],[1,3],[0]]","7","[[3,1,0],[2,0],[0]]","16","0","","","","","","5","","","","","","","","",""
"","","","","","single-stim-button","272","661672","0.0-2.0-59.6-1.6","63bb4ea524b89495f4bad8af","A3","batch1","","1174","tol_toboard","","","","tol_peg_3","1174","1174","0","[[0,0,0],[1,3],[2]]","7","[[3,1,0],[2,0],[0]]","16","0","","","","","","5","","","","","","","","",""
"","","","","","single-stim-button","273","662527","0.0-2.0-59.7-0.7","63bb4ea524b89495f4bad8af","A3","batch1","","855","tol_tohand","","","","tol_peg_2","855","855","0","[[0,0,0],[1,0],[2]]","8","[[3,1,0],[2,0],[0]]","16","0","","","","","","5","","","","","","","","",""
"","","","","","single-stim-button","274","663573","0.0-2.0-59.7-1.7","63bb4ea524b89495f4bad8af","A3","batch1","","1044","tol_toboard","","","","tol_peg_1","1044","1044","0","[[3,0,0],[1,0],[2]]","8","[[3,1,0],[2,0],[0]]","16","0","","","","","","5","","","","","","","","",""
"","","","","","single-stim-button","275","664380","0.0-2.0-59.8-0.8","63bb4ea524b89495f4bad8af","A3","batch1","","807","tol_tohand","","","","tol_peg_2","807","807","0","[[3,0,0],[0,0],[2]]","9","[[3,1,0],[2,0],[0]]","16","0","","","","","","5","","","","","","","","",""
"","","","","","single-stim-button","276","665376","0.0-2.0-59.8-1.8","63bb4ea524b89495f4bad8af","A3","batch1","","994","tol_toboard","","","","tol_peg_1","994","994","0","[[3,1,0],[0,0],[2]]","9","[[3,1,0],[2,0],[0]]","16","0","","","","","","5","","","","","","","","",""
"","","","","","single-stim-button","277","666522","0.0-2.0-59.9-0.9","63bb4ea524b89495f4bad8af","A3","batch1","","1144","tol_tohand","","","","tol_peg_3","1144","1144","0","[[3,1,0],[0,0],[0]]","10","[[3,1,0],[2,0],[0]]","16","0","","","","","","5","","","","","","","","",""
"","","","","","single-stim-button","278","667606","0.0-2.0-59.9-1.9","63bb4ea524b89495f4bad8af","A3","batch1","","1083","tol_toboard","","","","tol_peg_2","1083","1083","0","[[3,1,0],[2,0],[0]]","10","[[3,1,0],[2,0],[0]]","16","0","","","","","","5","","","","","","","","",""
"","","","","","poldrack-single-stim","279","668610","0.0-2.0-60.0","63bb4ea524b89495f4bad8af","A3","batch1","","-1","tol_feedback","","","true","","1000","1000","500","","","","","","-1","none","true","4032","16445","","","","","","","","","",""
"","","","","","html-button-response","280","669677","0.0-2.0-61.0","63bb4ea524b89495f4bad8af","A3","batch1","","1064.9000000059605","tol_trial_num","<div class = centerbox><p class = center-block-text>problem <strong>18</strong> out of 25 problems</p></div>","0","","","","","","","","","","","","","","","","","","","","","","","","",""
"","","","","","single-stim-button","281","675798","0.0-2.0-62.0-0.0","63bb4ea524b89495f4bad8af","A3","batch1","","6119","tol_tohand","","","","tol_peg_1","6119","6119","0","[[1,0,0],[3,0],[0]]","1","[[3,0,0],[2,0],[1]]","17","0","","","","","","5","","","","","","","","",""
"","","","","","single-stim-button","282","676754","0.0-2.0-62.0-1.0","63bb4ea524b89495f4bad8af","A3","batch1","","954","tol_toboard","","","","tol_peg_2","954","954","0","[[1,0,0],[3,2],[0]]","1","[[3,0,0],[2,0],[1]]","17","0","","","","","","5","","","","","","","","",""
"","","","","","single-stim-button","283","677531","0.0-2.0-62.1-0.1","63bb4ea524b89495f4bad8af","A3","batch1","","776","tol_tohand","","","","tol_peg_1","776","776","0","[[0,0,0],[3,2],[0]]","2","[[3,0,0],[2,0],[1]]","17","0","","","","","","5","","","","","","","","",""
"","","","","","single-stim-button","284","678637","0.0-2.0-62.1-1.1","63bb4ea524b89495f4bad8af","A3","batch1","","1105","tol_toboard","","","","tol_peg_3","1105","1105","0","[[0,0,0],[3,2],[1]]","2","[[3,0,0],[2,0],[1]]","17","0","","","","","","5","","","","","","","","",""
"","","","","","single-stim-button","285","680657","0.0-2.0-62.2-0.2","63bb4ea524b89495f4bad8af","A3","batch1","","2019","tol_tohand","","","","tol_peg_2","2019","2019","0","[[0,0,0],[3,0],[1]]","3","[[3,0,0],[2,0],[1]]","17","0","","","","","","5","","","","","","","","",""
"","","","","","single-stim-button","286","686095","0.0-2.0-62.2-1.2","63bb4ea524b89495f4bad8af","A3","batch1","","5437","tol_toboard","","","","tol_peg_2","5437","5437","0","[[0,0,0],[3,2],[1]]","3","[[3,0,0],[2,0],[1]]","17","0","","","","","","5","","","","","","","","",""
"","","","","","single-stim-button","287","686992","0.0-2.0-62.3-0.3","63bb4ea524b89495f4bad8af","A3","batch1","","895","tol_tohand","","","","tol_peg_3","895","895","0","[[0,0,0],[3,2],[0]]","4","[[3,0,0],[2,0],[1]]","17","0","","","","","","5","","","","","","","","",""
"","","","","","single-stim-button","288","688247","0.0-2.0-62.3-1.3","63bb4ea524b89495f4bad8af","A3","batch1","","1253","tol_toboard","","","","tol_peg_1","1253","1253","0","[[1,0,0],[3,2],[0]]","4","[[3,0,0],[2,0],[1]]","17","0","","","","","","5","","","","","","","","",""
"","","","","","single-stim-button","289","689083","0.0-2.0-62.4-0.4","63bb4ea524b89495f4bad8af","A3","batch1","","834","tol_tohand","","","","tol_peg_2","834","834","0","[[1,0,0],[3,0],[0]]","5","[[3,0,0],[2,0],[1]]","17","0","","","","","","5","","","","","","","","",""
"","","","","","single-stim-button","290","690168","0.0-2.0-62.4-1.4","63bb4ea524b89495f4bad8af","A3","batch1","","1084","tol_toboard","","","","tol_peg_3","1084","1084","0","[[1,0,0],[3,0],[2]]","5","[[3,0,0],[2,0],[1]]","17","0","","","","","","5","","","","","","","","",""
"","","","","","single-stim-button","291","695237","0.0-2.0-62.5-0.5","63bb4ea524b89495f4bad8af","A3","batch1","","5067","tol_tohand","","","","tol_peg_2","5067","5067","0","[[1,0,0],[0,0],[2]]","6","[[3,0,0],[2,0],[1]]","17","0","","","","","","5","","","","","","","","",""
"","","","","","single-stim-button","292","696322","0.0-2.0-62.5-1.5","63bb4ea524b89495f4bad8af","A3","batch1","","1084","tol_toboard","","","","tol_peg_1","1084","1084","0","[[1,3,0],[0,0],[2]]","6","[[3,0,0],[2,0],[1]]","17","0","","","","","","5","","","","","","","","",""
"","","","","","single-stim-button","293","697697","0.0-2.0-62.6-0.6","63bb4ea524b89495f4bad8af","A3","batch1","","1373","tol_tohand","","","","tol_peg_3","1373","1373","0","[[1,3,0],[0,0],[0]]","7","[[3,0,0],[2,0],[1]]","17","0","","","","","","5","","","","","","","","",""
"","","","","","single-stim-button","294","698642","0.0-2.0-62.6-1.6","63bb4ea524b89495f4bad8af","A3","batch1","","945","tol_toboard","","","","tol_peg_2","945","945","0","[[1,3,0],[2,0],[0]]","7","[[3,0,0],[2,0],[1]]","17","0","","","","","","5","","","","","","","","",""
"","","","","","single-stim-button","295","700038","0.0-2.0-62.7-0.7","63bb4ea524b89495f4bad8af","A3","batch1","","1389","tol_tohand","","","","tol_peg_1","1389","1389","0","[[1,0,0],[2,0],[0]]","8","[[3,0,0],[2,0],[1]]","17","0","","","","","","5","","","","","","","","",""
"","","","","","single-stim-button","296","701162","0.0-2.0-62.7-1.7","63bb4ea524b89495f4bad8af","A3","batch1","","1123","tol_toboard","","","","tol_peg_2","1123","1123","0","[[1,0,0],[2,3],[0]]","8","[[3,0,0],[2,0],[1]]","17","0","","","","","","5","","","","","","","","",""
"","","","","","single-stim-button","297","701958","0.0-2.0-62.8-0.8","63bb4ea524b89495f4bad8af","A3","batch1","","795","tol_tohand","","","","tol_peg_1","795","795","0","[[0,0,0],[2,3],[0]]","9","[[3,0,0],[2,0],[1]]","17","0","","","","","","5","","","","","","","","",""
"","","","","","single-stim-button","298","702924","0.0-2.0-62.8-1.8","63bb4ea524b89495f4bad8af","A3","batch1","","966","tol_toboard","","","","tol_peg_3","966","966","0","[[0,0,0],[2,3],[1]]","9","[[3,0,0],[2,0],[1]]","17","0","","","","","","5","","","","","","","","",""
"","","","","","single-stim-button","299","703701","0.0-2.0-62.9-0.9","63bb4ea524b89495f4bad8af","A3","batch1","","776","tol_tohand","","","","tol_peg_2","776","776","0","[[0,0,0],[2,0],[1]]","10","[[3,0,0],[2,0],[1]]","17","0","","","","","","5","","","","","","","","",""
"","","","","","single-stim-button","300","704637","0.0-2.0-62.9-1.9","63bb4ea524b89495f4bad8af","A3","batch1","","935","tol_toboard","","","","tol_peg_1","935","935","0","[[3,0,0],[2,0],[1]]","10","[[3,0,0],[2,0],[1]]","17","0","","","","","","5","","","","","","","","",""
"","","","","","poldrack-single-stim","301","705646","0.0-2.0-63.0","63bb4ea524b89495f4bad8af","A3","batch1","","-1","tol_feedback","","","true","","1000","1000","500","","","","","","-1","none","true","6119","20043","","","","","","","","","",""
"","","","","","html-button-response","302","708074","0.0-2.0-64.0","63bb4ea524b89495f4bad8af","A3","batch1","","2425.89999999851","tol_trial_num","<div class = centerbox><p class = center-block-text>problem <strong>19</strong> out of 25 problems</p></div>","0","","","","","","","","","","","","","","","","","","","","","","","","",""
"","","","","","single-stim-button","303","746770","0.0-2.0-65.0-0.0","63bb4ea524b89495f4bad8af","A3","batch1","","38696","tol_tohand","","","","tol_peg_2","38696","38696","0","[[1,2,0],[0,0],[0]]","1","[[0,0,0],[1,2],[3]]","18","0","","","","","","7","","","","","","","","",""
"","","","","","single-stim-button","304","750246","0.0-2.0-65.0-1.0","63bb4ea524b89495f4bad8af","A3","batch1","","3474","tol_toboard","","","","tol_peg_3","3474","3474","0","[[1,2,0],[0,0],[3]]","1","[[0,0,0],[1,2],[3]]","18","0","","","","","","7","","","","","","","","",""
"","","","","","single-stim-button","305","755615","0.0-2.0-65.1-0.1","63bb4ea524b89495f4bad8af","A3","batch1","","5367","tol_tohand","","","","tol_peg_1","5367","5367","0","[[1,0,0],[0,0],[3]]","2","[[0,0,0],[1,2],[3]]","18","0","","","","","","7","","","","","","","","",""
"","","","","","single-stim-button","306","756680","0.0-2.0-65.1-1.1","63bb4ea524b89495f4bad8af","A3","batch1","","1064","tol_toboard","","","","tol_peg_2","1064","1064","0","[[1,0,0],[2,0],[3]]","2","[[0,0,0],[1,2],[3]]","18","0","","","","","","7","","","","","","","","",""
"","","","","","single-stim-button","307","757428","0.0-2.0-65.2-0.2","63bb4ea524b89495f4bad8af","A3","batch1","","747","tol_tohand","","","","tol_peg_1","747","747","0","[[0,0,0],[2,0],[3]]","3","[[0,0,0],[1,2],[3]]","18","0","","","","","","7","","","","","","","","",""
"","","","","","single-stim-button","308","761692","0.0-2.0-65.2-1.2","63bb4ea524b89495f4bad8af","A3","batch1","","4262","tol_toboard","","","","tol_peg_2","4262","4262","0","[[0,0,0],[2,1],[3]]","3","[[0,0,0],[1,2],[3]]","18","0","","","","","","7","","","","","","","","",""
"","","","","","single-stim-button","309","762526","0.0-2.0-65.3-0.3","63bb4ea524b89495f4bad8af","A3","batch1","","834","tol_tohand","","","","tol_peg_3","834","834","0","[[0,0,0],[2,1],[0]]","4","[[0,0,0],[1,2],[3]]","18","0","","","","","","7","","","","","","","","",""
"","","","","","single-stim-button","310","764040","0.0-2.0-65.3-1.3","63bb4ea524b89495f4bad8af","A3","batch1","","1512","tol_toboard","","","","tol_peg_1","1512","1512","0","[[3,0,0],[2,1],[0]]","4","[[0,0,0],[1,2],[3]]","18","0","","","","","","7","","","","","","","","",""
"","","","","","single-stim-button","311","765039","0.0-2.0-65.4-0.4","63bb4ea524b89495f4bad8af","A3","batch1","","997","tol_tohand","","","","tol_peg_2","997","997","0","[[3,0,0],[2,0],[0]]","5","[[0,0,0],[1,2],[3]]","18","0","","","","","","7","","","","","","","","",""
"","","","","","single-stim-button","312","765883","0.0-2.0-65.4-1.4","63bb4ea524b89495f4bad8af","A3","batch1","","843","tol_toboard","","","","tol_peg_3","843","843","0","[[3,0,0],[2,0],[1]]","5","[[0,0,0],[1,2],[3]]","18","0","","","","","","7","","","","","","","","",""
"","","","","","single-stim-button","313","766859","0.0-2.0-65.5-0.5","63bb4ea524b89495f4bad8af","A3","batch1","","975","tol_tohand","","","","tol_peg_2","975","975","0","[[3,0,0],[0,0],[1]]","6","[[0,0,0],[1,2],[3]]","18","0","","","","","","7","","","","","","","","",""
"","","","","","single-stim-button","314","767905","0.0-2.0-65.5-1.5","63bb4ea524b89495f4bad8af","A3","batch1","","1044","tol_toboard","","","","tol_peg_1","1044","1044","0","[[3,2,0],[0,0],[1]]","6","[[0,0,0],[1,2],[3]]","18","0","","","","","","7","","","","","","","","",""
"","","","","","single-stim-button","315","769576","0.0-2.0-65.6-0.6","63bb4ea524b89495f4bad8af","A3","batch1","","1671","tol_tohand","","","","tol_peg_3","1671","1671","0","[[3,2,0],[0,0],[0]]","7","[[0,0,0],[1,2],[3]]","18","0","","","","","","7","","","","","","","","",""
"","","","","","single-stim-button","316","770592","0.0-2.0-65.6-1.6","63bb4ea524b89495f4bad8af","A3","batch1","","1014","tol_toboard","","","","tol_peg_2","1014","1014","0","[[3,2,0],[1,0],[0]]","7","[[0,0,0],[1,2],[3]]","18","0","","","","","","7","","","","","","","","",""
"","","","","","single-stim-button","317","771508","0.0-2.0-65.7-0.7","63bb4ea524b89495f4bad8af","A3","batch1","","916","tol_tohand","","","","tol_peg_1","916","916","0","[[3,0,0],[1,0],[0]]","8","[[0,0,0],[1,2],[3]]","18","0","","","","","","7","","","","","","","","",""
"","","","","","single-stim-button","318","772524","0.0-2.0-65.7-1.7","63bb4ea524b89495f4bad8af","A3","batch1","","1014","tol_toboard","","","","tol_peg_2","1014","1014","0","[[3,0,0],[1,2],[0]]","8","[[0,0,0],[1,2],[3]]","18","0","","","","","","7","","","","","","","","",""
"","","","","","single-stim-button","319","773201","0.0-2.0-65.8-0.8","63bb4ea524b89495f4bad8af","A3","batch1","","676","tol_tohand","","","","tol_peg_1","676","676","0","[[0,0,0],[1,2],[0]]","9","[[0,0,0],[1,2],[3]]","18","0","","","","","","7","","","","","","","","",""
"","","","","","single-stim-button","320","774227","0.0-2.0-65.8-1.8","63bb4ea524b89495f4bad8af","A3","batch1","","1023","tol_toboard","","","","tol_peg_3","1023","1023","0","[[0,0,0],[1,2],[3]]","9","[[0,0,0],[1,2],[3]]","18","0","","","","","","7","","","","","","","","",""
"","","","","","poldrack-single-stim","321","775230","0.0-2.0-66.0","63bb4ea524b89495f4bad8af","A3","batch1","","-1","tol_feedback","","","true","","1000","1000","500","","","","","","-1","none","true","38696","50879","","","","","","","","","",""
"","","","","","html-button-response","322","776407","0.0-2.0-67.0","63bb4ea524b89495f4bad8af","A3","batch1","","1175.7000000029802","tol_trial_num","<div class = centerbox><p class = center-block-text>problem <strong>20</strong> out of 25 problems</p></div>","0","","","","","","","","","","","","","","","","","","","","","","","","",""
"","","","","","single-stim-button","323","783799","0.0-2.0-68.0-0.0","63bb4ea524b89495f4bad8af","A3","batch1","","7390","tol_tohand","","","","tol_peg_2","7390","7390","0","[[1,2,0],[0,0],[0]]","1","[[2,1,0],[0,0],[3]]","19","0","","","","","","5","","","","","","","","",""
"","","","","","single-stim-button","324","785591","0.0-2.0-68.0-1.0","63bb4ea524b89495f4bad8af","A3","batch1","","1791","tol_toboard","","","","tol_peg_3","1791","1791","0","[[1,2,0],[0,0],[3]]","1","[[2,1,0],[0,0],[3]]","19","0","","","","","","5","","","","","","","","",""
"","","","","","single-stim-button","325","786957","0.0-2.0-68.1-0.1","63bb4ea524b89495f4bad8af","A3","batch1","","1364","tol_tohand","","","","tol_peg_1","1364","1364","0","[[1,0,0],[0,0],[3]]","2","[[2,1,0],[0,0],[3]]","19","0","","","","","","5","","","","","","","","",""
"","","","","","single-stim-button","326","788112","0.0-2.0-68.1-1.1","63bb4ea524b89495f4bad8af","A3","batch1","","1154","tol_toboard","","","","tol_peg_2","1154","1154","0","[[1,0,0],[2,0],[3]]","2","[[2,1,0],[0,0],[3]]","19","0","","","","","","5","","","","","","","","",""
"","","","","","single-stim-button","327","797070","0.0-2.0-68.2-0.2","63bb4ea524b89495f4bad8af","A3","batch1","","8957","tol_tohand","","","","tol_peg_3","8957","8957","0","[[1,0,0],[2,0],[0]]","3","[[2,1,0],[0,0],[3]]","19","0","","","","","","5","","","","","","","","",""
"","","","","","single-stim-button","328","798085","0.0-2.0-68.2-1.2","63bb4ea524b89495f4bad8af","A3","batch1","","1013","tol_toboard","","","","tol_peg_2","1013","1013","0","[[1,0,0],[2,3],[0]]","3","[[2,1,0],[0,0],[3]]","19","0","","","","","","5","","","","","","","","",""
"","","","","","single-stim-button","329","798992","0.0-2.0-68.3-0.3","63bb4ea524b89495f4bad8af","A3","batch1","","905","tol_tohand","","","","tol_peg_1","905","905","0","[[0,0,0],[2,3],[0]]","4","[[2,1,0],[0,0],[3]]","19","0","","","","","","5","","","","","","","","",""
"","","","","","single-stim-button","330","800038","0.0-2.0-68.3-1.3","63bb4ea524b89495f4bad8af","A3","batch1","","1045","tol_toboard","","","","tol_peg_3","1045","1045","0","[[0,0,0],[2,3],[1]]","4","[[2,1,0],[0,0],[3]]","19","0","","","","","","5","","","","","","","","",""
"","","","","","single-stim-button","331","801185","0.0-2.0-68.4-0.4","63bb4ea524b89495f4bad8af","A3","batch1","","1146","tol_tohand","","","","tol_peg_2","1146","1146","0","[[0,0,0],[2,0],[1]]","5","[[2,1,0],[0,0],[3]]","19","0","","","","","","5","","","","","","","","",""
"","","","","","single-stim-button","332","803148","0.0-2.0-68.4-1.4","63bb4ea524b89495f4bad8af","A3","batch1","","1962","tol_toboard","","","","tol_peg_1","1962","1962","0","[[3,0,0],[2,0],[1]]","5","[[2,1,0],[0,0],[3]]","19","0","","","","","","5","","","","","","","","",""
"","","","","","single-stim-button","333","803904","0.0-2.0-68.5-0.5","63bb4ea524b89495f4bad8af","A3","batch1","","756","tol_tohand","","","","tol_peg_2","756","756","0","[[3,0,0],[0,0],[1]]","6","[[2,1,0],[0,0],[3]]","19","0","","","","","","5","","","","","","","","",""
"","","","","","single-stim-button","334","810929","0.0-2.0-68.5-1.5","63bb4ea524b89495f4bad8af","A3","batch1","","7024","tol_toboard","","","","tol_peg_1","7024","7024","0","[[3,2,0],[0,0],[1]]","6","[[2,1,0],[0,0],[3]]","19","0","","","","","","5","","","","","","","","",""
"","","","","","single-stim-button","335","812014","0.0-2.0-68.6-0.6","63bb4ea524b89495f4bad8af","A3","batch1","","1084","tol_tohand","","","","tol_peg_3","1084","1084","0","[[3,2,0],[0,0],[0]]","7","[[2,1,0],[0,0],[3]]","19","0","","","","","","5","","","","","","","","",""
"","","","","","single-stim-button","336","813389","0.0-2.0-68.6-1.6","63bb4ea524b89495f4bad8af","A3","batch1","","1374","tol_toboard","","","","tol_peg_2","1374","1374","0","[[3,2,0],[1,0],[0]]","7","[[2,1,0],[0,0],[3]]","19","0","","","","","","5","","","","","","","","",""
"","","","","","single-stim-button","337","814655","0.0-2.0-68.7-0.7","63bb4ea524b89495f4bad8af","A3","batch1","","1264","tol_tohand","","","","tol_peg_1","1264","1264","0","[[3,0,0],[1,0],[0]]","8","[[2,1,0],[0,0],[3]]","19","0","","","","","","5","","","","","","","","",""
"","","","","","single-stim-button","338","815691","0.0-2.0-68.7-1.7","63bb4ea524b89495f4bad8af","A3","batch1","","1035","tol_toboard","","","","tol_peg_2","1035","1035","0","[[3,0,0],[1,2],[0]]","8","[[2,1,0],[0,0],[3]]","19","0","","","","","","5","","","","","","","","",""
"","","","","","single-stim-button","339","816398","0.0-2.0-68.8-0.8","63bb4ea524b89495f4bad8af","A3","batch1","","706","tol_tohand","","","","tol_peg_1","706","706","0","[[0,0,0],[1,2],[0]]","9","[[2,1,0],[0,0],[3]]","19","0","","","","","","5","","","","","","","","",""
"","","","","","single-stim-button","340","817326","0.0-2.0-68.8-1.8","63bb4ea524b89495f4bad8af","A3","batch1","","927","tol_toboard","","","","tol_peg_3","927","927","0","[[0,0,0],[1,2],[3]]","9","[[2,1,0],[0,0],[3]]","19","0","","","","","","5","","","","","","","","",""
"","","","","","single-stim-button","341","818170","0.0-2.0-68.9-0.9","63bb4ea524b89495f4bad8af","A3","batch1","","842","tol_tohand","","","","tol_peg_2","842","842","0","[[0,0,0],[1,0],[3]]","10","[[2,1,0],[0,0],[3]]","19","0","","","","","","5","","","","","","","","",""
"","","","","","single-stim-button","342","818996","0.0-2.0-68.9-1.9","63bb4ea524b89495f4bad8af","A3","batch1","","825","tol_toboard","","","","tol_peg_1","825","825","0","[[2,0,0],[1,0],[3]]","10","[[2,1,0],[0,0],[3]]","19","0","","","","","","5","","","","","","","","",""
"","","","","","single-stim-button","343","819693","0.0-2.0-68.10-0.10","63bb4ea524b89495f4bad8af","A3","batch1","","696","tol_tohand","","","","tol_peg_2","696","696","0","[[2,0,0],[0,0],[3]]","11","[[2,1,0],[0,0],[3]]","19","0","","","","","","5","","","","","","","","",""
"","","","","","single-stim-button","344","820649","0.0-2.0-68.10-1.10","63bb4ea524b89495f4bad8af","A3","batch1","","954","tol_toboard","","","","tol_peg_1","954","954","0","[[2,1,0],[0,0],[3]]","11","[[2,1,0],[0,0],[3]]","19","0","","","","","","5","","","","","","","","",""
"","","","","","poldrack-single-stim","345","821655","0.0-2.0-69.0","63bb4ea524b89495f4bad8af","A3","batch1","","-1","tol_feedback","","","true","","1000","1000","500","","","","","","-1","none","true","7390","25110","","","","","","","","","",""
"","","","","","html-button-response","346","822860","0.0-2.0-70.0","63bb4ea524b89495f4bad8af","A3","batch1","","1204.5","tol_trial_num","<div class = centerbox><p class = center-block-text>problem <strong>21</strong> out of 25 problems</p></div>","0","","","","","","","","","","","","","","","","","","","","","","","","",""
"","","","","","single-stim-button","347","826664","0.0-2.0-71.0-0.0","63bb4ea524b89495f4bad8af","A3","batch1","","3803","tol_tohand","","","","tol_peg_1","3803","3803","0","[[1,0,0],[3,0],[0]]","1","[[3,2,0],[0,0],[1]]","20","0","","","","","","6","","","","","","","","",""
"","","","","","single-stim-button","348","827868","0.0-2.0-71.0-1.0","63bb4ea524b89495f4bad8af","A3","batch1","","1203","tol_toboard","","","","tol_peg_2","1203","1203","0","[[1,0,0],[3,2],[0]]","1","[[3,2,0],[0,0],[1]]","20","0","","","","","","6","","","","","","","","",""
"","","","","","single-stim-button","349","828776","0.0-2.0-71.1-0.1","63bb4ea524b89495f4bad8af","A3","batch1","","906","tol_tohand","","","","tol_peg_1","906","906","0","[[0,0,0],[3,2],[0]]","2","[[3,2,0],[0,0],[1]]","20","0","","","","","","6","","","","","","","","",""
"","","","","","single-stim-button","350","829781","0.0-2.0-71.1-1.1","63bb4ea524b89495f4bad8af","A3","batch1","","1004","tol_toboard","","","","tol_peg_3","1004","1004","0","[[0,0,0],[3,2],[1]]","2","[[3,2,0],[0,0],[1]]","20","0","","","","","","6","","","","","","","","",""
"","","","","","single-stim-button","351","832660","0.0-2.0-71.2-0.2","63bb4ea524b89495f4bad8af","A3","batch1","","2879","tol_tohand","","","","tol_peg_3","2879","2879","0","[[0,0,0],[3,2],[0]]","3","[[3,2,0],[0,0],[1]]","20","0","","","","","","6","","","","","","","","",""
"","","","","","single-stim-button","352","833796","0.0-2.0-71.2-1.2","63bb4ea524b89495f4bad8af","A3","batch1","","1134","tol_toboard","","","","tol_peg_1","1134","1134","0","[[1,0,0],[3,2],[0]]","3","[[3,2,0],[0,0],[1]]","20","0","","","","","","6","","","","","","","","",""
"","","","","","single-stim-button","353","834502","0.0-2.0-71.3-0.3","63bb4ea524b89495f4bad8af","A3","batch1","","704","tol_tohand","","","","tol_peg_2","704","704","0","[[1,0,0],[3,0],[0]]","4","[[3,2,0],[0,0],[1]]","20","0","","","","","","6","","","","","","","","",""
"","","","","","single-stim-button","354","836414","0.0-2.0-71.3-1.3","63bb4ea524b89495f4bad8af","A3","batch1","","1910","tol_toboard","","","","tol_peg_3","1910","1910","0","[[1,0,0],[3,0],[2]]","4","[[3,2,0],[0,0],[1]]","20","0","","","","","","6","","","","","","","","",""
"","","","","","single-stim-button","355","842808","0.0-2.0-71.4-0.4","63bb4ea524b89495f4bad8af","A3","batch1","","6392","tol_tohand","","","","tol_peg_2","6392","6392","0","[[1,0,0],[0,0],[2]]","5","[[3,2,0],[0,0],[1]]","20","0","","","","","","6","","","","","","","","",""
