"success","timeout","failed_images","failed_audio","failed_video","trial_type","trial_index","time_elapsed","internal_node_id","subject_id","study_id","session_id","task","rt","stimulus","response","item","answer","correct","spm_correct","spm_rt","view_history","fiar_detect_rt","fiar_detect_correct","total_correct_fiar_detect","post_trial_gap","choices","mouse_click","stim_duration","block_duration","timing_post_trial","current_position","tol_num_moves_made","tol_target","tol_problem_id","tol_rt","key_press","possible_responses","tol_correct","preplanning","tol_rt_per_trial","tol_min_moves"
"true","false","[]","[]","[]","preload","0","2333","0.0-0.0","63bd81554d9e726756bb2dc3","D2","batch4","","","","","","","","","","","","","","","","","","","","","","","","","","","","","",""
"true","","","","","fullscreen","1","14048","0.0-1.0-0.0","63bd81554d9e726756bb2dc3","D2","batch4","","","","","","","","","","","","","","","","","","","","","","","","","","","","","",""
"true","","","","","fullscreen","2","21774","0.0-2.0-0.0","63bd81554d9e726756bb2dc3","D2","batch4","spm_fullscreen","","","","","","","","","","","","","","","","","","","","","","","","","","","","",""
"","","","","","html-button-response","3","38418","0.0-2.0-1.0","63bd81554d9e726756bb2dc3","D2","batch4","","16640.899999976158","<p class = block-text><b>Instructions</b> <br>This is a widely used intelligence test in research. <br>In this test, a figure with a missing piece will be presented.<br>Below the figure are alternative pieces to complete the figure, only one of which is correct.<br> Different figures might involve different principles for obtaining the missing piece<br>Your job is to select the most logical piece to complete the figure.</p>","0","","","","","","","","","","","","","","","","","","","","","","","","","",""
"","","","","","html-keyboard-response","4","39222","0.0-2.0-2.0-0.0","63bd81554d9e726756bb2dc3","D2","batch4","spm_show_trial_num","null","<p class=block-text>Trial 1 out of 60</p>","null","","","","","","","","","","","","","","","","","","","","","","","","","",""
"","","","","","image-button-response","5","45461","0.0-2.0-2.0-1.0","63bd81554d9e726756bb2dc3","D2","batch4","spm_respsonse","6230","img/question_1_1.jpeg","3","mat_01","4","1","1","6230","","","","","","","","","","","","","","","","","","","","",""
"","","","","","html-keyboard-response","6","46518","0.0-2.0-2.0-0.1","63bd81554d9e726756bb2dc3","D2","batch4","spm_show_trial_num","null","<p class=block-text>Trial 2 out of 60</p>","null","","","","","","","","","","","","","","","","","","","","","","","","","",""
"","","","","","image-button-response","7","50034","0.0-2.0-2.0-1.1","63bd81554d9e726756bb2dc3","D2","batch4","spm_respsonse","3514.5999999940395","img/question_1_2.jpeg","4","mat_02","5","1","1","3514.5999999940395","","","","","","","","","","","","","","","","","","","","",""
"","","","","","html-keyboard-response","8","51114","0.0-2.0-2.0-0.2","63bd81554d9e726756bb2dc3","D2","batch4","spm_show_trial_num","null","<p class=block-text>Trial 3 out of 60</p>","null","","","","","","","","","","","","","","","","","","","","","","","","","",""
"","","","","","image-button-response","9","55769","0.0-2.0-2.0-1.2","63bd81554d9e726756bb2dc3","D2","batch4","spm_respsonse","4652.100000023842","img/question_1_3.jpeg","0","mat_03","1","1","1","4652.100000023842","","","","","","","","","","","","","","","","","","","","",""
"","","","","","html-keyboard-response","10","56850","0.0-2.0-2.0-0.3","63bd81554d9e726756bb2dc3","D2","batch4","spm_show_trial_num","null","<p class=block-text>Trial 4 out of 60</p>","null","","","","","","","","","","","","","","","","","","","","","","","","","",""
"","","","","","image-button-response","11","62938","0.0-2.0-2.0-1.3","63bd81554d9e726756bb2dc3","D2","batch4","spm_respsonse","6083.5","img/question_1_4.jpeg","1","mat_04","2","1","1","6083.5","","","","","","","","","","","","","","","","","","","","",""
"","","","","","html-keyboard-response","12","63998","0.0-2.0-2.0-0.4","63bd81554d9e726756bb2dc3","D2","batch4","spm_show_trial_num","null","<p class=block-text>Trial 5 out of 60</p>","null","","","","","","","","","","","","","","","","","","","","","","","","","",""
"","","","","","image-button-response","13","67898","0.0-2.0-2.0-1.4","63bd81554d9e726756bb2dc3","D2","batch4","spm_respsonse","3895.0999999940395","img/question_1_5.jpeg","5","mat_05","6","1","1","3895.0999999940395","","","","","","","","","","","","","","","","","","","","",""
"","","","","","html-keyboard-response","14","68960","0.0-2.0-2.0-0.5","63bd81554d9e726756bb2dc3","D2","batch4","spm_show_trial_num","null","<p class=block-text>Trial 6 out of 60</p>","null","","","","","","","","","","","","","","","","","","","","","","","","","",""
"","","","","","image-button-response","15","73739","0.0-2.0-2.0-1.5","63bd81554d9e726756bb2dc3","D2","batch4","spm_respsonse","4775.700000017881","img/question_1_6.jpeg","2","mat_06","3","1","1","4775.700000017881","","","","","","","","","","","","","","","","","","","","",""
"","","","","","html-keyboard-response","16","74817","0.0-2.0-2.0-0.6","63bd81554d9e726756bb2dc3","D2","batch4","spm_show_trial_num","null","<p class=block-text>Trial 7 out of 60</p>","null","","","","","","","","","","","","","","","","","","","","","","","","","",""
"","","","","","image-button-response","17","79227","0.0-2.0-2.0-1.6","63bd81554d9e726756bb2dc3","D2","batch4","spm_respsonse","4405.100000023842","img/question_1_7.jpeg","5","mat_07","6","1","1","4405.100000023842","","","","","","","","","","","","","","","","","","","","",""
"","","","","","html-keyboard-response","18","80303","0.0-2.0-2.0-0.7","63bd81554d9e726756bb2dc3","D2","batch4","spm_show_trial_num","null","<p class=block-text>Trial 8 out of 60</p>","null","","","","","","","","","","","","","","","","","","","","","","","","","",""
"","","","","","image-button-response","19","84928","0.0-2.0-2.0-1.7","63bd81554d9e726756bb2dc3","D2","batch4","spm_respsonse","4619.9000000059605","img/question_1_8.jpeg","1","mat_08","2","1","1","4619.9000000059605","","","","","","","","","","","","","","","","","","","","",""
"","","","","","html-keyboard-response","20","85985","0.0-2.0-2.0-0.8","63bd81554d9e726756bb2dc3","D2","batch4","spm_show_trial_num","null","<p class=block-text>Trial 9 out of 60</p>","null","","","","","","","","","","","","","","","","","","","","","","","","","",""
"","","","","","image-button-response","21","89771","0.0-2.0-2.0-1.8","63bd81554d9e726756bb2dc3","D2","batch4","spm_respsonse","3782.5","img/question_1_9.jpeg","0","mat_09","1","1","1","3782.5","","","","","","","","","","","","","","","","","","","","",""
"","","","","","html-keyboard-response","22","90846","0.0-2.0-2.0-0.9","63bd81554d9e726756bb2dc3","D2","batch4","spm_show_trial_num","null","<p class=block-text>Trial 10 out of 60</p>","null","","","","","","","","","","","","","","","","","","","","","","","","","",""
"","","","","","image-button-response","23","97594","0.0-2.0-2.0-1.9","63bd81554d9e726756bb2dc3","D2","batch4","spm_respsonse","6743.0999999940395","img/question_1_10.jpeg","2","mat_10","3","1","1","6743.0999999940395","","","","","","","","","","","","","","","","","","","","",""
"","","","","","html-keyboard-response","24","98671","0.0-2.0-2.0-0.10","63bd81554d9e726756bb2dc3","D2","batch4","spm_show_trial_num","null","<p class=block-text>Trial 11 out of 60</p>","null","","","","","","","","","","","","","","","","","","","","","","","","","",""
"","","","","","image-button-response","25","108548","0.0-2.0-2.0-1.10","63bd81554d9e726756bb2dc3","D2","batch4","spm_respsonse","9872.59999999404","img/question_1_11.jpeg","3","mat_11","4","1","1","9872.59999999404","","","","","","","","","","","","","","","","","","","","",""
"","","","","","html-keyboard-response","26","109627","0.0-2.0-2.0-0.11","63bd81554d9e726756bb2dc3","D2","batch4","spm_show_trial_num","null","<p class=block-text>Trial 12 out of 60</p>","null","","","","","","","","","","","","","","","","","","","","","","","","","",""
"","","","","","image-button-response","27","116879","0.0-2.0-2.0-1.11","63bd81554d9e726756bb2dc3","D2","batch4","spm_respsonse","7248.0999999940395","img/question_1_12.jpeg","0","mat_12","5","0","0","7248.0999999940395","","","","","","","","","","","","","","","","","","","","",""
"","","","","","html-keyboard-response","28","117936","0.0-2.0-2.0-0.12","63bd81554d9e726756bb2dc3","D2","batch4","spm_show_trial_num","null","<p class=block-text>Trial 13 out of 60</p>","null","","","","","","","","","","","","","","","","","","","","","","","","","",""
"","","","","","image-button-response","29","120843","0.0-2.0-2.0-1.12","63bd81554d9e726756bb2dc3","D2","batch4","spm_respsonse","2902.9000000059605","img/question_2_1.jpeg","1","mat_13","2","1","1","2902.9000000059605","","","","","","","","","","","","","","","","","","","","",""
"","","","","","html-keyboard-response","30","121912","0.0-2.0-2.0-0.13","63bd81554d9e726756bb2dc3","D2","batch4","spm_show_trial_num","null","<p class=block-text>Trial 14 out of 60</p>","null","","","","","","","","","","","","","","","","","","","","","","","","","",""
"","","","","","image-button-response","31","129304","0.0-2.0-2.0-1.13","63bd81554d9e726756bb2dc3","D2","batch4","spm_respsonse","7387.799999982119","img/question_2_2.jpeg","5","mat_14","6","1","1","7387.799999982119","","","","","","","","","","","","","","","","","","","","",""
"","","","","","html-keyboard-response","32","130369","0.0-2.0-2.0-0.14","63bd81554d9e726756bb2dc3","D2","batch4","spm_show_trial_num","null","<p class=block-text>Trial 15 out of 60</p>","null","","","","","","","","","","","","","","","","","","","","","","","","","",""
"","","","","","image-button-response","33","134310","0.0-2.0-2.0-1.14","63bd81554d9e726756bb2dc3","D2","batch4","spm_respsonse","3936","img/question_2_3.jpeg","0","mat_15","1","1","1","3936","","","","","","","","","","","","","","","","","","","","",""
"","","","","","html-keyboard-response","34","135380","0.0-2.0-2.0-0.15","63bd81554d9e726756bb2dc3","D2","batch4","spm_show_trial_num","null","<p class=block-text>Trial 16 out of 60</p>","null","","","","","","","","","","","","","","","","","","","","","","","","","",""
"","","","","","image-button-response","35","139166","0.0-2.0-2.0-1.15","63bd81554d9e726756bb2dc3","D2","batch4","spm_respsonse","3781.2999999821186","img/question_2_4.jpeg","1","mat_16","2","1","1","3781.2999999821186","","","","","","","","","","","","","","","","","","","","",""
"","","","","","html-keyboard-response","36","140224","0.0-2.0-2.0-0.16","63bd81554d9e726756bb2dc3","D2","batch4","spm_show_trial_num","null","<p class=block-text>Trial 17 out of 60</p>","null","","","","","","","","","","","","","","","","","","","","","","","","","",""
"","","","","","image-button-response","37","144568","0.0-2.0-2.0-1.16","63bd81554d9e726756bb2dc3","D2","batch4","spm_respsonse","4340.299999982119","img/question_2_5.jpeg","0","mat_17","1","1","1","4340.299999982119","","","","","","","","","","","","","","","","","","","","",""
"","","","","","html-keyboard-response","38","145624","0.0-2.0-2.0-0.17","63bd81554d9e726756bb2dc3","D2","batch4","spm_show_trial_num","null","<p class=block-text>Trial 18 out of 60</p>","null","","","","","","","","","","","","","","","","","","","","","","","","","",""
"","","","","","image-button-response","39","152696","0.0-2.0-2.0-1.17","63bd81554d9e726756bb2dc3","D2","batch4","spm_respsonse","7070.199999988079","img/question_2_6.jpeg","2","mat_18","3","1","1","7070.199999988079","","","","","","","","","","","","","","","","","","","","",""
"","","","","","html-keyboard-response","40","153760","0.0-2.0-2.0-0.18","63bd81554d9e726756bb2dc3","D2","batch4","spm_show_trial_num","null","<p class=block-text>Trial 19 out of 60</p>","null","","","","","","","","","","","","","","","","","","","","","","","","","",""
"","","","","","image-button-response","41","161936","0.0-2.0-2.0-1.18","63bd81554d9e726756bb2dc3","D2","batch4","spm_respsonse","8171.9000000059605","img/question_2_7.jpeg","4","mat_19","5","1","1","8171.9000000059605","","","","","","","","","","","","","","","","","","","","",""
"","","","","","html-keyboard-response","42","163008","0.0-2.0-2.0-0.19","63bd81554d9e726756bb2dc3","D2","batch4","spm_show_trial_num","null","<p class=block-text>Trial 20 out of 60</p>","null","","","","","","","","","","","","","","","","","","","","","","","","","",""
"","","","","","image-button-response","43","168064","0.0-2.0-2.0-1.19","63bd81554d9e726756bb2dc3","D2","batch4","spm_respsonse","5051.4000000059605","img/question_2_8.jpeg","5","mat_20","6","1","1","5051.4000000059605","","","","","","","","","","","","","","","","","","","","",""
"","","","","","html-keyboard-response","44","169127","0.0-2.0-2.0-0.20","63bd81554d9e726756bb2dc3","D2","batch4","spm_show_trial_num","null","<p class=block-text>Trial 21 out of 60</p>","null","","","","","","","","","","","","","","","","","","","","","","","","","",""
"","","","","","image-button-response","45","174594","0.0-2.0-2.0-1.20","63bd81554d9e726756bb2dc3","D2","batch4","spm_respsonse","5463.299999982119","img/question_2_9.jpeg","3","mat_21","4","1","1","5463.299999982119","","","","","","","","","","","","","","","","","","","","",""
"","","","","","html-keyboard-response","46","175670","0.0-2.0-2.0-0.21","63bd81554d9e726756bb2dc3","D2","batch4","spm_show_trial_num","null","<p class=block-text>Trial 22 out of 60</p>","null","","","","","","","","","","","","","","","","","","","","","","","","","",""
"","","","","","image-button-response","47","183432","0.0-2.0-2.0-1.21","63bd81554d9e726756bb2dc3","D2","batch4","spm_respsonse","7757.199999988079","img/question_2_10.jpeg","0","mat_22","3","0","0","7757.199999988079","","","","","","","","","","","","","","","","","","","","",""
"","","","","","html-keyboard-response","48","184495","0.0-2.0-2.0-0.22","63bd81554d9e726756bb2dc3","D2","batch4","spm_show_trial_num","null","<p class=block-text>Trial 23 out of 60</p>","null","","","","","","","","","","","","","","","","","","","","","","","","","",""
"","","","","","image-button-response","49","190094","0.0-2.0-2.0-1.22","63bd81554d9e726756bb2dc3","D2","batch4","spm_respsonse","5594","img/question_2_11.jpeg","3","mat_23","4","1","1","5594","","","","","","","","","","","","","","","","","","","","",""
"","","","","","html-keyboard-response","50","191166","0.0-2.0-2.0-0.23","63bd81554d9e726756bb2dc3","D2","batch4","spm_show_trial_num","null","<p class=block-text>Trial 24 out of 60</p>","null","","","","","","","","","","","","","","","","","","","","","","","","","",""
"","","","","","image-button-response","51","305646","0.0-2.0-2.0-1.23","63bd81554d9e726756bb2dc3","D2","batch4","spm_respsonse","114477.40000000596","img/question_2_12.jpeg","3","mat_24","5","0","0","114477.40000000596","","","","","","","","","","","","","","","","","","","","",""
"","","","","","html-button-response","52","307835","0.0-2.0-3.0","63bd81554d9e726756bb2dc3","D2","batch4","attention_check","1928.5999999940395","<p class = block-text>Attention check: Please choose 1<br></p>","0","","","true","","","","","","","","","","","","","","","","","","","","","","",""
"","","","","","html-keyboard-response","53","308649","0.0-2.0-4.0-0.0","63bd81554d9e726756bb2dc3","D2","batch4","spm_show_trial_num","null","<p class=block-text>Trial 25 out of 60</p>","null","","","","","","","","","","","","","","","","","","","","","","","","","",""
"","","","","","image-button-response","54","321624","0.0-2.0-4.0-1.0","63bd81554d9e726756bb2dc3","D2","batch4","spm_respsonse","12972.5","img/question_3_1.jpeg","7","mat_25","8","1","1","12972.5","","","","","","","","","","","","","","","","","","","","",""
"","","","","","html-keyboard-response","55","322691","0.0-2.0-4.0-0.1","63bd81554d9e726756bb2dc3","D2","batch4","spm_show_trial_num","null","<p class=block-text>Trial 26 out of 60</p>","null","","","","","","","","","","","","","","","","","","","","","","","","","",""
"","","","","","image-button-response","56","336419","0.0-2.0-4.0-1.1","63bd81554d9e726756bb2dc3","D2","batch4","spm_respsonse","13726.40000000596","img/question_3_2.jpeg","1","mat_26","2","1","1","13726.40000000596","","","","","","","","","","","","","","","","","","","","",""
"","","","","","html-keyboard-response","57","337497","0.0-2.0-4.0-0.2","63bd81554d9e726756bb2dc3","D2","batch4","spm_show_trial_num","null","<p class=block-text>Trial 27 out of 60</p>","null","","","","","","","","","","","","","","","","","","","","","","","","","",""
"","","","","","image-button-response","58","363268","0.0-2.0-4.0-1.2","63bd81554d9e726756bb2dc3","D2","batch4","spm_respsonse","25769.40000000596","img/question_3_3.jpeg","2","mat_27","3","1","1","25769.40000000596","","","","","","","","","","","","","","","","","","","","",""
"","","","","","html-keyboard-response","59","364340","0.0-2.0-4.0-0.3","63bd81554d9e726756bb2dc3","D2","batch4","spm_show_trial_num","null","<p class=block-text>Trial 28 out of 60</p>","null","","","","","","","","","","","","","","","","","","","","","","","","","",""
"","","","","","image-button-response","60","399584","0.0-2.0-4.0-1.3","63bd81554d9e726756bb2dc3","D2","batch4","spm_respsonse","35239.10000002384","img/question_3_4.jpeg","7","mat_28","8","1","1","35239.10000002384","","","","","","","","","","","","","","","","","","","","",""
"","","","","","html-keyboard-response","61","400660","0.0-2.0-4.0-0.4","63bd81554d9e726756bb2dc3","D2","batch4","spm_show_trial_num","null","<p class=block-text>Trial 29 out of 60</p>","null","","","","","","","","","","","","","","","","","","","","","","","","","",""
"","","","","","image-button-response","62","437552","0.0-2.0-4.0-1.4","63bd81554d9e726756bb2dc3","D2","batch4","spm_respsonse","36886.70000001788","img/question_3_5.jpeg","6","mat_29","7","1","1","36886.70000001788","","","","","","","","","","","","","","","","","","","","",""
"","","","","","html-keyboard-response","63","438618","0.0-2.0-4.0-0.5","63bd81554d9e726756bb2dc3","D2","batch4","spm_show_trial_num","null","<p class=block-text>Trial 30 out of 60</p>","null","","","","","","","","","","","","","","","","","","","","","","","","","",""
"","","","","","image-button-response","64","453528","0.0-2.0-4.0-1.5","63bd81554d9e726756bb2dc3","D2","batch4","spm_respsonse","14904.700000017881","img/question_3_6.jpeg","3","mat_30","4","1","1","14904.700000017881","","","","","","","","","","","","","","","","","","","","",""
"","","","","","html-keyboard-response","65","454599","0.0-2.0-4.0-0.6","63bd81554d9e726756bb2dc3","D2","batch4","spm_show_trial_num","null","<p class=block-text>Trial 31 out of 60</p>","null","","","","","","","","","","","","","","","","","","","","","","","","","",""
"","","","","","image-button-response","66","464409","0.0-2.0-4.0-1.6","63bd81554d9e726756bb2dc3","D2","batch4","spm_respsonse","9804.699999988079","img/question_3_7.jpeg","4","mat_31","5","1","1","9804.699999988079","","","","","","","","","","","","","","","","","","","","",""
"","","","","","html-keyboard-response","67","465474","0.0-2.0-4.0-0.7","63bd81554d9e726756bb2dc3","D2","batch4","spm_show_trial_num","null","<p class=block-text>Trial 32 out of 60</p>","null","","","","","","","","","","","","","","","","","","","","","","","","","",""
"","","","","","image-button-response","68","484036","0.0-2.0-4.0-1.7","63bd81554d9e726756bb2dc3","D2","batch4","spm_respsonse","18559.09999999404","img/question_3_8.jpeg","0","mat_32","1","1","1","18559.09999999404","","","","","","","","","","","","","","","","","","","","",""
"","","","","","html-keyboard-response","69","485098","0.0-2.0-4.0-0.8","63bd81554d9e726756bb2dc3","D2","batch4","spm_show_trial_num","null","<p class=block-text>Trial 33 out of 60</p>","null","","","","","","","","","","","","","","","","","","","","","","","","","",""
"","","","","","image-button-response","70","494905","0.0-2.0-4.0-1.8","63bd81554d9e726756bb2dc3","D2","batch4","spm_respsonse","9803.199999988079","img/question_3_9.jpeg","6","mat_33","7","1","1","9803.199999988079","","","","","","","","","","","","","","","","","","","","",""
"","","","","","html-keyboard-response","71","495973","0.0-2.0-4.0-0.9","63bd81554d9e726756bb2dc3","D2","batch4","spm_show_trial_num","null","<p class=block-text>Trial 34 out of 60</p>","null","","","","","","","","","","","","","","","","","","","","","","","","","",""
"","","","","","image-button-response","72","536590","0.0-2.0-4.0-1.9","63bd81554d9e726756bb2dc3","D2","batch4","spm_respsonse","40613.10000002384","img/question_3_10.jpeg","5","mat_34","6","1","1","40613.10000002384","","","","","","","","","","","","","","","","","","","","",""
"","","","","","html-keyboard-response","73","537643","0.0-2.0-4.0-0.10","63bd81554d9e726756bb2dc3","D2","batch4","spm_show_trial_num","null","<p class=block-text>Trial 35 out of 60</p>","null","","","","","","","","","","","","","","","","","","","","","","","","","",""
"","","","","","image-button-response","74","583146","0.0-2.0-4.0-1.10","63bd81554d9e726756bb2dc3","D2","batch4","spm_respsonse","45497.80000001192","img/question_3_11.jpeg","0","mat_35","1","1","1","45497.80000001192","","","","","","","","","","","","","","","","","","","","",""
"","","","","","html-keyboard-response","75","584214","0.0-2.0-4.0-0.11","63bd81554d9e726756bb2dc3","D2","batch4","spm_show_trial_num","null","<p class=block-text>Trial 36 out of 60</p>","null","","","","","","","","","","","","","","","","","","","","","","","","","",""
"","","","","","image-button-response","76","665042","0.0-2.0-4.0-1.11","63bd81554d9e726756bb2dc3","D2","batch4","spm_respsonse","80822.70000001788","img/question_3_12.jpeg","1","mat_36","2","1","1","80822.70000001788","","","","","","","","","","","","","","","","","","","","",""
"","","","","","html-keyboard-response","77","666110","0.0-2.0-4.0-0.12","63bd81554d9e726756bb2dc3","D2","batch4","spm_show_trial_num","null","<p class=block-text>Trial 37 out of 60</p>","null","","","","","","","","","","","","","","","","","","","","","","","","","",""
"","","","","","image-button-response","78","671930","0.0-2.0-4.0-1.12","63bd81554d9e726756bb2dc3","D2","batch4","spm_respsonse","5814.800000011921","img/question_4_1.jpeg","2","mat_37","3","1","1","5814.800000011921","","","","","","","","","","","","","","","","","","","","",""
"","","","","","html-keyboard-response","79","672994","0.0-2.0-4.0-0.13","63bd81554d9e726756bb2dc3","D2","batch4","spm_show_trial_num","null","<p class=block-text>Trial 38 out of 60</p>","null","","","","","","","","","","","","","","","","","","","","","","","","","",""
"","","","","","image-button-response","80","686104","0.0-2.0-4.0-1.13","63bd81554d9e726756bb2dc3","D2","batch4","spm_respsonse","13108.5","img/question_4_2.jpeg","3","mat_38","4","1","1","13108.5","","","","","","","","","","","","","","","","","","","","",""
"","","","","","html-keyboard-response","81","687161","0.0-2.0-4.0-0.14","63bd81554d9e726756bb2dc3","D2","batch4","spm_show_trial_num","null","<p class=block-text>Trial 39 out of 60</p>","null","","","","","","","","","","","","","","","","","","","","","","","","","",""
"","","","","","image-button-response","82","701906","0.0-2.0-4.0-1.14","63bd81554d9e726756bb2dc3","D2","batch4","spm_respsonse","14739.799999982119","img/question_4_3.jpeg","2","mat_39","3","1","1","14739.799999982119","","","","","","","","","","","","","","","","","","","","",""
"","","","","","html-keyboard-response","83","702966","0.0-2.0-4.0-0.15","63bd81554d9e726756bb2dc3","D2","batch4","spm_show_trial_num","null","<p class=block-text>Trial 40 out of 60</p>","null","","","","","","","","","","","","","","","","","","","","","","","","","",""
"","","","","","image-button-response","84","716844","0.0-2.0-4.0-1.15","63bd81554d9e726756bb2dc3","D2","batch4","spm_respsonse","13873.199999988079","img/question_4_4.jpeg","6","mat_40","7","1","1","13873.199999988079","","","","","","","","","","","","","","","","","","","","",""
"","","","","","html-keyboard-response","85","717907","0.0-2.0-4.0-0.16","63bd81554d9e726756bb2dc3","D2","batch4","spm_show_trial_num","null","<p class=block-text>Trial 41 out of 60</p>","null","","","","","","","","","","","","","","","","","","","","","","","","","",""
"","","","","","image-button-response","86","726480","0.0-2.0-4.0-1.16","63bd81554d9e726756bb2dc3","D2","batch4","spm_respsonse","8567.90000000596","img/question_4_5.jpeg","7","mat_41","8","1","1","8567.90000000596","","","","","","","","","","","","","","","","","","","","",""
"","","","","","html-keyboard-response","87","727533","0.0-2.0-4.0-0.17","63bd81554d9e726756bb2dc3","D2","batch4","spm_show_trial_num","null","<p class=block-text>Trial 42 out of 60</p>","null","","","","","","","","","","","","","","","","","","","","","","","","","",""
"","","","","","image-button-response","88","739072","0.0-2.0-4.0-1.17","63bd81554d9e726756bb2dc3","D2","batch4","spm_respsonse","11534.59999999404","img/question_4_6.jpeg","5","mat_42","6","1","1","11534.59999999404","","","","","","","","","","","","","","","","","","","","",""
"","","","","","html-keyboard-response","89","740132","0.0-2.0-4.0-0.18","63bd81554d9e726756bb2dc3","D2","batch4","spm_show_trial_num","null","<p class=block-text>Trial 43 out of 60</p>","null","","","","","","","","","","","","","","","","","","","","","","","","","",""
"","","","","","image-button-response","90","747698","0.0-2.0-4.0-1.18","63bd81554d9e726756bb2dc3","D2","batch4","spm_respsonse","7561.5","img/question_4_7.jpeg","4","mat_43","5","1","1","7561.5","","","","","","","","","","","","","","","","","","","","",""
"","","","","","html-keyboard-response","91","748758","0.0-2.0-4.0-0.19","63bd81554d9e726756bb2dc3","D2","batch4","spm_show_trial_num","null","<p class=block-text>Trial 44 out of 60</p>","null","","","","","","","","","","","","","","","","","","","","","","","","","",""
"","","","","","image-button-response","92","770436","0.0-2.0-4.0-1.19","63bd81554d9e726756bb2dc3","D2","batch4","spm_respsonse","21673.09999999404","img/question_4_8.jpeg","3","mat_44","4","1","1","21673.09999999404","","","","","","","","","","","","","","","","","","","","",""
"","","","","","html-keyboard-response","93","771503","0.0-2.0-4.0-0.20","63bd81554d9e726756bb2dc3","D2","batch4","spm_show_trial_num","null","<p class=block-text>Trial 45 out of 60</p>","null","","","","","","","","","","","","","","","","","","","","","","","","","",""
"","","","","","image-button-response","94","799084","0.0-2.0-4.0-1.20","63bd81554d9e726756bb2dc3","D2","batch4","spm_respsonse","27575.40000000596","img/question_4_9.jpeg","3","mat_45","1","0","0","27575.40000000596","","","","","","","","","","","","","","","","","","","","",""
"","","","","","html-keyboard-response","95","800137","0.0-2.0-4.0-0.21","63bd81554d9e726756bb2dc3","D2","batch4","spm_show_trial_num","null","<p class=block-text>Trial 46 out of 60</p>","null","","","","","","","","","","","","","","","","","","","","","","","","","",""
"","","","","","image-button-response","96","834739","0.0-2.0-4.0-1.21","63bd81554d9e726756bb2dc3","D2","batch4","spm_respsonse","34597.20000001788","img/question_4_10.jpeg","1","mat_46","2","1","1","34597.20000001788","","","","","","","","","","","","","","","","","","","","",""
"","","","","","html-keyboard-response","97","835812","0.0-2.0-4.0-0.22","63bd81554d9e726756bb2dc3","D2","batch4","spm_show_trial_num","null","<p class=block-text>Trial 47 out of 60</p>","null","","","","","","","","","","","","","","","","","","","","","","","","","",""
"","","","","","image-button-response","98","913095","0.0-2.0-4.0-1.22","63bd81554d9e726756bb2dc3","D2","batch4","spm_respsonse","77278.70000001788","img/question_4_11.jpeg","4","mat_47","5","1","1","77278.70000001788","","","","","","","","","","","","","","","","","","","","",""
"","","","","","html-keyboard-response","99","914150","0.0-2.0-4.0-0.23","63bd81554d9e726756bb2dc3","D2","batch4","spm_show_trial_num","null","<p class=block-text>Trial 48 out of 60</p>","null","","","","","","","","","","","","","","","","","","","","","","","","","",""
"","","","","","image-button-response","100","996530","0.0-2.0-4.0-1.23","63bd81554d9e726756bb2dc3","D2","batch4","spm_respsonse","82378","img/question_4_12.jpeg","7","mat_48","6","0","0","82378","","","","","","","","","","","","","","","","","","","","",""
"","","","","","html-keyboard-response","101","997587","0.0-2.0-4.0-0.24","63bd81554d9e726756bb2dc3","D2","batch4","spm_show_trial_num","null","<p class=block-text>Trial 49 out of 60</p>","null","","","","","","","","","","","","","","","","","","","","","","","","","",""
"","","","","","image-button-response","102","1008866","0.0-2.0-4.0-1.24","63bd81554d9e726756bb2dc3","D2","batch4","spm_respsonse","11274.199999988079","img/question_5_1.jpeg","6","mat_49","7","1","1","11274.199999988079","","","","","","","","","","","","","","","","","","","","",""
"","","","","","html-keyboard-response","103","1009923","0.0-2.0-4.0-0.25","63bd81554d9e726756bb2dc3","D2","batch4","spm_show_trial_num","null","<p class=block-text>Trial 50 out of 60</p>","null","","","","","","","","","","","","","","","","","","","","","","","","","",""
"","","","","","image-button-response","104","1070354","0.0-2.0-4.0-1.25","63bd81554d9e726756bb2dc3","D2","batch4","spm_respsonse","60426.59999999404","img/question_5_2.jpeg","5","mat_50","6","1","1","60426.59999999404","","","","","","","","","","","","","","","","","","","","",""
"","","","","","html-keyboard-response","105","1071408","0.0-2.0-4.0-0.26","63bd81554d9e726756bb2dc3","D2","batch4","spm_show_trial_num","null","<p class=block-text>Trial 51 out of 60</p>","null","","","","","","","","","","","","","","","","","","","","","","","","","",""
"","","","","","image-button-response","106","1089870","0.0-2.0-4.0-1.26","63bd81554d9e726756bb2dc3","D2","batch4","spm_respsonse","18457.69999998808","img/question_5_3.jpeg","7","mat_51","8","1","1","18457.69999998808","","","","","","","","","","","","","","","","","","","","",""
"","","","","","html-keyboard-response","107","1090932","0.0-2.0-4.0-0.27","63bd81554d9e726756bb2dc3","D2","batch4","spm_show_trial_num","null","<p class=block-text>Trial 52 out of 60</p>","null","","","","","","","","","","","","","","","","","","","","","","","","","",""
"","","","","","image-button-response","108","1143844","0.0-2.0-4.0-1.27","63bd81554d9e726756bb2dc3","D2","batch4","spm_respsonse","52907.69999998808","img/question_5_4.jpeg","1","mat_52","2","1","1","52907.69999998808","","","","","","","","","","","","","","","","","","","","",""
"","","","","","html-keyboard-response","109","1144905","0.0-2.0-4.0-0.28","63bd81554d9e726756bb2dc3","D2","batch4","spm_show_trial_num","null","<p class=block-text>Trial 53 out of 60</p>","null","","","","","","","","","","","","","","","","","","","","","","","","","",""
"","","","","","image-button-response","110","1182124","0.0-2.0-4.0-1.28","63bd81554d9e726756bb2dc3","D2","batch4","spm_respsonse","37213.59999999404","img/question_5_5.jpeg","0","mat_53","1","1","1","37213.59999999404","","","","","","","","","","","","","","","","","","","","",""
"","","","","","html-keyboard-response","111","1183196","0.0-2.0-4.0-0.29","63bd81554d9e726756bb2dc3","D2","batch4","spm_show_trial_num","null","<p class=block-text>Trial 54 out of 60</p>","null","","","","","","","","","","","","","","","","","","","","","","","","","",""
"","","","","","image-button-response","112","1244141","0.0-2.0-4.0-1.29","63bd81554d9e726756bb2dc3","D2","batch4","spm_respsonse","60939.20000001788","img/question_5_6.jpeg","4","mat_54","5","1","1","60939.20000001788","","","","","","","","","","","","","","","","","","","","",""
"","","","","","html-keyboard-response","113","1245217","0.0-2.0-4.0-0.30","63bd81554d9e726756bb2dc3","D2","batch4","spm_show_trial_num","null","<p class=block-text>Trial 55 out of 60</p>","null","","","","","","","","","","","","","","","","","","","","","","","","","",""
"","","","","","image-button-response","114","1270250","0.0-2.0-4.0-1.30","63bd81554d9e726756bb2dc3","D2","batch4","spm_respsonse","25028.70000001788","img/question_5_7.jpeg","3","mat_55","1","0","0","25028.70000001788","","","","","","","","","","","","","","","","","","","","",""
"","","","","","html-keyboard-response","115","1271314","0.0-2.0-4.0-0.31","63bd81554d9e726756bb2dc3","D2","batch4","spm_show_trial_num","null","<p class=block-text>Trial 56 out of 60</p>","null","","","","","","","","","","","","","","","","","","","","","","","","","",""
"","","","","","image-button-response","116","1318889","0.0-2.0-4.0-1.31","63bd81554d9e726756bb2dc3","D2","batch4","spm_respsonse","47570.69999998808","img/question_5_8.jpeg","1","mat_56","6","0","0","47570.69999998808","","","","","","","","","","","","","","","","","","","","",""
"","","","","","html-keyboard-response","117","1319956","0.0-2.0-4.0-0.32","63bd81554d9e726756bb2dc3","D2","batch4","spm_show_trial_num","null","<p class=block-text>Trial 57 out of 60</p>","null","","","","","","","","","","","","","","","","","","","","","","","","","",""
"","","","","","image-button-response","118","1399958","0.0-2.0-4.0-1.32","63bd81554d9e726756bb2dc3","D2","batch4","spm_respsonse","79997.30000001192","img/question_5_9.jpeg","2","mat_57","3","1","1","79997.30000001192","","","","","","","","","","","","","","","","","","","","",""
"","","","","","html-keyboard-response","119","1401023","0.0-2.0-4.0-0.33","63bd81554d9e726756bb2dc3","D2","batch4","spm_show_trial_num","null","<p class=block-text>Trial 58 out of 60</p>","null","","","","","","","","","","","","","","","","","","","","","","","","","",""
"","","","","","image-button-response","120","1478275","0.0-2.0-4.0-1.33","63bd81554d9e726756bb2dc3","D2","batch4","spm_respsonse","77246.59999999404","img/question_5_10.jpeg","1","mat_58","2","1","1","77246.59999999404","","","","","","","","","","","","","","","","","","","","",""
"","","","","","html-keyboard-response","121","1479338","0.0-2.0-4.0-0.34","63bd81554d9e726756bb2dc3","D2","batch4","spm_show_trial_num","null","<p class=block-text>Trial 59 out of 60</p>","null","","","","","","","","","","","","","","","","","","","","","","","","","",""
"","","","","","image-button-response","122","1625799","0.0-2.0-4.0-1.34","63bd81554d9e726756bb2dc3","D2","batch4","spm_respsonse","146455.80000001192","img/question_5_11.jpeg","1","mat_59","4","0","0","146455.80000001192","","","","","","","","","","","","","","","","","","","","",""
"","","","","","html-keyboard-response","123","1626874","0.0-2.0-4.0-0.35","63bd81554d9e726756bb2dc3","D2","batch4","spm_show_trial_num","null","<p class=block-text>Trial 60 out of 60</p>","null","","","","","","","","","","","","","","","","","","","","","","","","","",""
"","","","","","image-button-response","124","1762669","0.0-2.0-4.0-1.35","63bd81554d9e726756bb2dc3","D2","batch4","spm_respsonse","135789.80000001192","img/question_5_12.jpeg","1","mat_60","5","0","0","135789.80000001192","","","","","","","","","","","","","","","","","","","","",""
"","","","","","html-button-response","125","1765675","0.0-2.0-5.0","63bd81554d9e726756bb2dc3","D2","batch4","spm_goodbye","2748.0999999940395","<p class= block-text>This concludes the Standard Progressive Matrix game. Thank you for your responses!<br> When you are ready, click the button continue</p>","0","","","","","","","","","","","","","","","","","","","","","","","","","",""
"true","","","","","fullscreen","126","1772212","0.0-3.0-0.0","63bd81554d9e726756bb2dc3","D2","batch4","","","","","","","","","","","","","","","","","","","","","","","","","","","","","",""
"","","","","","instructions","127","1790668","0.0-3.0-1.0-0.0","63bd81554d9e726756bb2dc3","D2","batch4","","18456.20000001788","","","","","","","","[{""page_index"":0,""viewing_time"":12003.800000011921},{""page_index"":1,""viewing_time"":6452}]","","","","","","","","","","","","","","","","","","","",""
"","","","","","html-button-response","128","1792184","0.0-3.0-1.0-1.0-0.0","63bd81554d9e726756bb2dc3","D2","batch4","pattern_enter_quiz","1515","<p class=block-text> Let's answer a few questions <br>","0","","","","","","","","","","","","","","","","","","","","","","","","","",""
"","","","","","html-button-response","129","1794943","0.0-3.0-1.0-1.0-1.0","63bd81554d9e726756bb2dc3","D2","batch4","pattern_quiz","2756.699999988079","<p class = block-text>True or False: You will have as much time as you want to make each choice. <br></p>","1","","","true","","","","","","","","","","","","","","","","","","","","","","",""
"","","","","","html-button-response","130","1796488","0.0-3.0-1.0-1.0-2.0","63bd81554d9e726756bb2dc3","D2","batch4","pattern_quiz_feedback","1544.0999999940395","<p class = block-text>Correct! You should make your choice <strong> as fast as you can</strong>.</p>","0","","","","","","","","","","","","","","","","","","","","","","","","","",""
"","","","","","html-button-response","131","1800721","0.0-3.0-1.0-1.0-3.0","63bd81554d9e726756bb2dc3","D2","batch4","pattern_quiz","4231.0999999940395","<p class = block-text>True or False: You will look for 4 pieces in black or white color connected in a row either horizontally, vertically or diagonally. <br></p>","0","","","true","","","","","","","","","","","","","","","","","","","","","","",""
"","","","","","html-button-response","132","1801600","0.0-3.0-1.0-1.0-4.0","63bd81554d9e726756bb2dc3","D2","batch4","pattern_quiz_feedback","878.6999999880791","<p class = block-text>Correct! </p>","0","","","","","","","","","","","","","","","","","","","","","","","","","",""
"","","","","","html-button-response","133","1803961","0.0-3.0-2.0","63bd81554d9e726756bb2dc3","D2","batch4","pattern_enter_practice","2357.5999999940395","<p class=block-text> Now that you've understood the game, let's do a few practice trials before we start!<br> <br>","0","","","","","","","","","","","","","","","","","","","","","","","","","",""
"","","","","","image-keyboard-response","134","1806322","0.0-3.0-3.0-0.0","63bd81554d9e726756bb2dc3","D2","batch4","pattern_practice","2359.5999999940395","stim/prac_yes_20_dia_b1.png","j","","f","false","","","","","","","","","","","","","","","","","","","","","","",""
"","","","","","html-keyboard-response","135","1807334","0.0-3.0-3.0-1.0","63bd81554d9e726756bb2dc3","D2","batch4","pattern_feedback","null","<p style=""font-size:30px;color:red;"">Wrong.</p>","null","","","","","","","","","","","","","","","","","","","","","","","","","",""
"","","","","","image-keyboard-response","136","1808558","0.0-3.0-3.0-0.1","63bd81554d9e726756bb2dc3","D2","batch4","pattern_practice","1220.5999999940395","stim/prac_yes_18_hor_w1.png","f","","f","true","","","","","","","","","","","","","","","","","","","","","","",""
"","","","","","html-keyboard-response","137","1809573","0.0-3.0-3.0-1.1","63bd81554d9e726756bb2dc3","D2","batch4","pattern_feedback","null","<p style=""font-size:30px;color:green;"">Correct!</p>","null","","","","","","","","","","","","","","","","","","","","","","","","","",""
"","","","","","image-keyboard-response","138","1810731","0.0-3.0-3.0-0.2","63bd81554d9e726756bb2dc3","D2","batch4","pattern_practice","1154.5","stim/prac_no_18_1.png","j","","j","true","","","","","","","","","","","","","","","","","","","","","","",""
"","","","","","html-keyboard-response","139","1811755","0.0-3.0-3.0-1.2","63bd81554d9e726756bb2dc3","D2","batch4","pattern_feedback","null","<p style=""font-size:30px;color:green;"">Correct!</p>","null","","","","","","","","","","","","","","","","","","","","","","","","","",""
"","","","","","image-keyboard-response","140","1814025","0.0-3.0-3.0-0.3","63bd81554d9e726756bb2dc3","D2","batch4","pattern_practice","2266.300000011921","stim/prac_no_16_1.png","j","","j","true","","","","","","","","","","","","","","","","","","","","","","",""
"","","","","","html-keyboard-response","141","1815043","0.0-3.0-3.0-1.3","63bd81554d9e726756bb2dc3","D2","batch4","pattern_feedback","null","<p style=""font-size:30px;color:green;"">Correct!</p>","null","","","","","","","","","","","","","","","","","","","","","","","","","",""
"","","","","","image-keyboard-response","142","1815733","0.0-3.0-3.0-0.4","63bd81554d9e726756bb2dc3","D2","batch4","pattern_practice","687.0999999940395","stim/prac_yes_16_ver_w1.png","f","","f","true","","","","","","","","","","","","","","","","","","","","","","",""
"","","","","","html-keyboard-response","143","1816759","0.0-3.0-3.0-1.4","63bd81554d9e726756bb2dc3","D2","batch4","pattern_feedback","null","<p style=""font-size:30px;color:green;"">Correct!</p>","null","","","","","","","","","","","","","","","","","","","","","","","","","",""
"","","","","","html-button-response","144","1823971","0.0-3.0-4.0","63bd81554d9e726756bb2dc3","D2","batch4","pattern_enter_official_trials","7208.699999988079","<p class=block-text> Good job! You are done with practice trials!<br>
        You responded correctly on 80% of the trials.<br>
        Press the button below to start official trials. Now you won't see any feedback about your response</p>","0","","","","","","","","","","","","","","","","","","","","","","","","","",""
"","","","","","html-keyboard-response","145","1824776","0.0-3.0-5.0-0.0","63bd81554d9e726756bb2dc3","D2","batch4","pattern_show_trial_num","null","<p class=block-text>Trial 1 out of 78</p>","null","","","","","","","","","","","","","","","","","","","","","","","","","",""
"","","","","","image-keyboard-response","146","1825661","0.0-3.0-5.0-1.0","63bd81554d9e726756bb2dc3","D2","batch4","pattern_response","880.3000000119209","stim/yes_37_hor_w1_w.png","f","pattern_60","f","true","","","","880.3000000119209","true","1","","","","","","","","","","","","","","","","",""
"","","","","","html-keyboard-response","147","1826965","0.0-3.0-5.0-0.1","63bd81554d9e726756bb2dc3","D2","batch4","pattern_show_trial_num","null","<p class=block-text>Trial 2 out of 78</p>","null","","","","","","","","","","","","","","","","","","","","","","","","","",""
"","","","","","image-keyboard-response","148","1827879","0.0-3.0-5.0-1.1","63bd81554d9e726756bb2dc3","D2","batch4","pattern_response","911.6999999880791","stim/yes_30_ver_b1_b.png","f","pattern_54","f","true","","","","911.6999999880791","true","2","","","","","","","","","","","","","","","","",""
"","","","","","html-keyboard-response","149","1829184","0.0-3.0-5.0-0.2","63bd81554d9e726756bb2dc3","D2","batch4","pattern_show_trial_num","null","<p class=block-text>Trial 3 out of 78</p>","null","","","","","","","","","","","","","","","","","","","","","","","","","",""
"","","","","","image-keyboard-response","150","1829880","0.0-3.0-5.0-1.2","63bd81554d9e726756bb2dc3","D2","batch4","pattern_response","692.9000000059605","stim/yes_12_hor_w1_w.png","f","pattern_42","f","true","","","","692.9000000059605","true","3","","","","","","","","","","","","","","","","",""
"","","","","","html-keyboard-response","151","1831206","0.0-3.0-5.0-0.3","63bd81554d9e726756bb2dc3","D2","batch4","pattern_show_trial_num","null","<p class=block-text>Trial 4 out of 78</p>","null","","","","","","","","","","","","","","","","","","","","","","","","","",""
"","","","","","image-keyboard-response","152","1834137","0.0-3.0-5.0-1.3","63bd81554d9e726756bb2dc3","D2","batch4","pattern_response","2927.4000000059605","stim/no_33_1_b.png","j","pattern_15","j","true","","","","2927.4000000059605","true","4","","","","","","","","","","","","","","","","",""
"","","","","","html-keyboard-response","153","1835439","0.0-3.0-5.0-0.4","63bd81554d9e726756bb2dc3","D2","batch4","pattern_show_trial_num","null","<p class=block-text>Trial 5 out of 78</p>","null","","","","","","","","","","","","","","","","","","","","","","","","","",""
"","","","","","image-keyboard-response","154","1837032","0.0-3.0-5.0-1.4","63bd81554d9e726756bb2dc3","D2","batch4","pattern_response","1589.4000000059605","stim/yes_51_dia_b1.png","f","pattern_72","f","true","","","","1589.4000000059605","true","5","","","","","","","","","","","","","","","","",""
"","","","","","html-keyboard-response","155","1838344","0.0-3.0-5.0-0.5","63bd81554d9e726756bb2dc3","D2","batch4","pattern_show_trial_num","null","<p class=block-text>Trial 6 out of 78</p>","null","","","","","","","","","","","","","","","","","","","","","","","","","",""
"","","","","","image-keyboard-response","156","1841050","0.0-3.0-5.0-1.5","63bd81554d9e726756bb2dc3","D2","batch4","pattern_response","2701.9000000059605","stim/no_25_1_b.png","j","pattern_09","j","true","","","","2701.9000000059605","true","6","","","","","","","","","","","","","","","","",""
"","","","","","html-keyboard-response","157","1842365","0.0-3.0-5.0-0.6","63bd81554d9e726756bb2dc3","D2","batch4","pattern_show_trial_num","null","<p class=block-text>Trial 7 out of 78</p>","null","","","","","","","","","","","","","","","","","","","","","","","","","",""
"","","","","","image-keyboard-response","158","1843396","0.0-3.0-5.0-1.6","63bd81554d9e726756bb2dc3","D2","batch4","pattern_response","1027.5999999940395","stim/yes_26_dia_w2_w.png","f","pattern_50","f","true","","","","1027.5999999940395","true","7","","","","","","","","","","","","","","","","",""
"","","","","","html-keyboard-response","159","1844699","0.0-3.0-5.0-0.7","63bd81554d9e726756bb2dc3","D2","batch4","pattern_show_trial_num","null","<p class=block-text>Trial 8 out of 78</p>","null","","","","","","","","","","","","","","","","","","","","","","","","","",""
"","","","","","image-keyboard-response","160","1845450","0.0-3.0-5.0-1.7","63bd81554d9e726756bb2dc3","D2","batch4","pattern_response","748.2999999821186","stim/yes_33_dia_w1_w.png","f","pattern_56","f","true","","","","748.2999999821186","true","8","","","","","","","","","","","","","","","","",""
"","","","","","html-keyboard-response","161","1846782","0.0-3.0-5.0-0.8","63bd81554d9e726756bb2dc3","D2","batch4","pattern_show_trial_num","null","<p class=block-text>Trial 9 out of 78</p>","null","","","","","","","","","","","","","","","","","","","","","","","","","",""
"","","","","","image-keyboard-response","162","1848161","0.0-3.0-5.0-1.8","63bd81554d9e726756bb2dc3","D2","batch4","pattern_response","1376.300000011921","stim/no_22_1_b.png","j","pattern_07","j","true","","","","1376.300000011921","true","9","","","","","","","","","","","","","","","","",""
"","","","","","html-keyboard-response","163","1849478","0.0-3.0-5.0-0.9","63bd81554d9e726756bb2dc3","D2","batch4","pattern_show_trial_num","null","<p class=block-text>Trial 10 out of 78</p>","null","","","","","","","","","","","","","","","","","","","","","","","","","",""
"","","","","","image-keyboard-response","164","1850794","0.0-3.0-5.0-1.9","63bd81554d9e726756bb2dc3","D2","batch4","pattern_response","1313.300000011921","stim/yes_23_ver_b1.png","f","pattern_48","f","true","","","","1313.300000011921","true","10","","","","","","","","","","","","","","","","",""
"","","","","","html-keyboard-response","165","1852119","0.0-3.0-5.0-0.10","63bd81554d9e726756bb2dc3","D2","batch4","pattern_show_trial_num","null","<p class=block-text>Trial 11 out of 78</p>","null","","","","","","","","","","","","","","","","","","","","","","","","","",""
"","","","","","image-keyboard-response","166","1860410","0.0-3.0-5.0-1.10","63bd81554d9e726756bb2dc3","D2","batch4","pattern_response","8287.90000000596","stim/no_67_1.png","j","pattern_39","j","true","","","","8287.90000000596","true","11","","","","","","","","","","","","","","","","",""
"","","","","","html-keyboard-response","167","1861732","0.0-3.0-5.0-0.11","63bd81554d9e726756bb2dc3","D2","batch4","pattern_show_trial_num","null","<p class=block-text>Trial 12 out of 78</p>","null","","","","","","","","","","","","","","","","","","","","","","","","","",""
"","","","","","image-keyboard-response","168","1863185","0.0-3.0-5.0-1.11","63bd81554d9e726756bb2dc3","D2","batch4","pattern_response","1448.0999999940395","stim/no_15_1_w.png","j","pattern_03","j","true","","","","1448.0999999940395","true","12","","","","","","","","","","","","","","","","",""
"","","","","","html-keyboard-response","169","1864497","0.0-3.0-5.0-0.12","63bd81554d9e726756bb2dc3","D2","batch4","pattern_show_trial_num","null","<p class=block-text>Trial 13 out of 78</p>","null","","","","","","","","","","","","","","","","","","","","","","","","","",""
"","","","","","image-keyboard-response","170","1870989","0.0-3.0-5.0-1.12","63bd81554d9e726756bb2dc3","D2","batch4","pattern_response","6489.399999976158","stim/yes_44_ver_w1_w.png","j","pattern_66","f","false","","","","6489.399999976158","false","12","","","","","","","","","","","","","","","","",""
"","","","","","html-keyboard-response","171","1872325","0.0-3.0-5.0-0.13","63bd81554d9e726756bb2dc3","D2","batch4","pattern_show_trial_num","null","<p class=block-text>Trial 14 out of 78</p>","null","","","","","","","","","","","","","","","","","","","","","","","","","",""
"","","","","","image-keyboard-response","172","1874890","0.0-3.0-5.0-1.13","63bd81554d9e726756bb2dc3","D2","batch4","pattern_response","2563.5999999940395","stim/yes_53_ver_b1_b.png","f","pattern_74","f","true","","","","2563.5999999940395","true","13","","","","","","","","","","","","","","","","",""
"","","","","","html-keyboard-response","173","1876207","0.0-3.0-5.0-0.14","63bd81554d9e726756bb2dc3","D2","batch4","pattern_show_trial_num","null","<p class=block-text>Trial 15 out of 78</p>","null","","","","","","","","","","","","","","","","","","","","","","","","","",""
"","","","","","image-keyboard-response","174","1876921","0.0-3.0-5.0-1.14","63bd81554d9e726756bb2dc3","D2","batch4","pattern_response","711","stim/yes_17_ver_b1_b.png","f","pattern_46","f","true","","","","711","true","14","","","","","","","","","","","","","","","","",""
"","","","","","html-keyboard-response","175","1878238","0.0-3.0-5.0-0.15","63bd81554d9e726756bb2dc3","D2","batch4","pattern_show_trial_num","null","<p class=block-text>Trial 16 out of 78</p>","null","","","","","","","","","","","","","","","","","","","","","","","","","",""
"","","","","","image-keyboard-response","176","1879123","0.0-3.0-5.0-1.15","63bd81554d9e726756bb2dc3","D2","batch4","pattern_response","883.1000000238419","stim/no_12_1.png","j","pattern_01","j","true","","","","883.1000000238419","true","15","","","","","","","","","","","","","","","","",""
"","","","","","html-keyboard-response","177","1880432","0.0-3.0-5.0-0.16","63bd81554d9e726756bb2dc3","D2","batch4","pattern_show_trial_num","null","<p class=block-text>Trial 17 out of 78</p>","null","","","","","","","","","","","","","","","","","","","","","","","","","",""
"","","","","","image-keyboard-response","178","1886066","0.0-3.0-5.0-1.16","63bd81554d9e726756bb2dc3","D2","batch4","pattern_response","5634.100000023842","stim/no_39_1_w.png","j","pattern_21","j","true","","","","5634.100000023842","true","16","","","","","","","","","","","","","","","","",""
"","","","","","html-keyboard-response","179","1887398","0.0-3.0-5.0-0.17","63bd81554d9e726756bb2dc3","D2","batch4","pattern_show_trial_num","null","<p class=block-text>Trial 18 out of 78</p>","null","","","","","","","","","","","","","","","","","","","","","","","","","",""
"","","","","","image-keyboard-response","180","1889646","0.0-3.0-5.0-1.17","63bd81554d9e726756bb2dc3","D2","batch4","pattern_response","2246.4000000059605","stim/no_28_2.png","j","pattern_11","j","true","","","","2246.4000000059605","true","17","","","","","","","","","","","","","","","","",""
"","","","","","html-keyboard-response","181","1890964","0.0-3.0-5.0-0.18","63bd81554d9e726756bb2dc3","D2","batch4","pattern_show_trial_num","null","<p class=block-text>Trial 19 out of 78</p>","null","","","","","","","","","","","","","","","","","","","","","","","","","",""
"","","","","","image-keyboard-response","182","1898013","0.0-3.0-5.0-1.18","63bd81554d9e726756bb2dc3","D2","batch4","pattern_response","7046.5999999940395","stim/no_58_1_w.png","j","pattern_35","j","true","","","","7046.5999999940395","true","18","","","","","","","","","","","","","","","","",""
"","","","","","html-keyboard-response","183","1899341","0.0-3.0-5.0-0.19","63bd81554d9e726756bb2dc3","D2","batch4","pattern_show_trial_num","null","<p class=block-text>Trial 20 out of 78</p>","null","","","","","","","","","","","","","","","","","","","","","","","","","",""
"","","","","","image-keyboard-response","184","1900392","0.0-3.0-5.0-1.19","63bd81554d9e726756bb2dc3","D2","batch4","pattern_response","1048.0999999940395","stim/yes_15_dia_b1u_b.png","f","pattern_44","f","true","","","","1048.0999999940395","true","19","","","","","","","","","","","","","","","","",""
"","","","","","html-keyboard-response","185","1901702","0.0-3.0-5.0-0.20","63bd81554d9e726756bb2dc3","D2","batch4","pattern_show_trial_num","null","<p class=block-text>Trial 21 out of 78</p>","null","","","","","","","","","","","","","","","","","","","","","","","","","",""
"","","","","","image-keyboard-response","186","1907186","0.0-3.0-5.0-1.20","63bd81554d9e726756bb2dc3","D2","batch4","pattern_response","5481.0999999940395","stim/no_49_2_b.png","j","pattern_29","j","true","","","","5481.0999999940395","true","20","","","","","","","","","","","","","","","","",""
"","","","","","html-keyboard-response","187","1908494","0.0-3.0-5.0-0.21","63bd81554d9e726756bb2dc3","D2","batch4","pattern_show_trial_num","null","<p class=block-text>Trial 22 out of 78</p>","null","","","","","","","","","","","","","","","","","","","","","","","","","",""
"","","","","","image-keyboard-response","188","1912714","0.0-3.0-5.0-1.21","63bd81554d9e726756bb2dc3","D2","batch4","pattern_response","4215.800000011921","stim/no_37_2_w.png","j","pattern_19","j","true","","","","4215.800000011921","true","21","","","","","","","","","","","","","","","","",""
"","","","","","html-keyboard-response","189","1914040","0.0-3.0-5.0-0.22","63bd81554d9e726756bb2dc3","D2","batch4","pattern_show_trial_num","null","<p class=block-text>Trial 23 out of 78</p>","null","","","","","","","","","","","","","","","","","","","","","","","","","",""
"","","","","","image-keyboard-response","190","1918642","0.0-3.0-5.0-1.22","63bd81554d9e726756bb2dc3","D2","batch4","pattern_response","4598.4000000059605","stim/no_43_2_b.png","j","pattern_23","j","true","","","","4598.4000000059605","true","22","","","","","","","","","","","","","","","","",""
"","","","","","html-keyboard-response","191","1919958","0.0-3.0-5.0-0.23","63bd81554d9e726756bb2dc3","D2","batch4","pattern_show_trial_num","null","<p class=block-text>Trial 24 out of 78</p>","null","","","","","","","","","","","","","","","","","","","","","","","","","",""
"","","","","","image-keyboard-response","192","1920801","0.0-3.0-5.0-1.23","63bd81554d9e726756bb2dc3","D2","batch4","pattern_response","842.1999999880791","stim/yes_70_ver_b1.png","f","pattern_80","f","true","","","","842.1999999880791","true","23","","","","","","","","","","","","","","","","",""
"","","","","","html-keyboard-response","193","1922121","0.0-3.0-5.0-0.24","63bd81554d9e726756bb2dc3","D2","batch4","pattern_show_trial_num","null","<p class=block-text>Trial 25 out of 78</p>","null","","","","","","","","","","","","","","","","","","","","","","","","","",""
"","","","","","image-keyboard-response","194","1922886","0.0-3.0-5.0-1.24","63bd81554d9e726756bb2dc3","D2","batch4","pattern_response","762.6999999880791","stim/yes_36_ver_w1_w.png","f","pattern_58","f","true","","","","762.6999999880791","true","24","","","","","","","","","","","","","","","","",""
"","","","","","html-keyboard-response","195","1924197","0.0-3.0-5.0-0.25","63bd81554d9e726756bb2dc3","D2","batch4","pattern_show_trial_num","null","<p class=block-text>Trial 26 out of 78</p>","null","","","","","","","","","","","","","","","","","","","","","","","","","",""
"","","","","","image-keyboard-response","196","1924949","0.0-3.0-5.0-1.25","63bd81554d9e726756bb2dc3","D2","batch4","pattern_response","749.8000000119209","stim/no_18_1_b.png","j","pattern_05","j","true","","","","749.8000000119209","true","25","","","","","","","","","","","","","","","","",""
"","","","","","html-keyboard-response","197","1926266","0.0-3.0-5.0-0.26","63bd81554d9e726756bb2dc3","D2","batch4","pattern_show_trial_num","null","<p class=block-text>Trial 27 out of 78</p>","null","","","","","","","","","","","","","","","","","","","","","","","","","",""
"","","","","","image-keyboard-response","198","1927221","0.0-3.0-5.0-1.26","63bd81554d9e726756bb2dc3","D2","batch4","pattern_response","953.5","stim/yes_46_ver_b1_b.png","f","pattern_68","f","true","","","","953.5","true","26","","","","","","","","","","","","","","","","",""
"","","","","","html-keyboard-response","199","1928545","0.0-3.0-5.0-0.27","63bd81554d9e726756bb2dc3","D2","batch4","pattern_show_trial_num","null","<p class=block-text>Trial 28 out of 78</p>","null","","","","","","","","","","","","","","","","","","","","","","","","","",""
"","","","","","image-keyboard-response","200","1932347","0.0-3.0-5.0-1.27","63bd81554d9e726756bb2dc3","D2","batch4","pattern_response","3799.399999976158","stim/no_51_1.png","j","pattern_31","j","true","","","","3799.399999976158","true","27","","","","","","","","","","","","","","","","",""
"","","","","","html-keyboard-response","201","1933674","0.0-3.0-5.0-0.28","63bd81554d9e726756bb2dc3","D2","batch4","pattern_show_trial_num","null","<p class=block-text>Trial 29 out of 78</p>","null","","","","","","","","","","","","","","","","","","","","","","","","","",""
"","","","","","image-keyboard-response","202","1936632","0.0-3.0-5.0-1.28","63bd81554d9e726756bb2dc3","D2","batch4","pattern_response","2954.5999999940395","stim/no_30_1_b.png","j","pattern_13","j","true","","","","2954.5999999940395","true","28","","","","","","","","","","","","","","","","",""
"","","","","","html-keyboard-response","203","1937955","0.0-3.0-5.0-0.29","63bd81554d9e726756bb2dc3","D2","batch4","pattern_show_trial_num","null","<p class=block-text>Trial 30 out of 78</p>","null","","","","","","","","","","","","","","","","","","","","","","","","","",""
"","","","","","image-keyboard-response","204","1939012","0.0-3.0-5.0-1.29","63bd81554d9e726756bb2dc3","D2","batch4","pattern_response","1053.0999999940395","stim/yes_49_hor_w1_b.png","f","pattern_70","f","true","","","","1053.0999999940395","true","29","","","","","","","","","","","","","","","","",""
"","","","","","html-keyboard-response","205","1940337","0.0-3.0-5.0-0.30","63bd81554d9e726756bb2dc3","D2","batch4","pattern_show_trial_num","null","<p class=block-text>Trial 31 out of 78</p>","null","","","","","","","","","","","","","","","","","","","","","","","","","",""
"","","","","","image-keyboard-response","206","1944200","0.0-3.0-5.0-1.30","63bd81554d9e726756bb2dc3","D2","batch4","pattern_response","3860.5","stim/no_45_1_w.png","j","pattern_25","j","true","","","","3860.5","true","30","","","","","","","","","","","","","","","","",""
"","","","","","html-keyboard-response","207","1945525","0.0-3.0-5.0-0.31","63bd81554d9e726756bb2dc3","D2","batch4","pattern_show_trial_num","null","<p class=block-text>Trial 32 out of 78</p>","null","","","","","","","","","","","","","","","","","","","","","","","","","",""
"","","","","","image-keyboard-response","208","1948141","0.0-3.0-5.0-1.31","63bd81554d9e726756bb2dc3","D2","batch4","pattern_response","2620.699999988079","stim/no_36_1_b.png","j","pattern_17","j","true","","","","2620.699999988079","true","31","","","","","","","","","","","","","","","","",""
"","","","","","html-keyboard-response","209","1949452","0.0-3.0-5.0-0.32","63bd81554d9e726756bb2dc3","D2","batch4","pattern_show_trial_num","null","<p class=block-text>Trial 33 out of 78</p>","null","","","","","","","","","","","","","","","","","","","","","","","","","",""
"","","","","","image-keyboard-response","210","1953748","0.0-3.0-5.0-1.32","63bd81554d9e726756bb2dc3","D2","batch4","pattern_response","4292.699999988079","stim/no_47_1_b.png","j","pattern_27","j","true","","","","4292.699999988079","true","32","","","","","","","","","","","","","","","","",""
"","","","","","html-keyboard-response","211","1955065","0.0-3.0-5.0-0.33","63bd81554d9e726756bb2dc3","D2","batch4","pattern_show_trial_num","null","<p class=block-text>Trial 34 out of 78</p>","null","","","","","","","","","","","","","","","","","","","","","","","","","",""
"","","","","","image-keyboard-response","212","1956171","0.0-3.0-5.0-1.33","63bd81554d9e726756bb2dc3","D2","batch4","pattern_response","1101.4000000059605","stim/yes_29_hor_b1_b.png","f","pattern_52","f","true","","","","1101.4000000059605","true","33","","","","","","","","","","","","","","","","",""
"","","","","","html-keyboard-response","213","1957495","0.0-3.0-5.0-0.34","63bd81554d9e726756bb2dc3","D2","batch4","pattern_show_trial_num","null","<p class=block-text>Trial 35 out of 78</p>","null","","","","","","","","","","","","","","","","","","","","","","","","","",""
"","","","","","image-keyboard-response","214","1959774","0.0-3.0-5.0-1.34","63bd81554d9e726756bb2dc3","D2","batch4","pattern_response","2275.199999988079","stim/yes_42_dia_w1_w.png","f","pattern_64","f","true","","","","2275.199999988079","true","34","","","","","","","","","","","","","","","","",""
"","","","","","html-keyboard-response","215","1961097","0.0-3.0-5.0-0.35","63bd81554d9e726756bb2dc3","D2","batch4","pattern_show_trial_num","null","<p class=block-text>Trial 36 out of 78</p>","null","","","","","","","","","","","","","","","","","","","","","","","","","",""
"","","","","","image-keyboard-response","216","1967691","0.0-3.0-5.0-1.35","63bd81554d9e726756bb2dc3","D2","batch4","pattern_response","6591","stim/yes_63_dia_b1.png","j","pattern_78","f","false","","","","6591","false","34","","","","","","","","","","","","","","","","",""
"","","","","","html-keyboard-response","217","1969017","0.0-3.0-5.0-0.36","63bd81554d9e726756bb2dc3","D2","batch4","pattern_show_trial_num","null","<p class=block-text>Trial 37 out of 78</p>","null","","","","","","","","","","","","","","","","","","","","","","","","","",""
"","","","","","image-keyboard-response","218","1970130","0.0-3.0-5.0-1.36","63bd81554d9e726756bb2dc3","D2","batch4","pattern_response","1108.5","stim/yes_39_hor_w1_w.png","f","pattern_62","f","true","","","","1108.5","true","35","","","","","","","","","","","","","","","","",""
"","","","","","html-keyboard-response","219","1971440","0.0-3.0-5.0-0.37","63bd81554d9e726756bb2dc3","D2","batch4","pattern_show_trial_num","null","<p class=block-text>Trial 38 out of 78</p>","null","","","","","","","","","","","","","","","","","","","","","","","","","",""
"","","","","","image-keyboard-response","220","1975552","0.0-3.0-5.0-1.37","63bd81554d9e726756bb2dc3","D2","batch4","pattern_response","4107.700000017881","stim/no_53_1_b.png","j","pattern_33","j","true","","","","4107.700000017881","true","36","","","","","","","","","","","","","","","","",""
"","","","","","html-keyboard-response","221","1976870","0.0-3.0-5.0-0.38","63bd81554d9e726756bb2dc3","D2","batch4","pattern_show_trial_num","null","<p class=block-text>Trial 39 out of 78</p>","null","","","","","","","","","","","","","","","","","","","","","","","","","",""
"","","","","","image-keyboard-response","222","1982039","0.0-3.0-5.0-1.38","63bd81554d9e726756bb2dc3","D2","batch4","pattern_response","5166","stim/yes_58_dia_w1_w.png","j","pattern_76","f","false","","","","5166","false","36","","","","","","","","","","","","","","","","",""
"","","","","","image-keyboard-response","223","1985585","0.0-3.0-6.0","63bd81554d9e726756bb2dc3","D2","batch4","attention_check","3032.5999999940395","stim/empty_board.png","j","","j","true","","","","","","","500","[""f"",""j""]","","","","","","","","","","","","","","",""
"","","","","","html-keyboard-response","224","1986399","0.0-3.0-7.0-0.0","63bd81554d9e726756bb2dc3","D2","batch4","pattern_show_trial_num","null","<p class=block-text>Trial 40 out of 78</p>","null","","","","","","","","","","","","","","","","","","","","","","","","","",""
"","","","","","image-keyboard-response","225","1989370","0.0-3.0-7.0-1.0","63bd81554d9e726756bb2dc3","D2","batch4","pattern_response","2967.5","stim/no_32_1_w.png","j","pattern_14","j","true","","","","2967.5","true","37","","","","","","","","","","","","","","","","",""
"","","","","","html-keyboard-response","226","1990694","0.0-3.0-7.0-0.1","63bd81554d9e726756bb2dc3","D2","batch4","pattern_show_trial_num","null","<p class=block-text>Trial 41 out of 78</p>","null","","","","","","","","","","","","","","","","","","","","","","","","","",""
"","","","","","image-keyboard-response","227","1994418","0.0-3.0-7.0-1.1","63bd81554d9e726756bb2dc3","D2","batch4","pattern_response","3721.7000000178814","stim/no_52_1.png","j","pattern_32","j","true","","","","3721.7000000178814","true","38","","","","","","","","","","","","","","","","",""
"","","","","","html-keyboard-response","228","1995747","0.0-3.0-7.0-0.2","63bd81554d9e726756bb2dc3","D2","batch4","pattern_show_trial_num","null","<p class=block-text>Trial 42 out of 78</p>","null","","","","","","","","","","","","","","","","","","","","","","","","","",""
"","","","","","image-keyboard-response","229","1996543","0.0-3.0-7.0-1.2","63bd81554d9e726756bb2dc3","D2","batch4","pattern_response","791.6999999880791","stim/yes_14_hor_b1_w.png","f","pattern_43","f","true","","","","791.6999999880791","true","39","","","","","","","","","","","","","","","","",""
"","","","","","html-keyboard-response","230","1997870","0.0-3.0-7.0-0.3","63bd81554d9e726756bb2dc3","D2","batch4","pattern_show_trial_num","null","<p class=block-text>Trial 43 out of 78</p>","null","","","","","","","","","","","","","","","","","","","","","","","","","",""
"","","","","","image-keyboard-response","231","1999079","0.0-3.0-7.0-1.3","63bd81554d9e726756bb2dc3","D2","batch4","pattern_response","1207.2999999821186","stim/no_17_1_w.png","j","pattern_04","j","true","","","","1207.2999999821186","true","40","","","","","","","","","","","","","","","","",""
"","","","","","html-keyboard-response","232","2000401","0.0-3.0-7.0-0.4","63bd81554d9e726756bb2dc3","D2","batch4","pattern_show_trial_num","null","<p class=block-text>Trial 44 out of 78</p>","null","","","","","","","","","","","","","","","","","","","","","","","","","",""
"","","","","","image-keyboard-response","233","2003801","0.0-3.0-7.0-1.4","63bd81554d9e726756bb2dc3","D2","batch4","pattern_response","3397.600000023842","stim/yes_67_hor_b1.png","f","pattern_79","f","true","","","","3397.600000023842","true","41","","","","","","","","","","","","","","","","",""
"","","","","","html-keyboard-response","234","2005114","0.0-3.0-7.0-0.5","63bd81554d9e726756bb2dc3","D2","batch4","pattern_show_trial_num","null","<p class=block-text>Trial 45 out of 78</p>","null","","","","","","","","","","","","","","","","","","","","","","","","","",""
"","","","","","image-keyboard-response","235","2008136","0.0-3.0-7.0-1.5","63bd81554d9e726756bb2dc3","D2","batch4","pattern_response","3018","stim/yes_40_dia_b1_b.png","j","pattern_63","f","false","","","","3018","false","41","","","","","","","","","","","","","","","","",""
"","","","","","html-keyboard-response","236","2009465","0.0-3.0-7.0-0.6","63bd81554d9e726756bb2dc3","D2","batch4","pattern_show_trial_num","null","<p class=block-text>Trial 46 out of 78</p>","null","","","","","","","","","","","","","","","","","","","","","","","","","",""
"","","","","","image-keyboard-response","237","2011005","0.0-3.0-7.0-1.6","63bd81554d9e726756bb2dc3","D2","batch4","pattern_response","1537.2000000178814","stim/yes_29_ver_w1.png","f","pattern_53","f","true","","","","1537.2000000178814","true","42","","","","","","","","","","","","","","","","",""
"","","","","","html-keyboard-response","238","2012325","0.0-3.0-7.0-0.7","63bd81554d9e726756bb2dc3","D2","batch4","pattern_show_trial_num","null","<p class=block-text>Trial 47 out of 78</p>","null","","","","","","","","","","","","","","","","","","","","","","","","","",""
"","","","","","image-keyboard-response","239","2014672","0.0-3.0-7.0-1.7","63bd81554d9e726756bb2dc3","D2","batch4","pattern_response","2344.7999999821186","stim/yes_31_hor_b1.png","f","pattern_55","f","true","","","","2344.7999999821186","true","43","","","","","","","","","","","","","","","","",""
"","","","","","html-keyboard-response","240","2015992","0.0-3.0-7.0-0.8","63bd81554d9e726756bb2dc3","D2","batch4","pattern_show_trial_num","null","<p class=block-text>Trial 48 out of 78</p>","null","","","","","","","","","","","","","","","","","","","","","","","","","",""
"","","","","","image-keyboard-response","241","2018145","0.0-3.0-7.0-1.8","63bd81554d9e726756bb2dc3","D2","batch4","pattern_response","2149.699999988079","stim/no_26_1_w.png","j","pattern_10","j","true","","","","2149.699999988079","true","44","","","","","","","","","","","","","","","","",""
"","","","","","html-keyboard-response","242","2019461","0.0-3.0-7.0-0.9","63bd81554d9e726756bb2dc3","D2","batch4","pattern_show_trial_num","null","<p class=block-text>Trial 49 out of 78</p>","null","","","","","","","","","","","","","","","","","","","","","","","","","",""
"","","","","","image-keyboard-response","243","2028238","0.0-3.0-7.0-1.9","63bd81554d9e726756bb2dc3","D2","batch4","pattern_response","8774.299999982119","stim/no_65_1_b.png","j","pattern_38","j","true","","","","8774.299999982119","true","45","","","","","","","","","","","","","","","","",""
"","","","","","html-keyboard-response","244","2029555","0.0-3.0-7.0-0.10","63bd81554d9e726756bb2dc3","D2","batch4","pattern_show_trial_num","null","<p class=block-text>Trial 50 out of 78</p>","null","","","","","","","","","","","","","","","","","","","","","","","","","",""
"","","","","","image-keyboard-response","245","2031021","0.0-3.0-7.0-1.10","63bd81554d9e726756bb2dc3","D2","batch4","pattern_response","1462.0999999940395","stim/yes_43_ver_w1_w.png","f","pattern_65","f","true","","","","1462.0999999940395","true","46","","","","","","","","","","","","","","","","",""
"","","","","","html-keyboard-response","246","2032341","0.0-3.0-7.0-0.11","63bd81554d9e726756bb2dc3","D2","batch4","pattern_show_trial_num","null","<p class=block-text>Trial 51 out of 78</p>","null","","","","","","","","","","","","","","","","","","","","","","","","","",""
"","","","","","image-keyboard-response","247","2035291","0.0-3.0-7.0-1.11","63bd81554d9e726756bb2dc3","D2","batch4","pattern_response","2947.4000000059605","stim/no_36_2_w.png","j","pattern_18","j","true","","","","2947.4000000059605","true","47","","","","","","","","","","","","","","","","",""
"","","","","","html-keyboard-response","248","2036616","0.0-3.0-7.0-0.12","63bd81554d9e726756bb2dc3","D2","batch4","pattern_show_trial_num","null","<p class=block-text>Trial 52 out of 78</p>","null","","","","","","","","","","","","","","","","","","","","","","","","","",""
"","","","","","image-keyboard-response","249","2037500","0.0-3.0-7.0-1.12","63bd81554d9e726756bb2dc3","D2","batch4","pattern_response","882.5","stim/yes_38_hor_b1_b.png","f","pattern_61","f","true","","","","882.5","true","48","","","","","","","","","","","","","","","","",""
"","","","","","html-keyboard-response","250","2038804","0.0-3.0-7.0-0.13","63bd81554d9e726756bb2dc3","D2","batch4","pattern_show_trial_num","null","<p class=block-text>Trial 53 out of 78</p>","null","","","","","","","","","","","","","","","","","","","","","","","","","",""
"","","","","","image-keyboard-response","251","2043683","0.0-3.0-7.0-1.13","63bd81554d9e726756bb2dc3","D2","batch4","pattern_response","4875.200000017881","stim/yes_50_dia_w1.png","j","pattern_71","f","false","","","","4875.200000017881","false","48","","","","","","","","","","","","","","","","",""
"","","","","","html-keyboard-response","252","2044997","0.0-3.0-7.0-0.14","63bd81554d9e726756bb2dc3","D2","batch4","pattern_show_trial_num","null","<p class=block-text>Trial 54 out of 78</p>","null","","","","","","","","","","","","","","","","","","","","","","","","","",""
"","","","","","image-keyboard-response","253","2046575","0.0-3.0-7.0-1.14","63bd81554d9e726756bb2dc3","D2","batch4","pattern_response","1574.6000000238419","stim/no_20_1_w.png","j","pattern_06","j","true","","","","1574.6000000238419","true","49","","","","","","","","","","","","","","","","",""
"","","","","","html-keyboard-response","254","2047894","0.0-3.0-7.0-0.15","63bd81554d9e726756bb2dc3","D2","batch4","pattern_show_trial_num","null","<p class=block-text>Trial 55 out of 78</p>","null","","","","","","","","","","","","","","","","","","","","","","","","","",""
"","","","","","image-keyboard-response","255","2048529","0.0-3.0-7.0-1.15","63bd81554d9e726756bb2dc3","D2","batch4","pattern_response","634.0999999940395","stim/yes_25_hor_b1_b.png","f","pattern_49","f","true","","","","634.0999999940395","true","50","","","","","","","","","","","","","","","","",""
"","","","","","html-keyboard-response","256","2049848","0.0-3.0-7.0-0.16","63bd81554d9e726756bb2dc3","D2","batch4","pattern_show_trial_num","null","<p class=block-text>Trial 56 out of 78</p>","null","","","","","","","","","","","","","","","","","","","","","","","","","",""
"","","","","","image-keyboard-response","257","2053844","0.0-3.0-7.0-1.16","63bd81554d9e726756bb2dc3","D2","batch4","pattern_response","3993.7999999821186","stim/no_44_1.png","j","pattern_24","j","true","","","","3993.7999999821186","true","51","","","","","","","","","","","","","","","","",""
"","","","","","html-keyboard-response","258","2055160","0.0-3.0-7.0-0.17","63bd81554d9e726756bb2dc3","D2","batch4","pattern_show_trial_num","null","<p class=block-text>Trial 57 out of 78</p>","null","","","","","","","","","","","","","","","","","","","","","","","","","",""
"","","","","","image-keyboard-response","259","2056686","0.0-3.0-7.0-1.17","63bd81554d9e726756bb2dc3","D2","batch4","pattern_response","1524.7999999821186","stim/yes_52_ver_w1.png","f","pattern_73","f","true","","","","1524.7999999821186","true","52","","","","","","","","","","","","","","","","",""
"","","","","","html-keyboard-response","260","2058017","0.0-3.0-7.0-0.18","63bd81554d9e726756bb2dc3","D2","batch4","pattern_show_trial_num","null","<p class=block-text>Trial 58 out of 78</p>","null","","","","","","","","","","","","","","","","","","","","","","","","","",""
"","","","","","image-keyboard-response","261","2063840","0.0-3.0-7.0-1.18","63bd81554d9e726756bb2dc3","D2","batch4","pattern_response","5820.9000000059605","stim/no_62_1_w.png","j","pattern_36","j","true","","","","5820.9000000059605","true","53","","","","","","","","","","","","","","","","",""
"","","","","","html-keyboard-response","262","2065146","0.0-3.0-7.0-0.19","63bd81554d9e726756bb2dc3","D2","batch4","pattern_show_trial_num","null","<p class=block-text>Trial 59 out of 78</p>","null","","","","","","","","","","","","","","","","","","","","","","","","","",""
"","","","","","image-keyboard-response","263","2066008","0.0-3.0-7.0-1.19","63bd81554d9e726756bb2dc3","D2","batch4","pattern_response","858.0999999940395","stim/no_13_2_b.png","j","pattern_02","j","true","","","","858.0999999940395","true","54","","","","","","","","","","","","","","","","",""
"","","","","","html-keyboard-response","264","2067326","0.0-3.0-7.0-0.20","63bd81554d9e726756bb2dc3","D2","batch4","pattern_show_trial_num","null","<p class=block-text>Trial 60 out of 78</p>","null","","","","","","","","","","","","","","","","","","","","","","","","","",""
"","","","","","image-keyboard-response","265","2068099","0.0-3.0-7.0-1.20","63bd81554d9e726756bb2dc3","D2","batch4","pattern_response","771.5999999940395","stim/yes_17_dia_w1.png","f","pattern_45","f","true","","","","771.5999999940395","true","55","","","","","","","","","","","","","","","","",""
"","","","","","html-keyboard-response","266","2069432","0.0-3.0-7.0-0.21","63bd81554d9e726756bb2dc3","D2","batch4","pattern_show_trial_num","null","<p class=block-text>Trial 61 out of 78</p>","null","","","","","","","","","","","","","","","","","","","","","","","","","",""
"","","","","","image-keyboard-response","267","2070302","0.0-3.0-7.0-1.21","63bd81554d9e726756bb2dc3","D2","batch4","pattern_response","867.4000000059605","stim/yes_55_hor_w1_w.png","f","pattern_75","f","true","","","","867.4000000059605","true","56","","","","","","","","","","","","","","","","",""
"","","","","","html-keyboard-response","268","2071615","0.0-3.0-7.0-0.22","63bd81554d9e726756bb2dc3","D2","batch4","pattern_show_trial_num","null","<p class=block-text>Trial 62 out of 78</p>","null","","","","","","","","","","","","","","","","","","","","","","","","","",""
"","","","","","image-keyboard-response","269","2075051","0.0-3.0-7.0-1.22","63bd81554d9e726756bb2dc3","D2","batch4","pattern_response","3432.300000011921","stim/no_46_1_b.png","j","pattern_26","j","true","","","","3432.300000011921","true","57","","","","","","","","","","","","","","","","",""
"","","","","","html-keyboard-response","270","2076370","0.0-3.0-7.0-0.23","63bd81554d9e726756bb2dc3","D2","batch4","pattern_show_trial_num","null","<p class=block-text>Trial 63 out of 78</p>","null","","","","","","","","","","","","","","","","","","","","","","","","","",""
"","","","","","image-keyboard-response","271","2077980","0.0-3.0-7.0-1.23","63bd81554d9e726756bb2dc3","D2","batch4","pattern_response","1606","stim/yes_45_hor_b2_b.png","f","pattern_67","f","true","","","","1606","true","58","","","","","","","","","","","","","","","","",""
"","","","","","html-keyboard-response","272","2079297","0.0-3.0-7.0-0.24","63bd81554d9e726756bb2dc3","D2","batch4","pattern_show_trial_num","null","<p class=block-text>Trial 64 out of 78</p>","null","","","","","","","","","","","","","","","","","","","","","","","","","",""
"","","","","","image-keyboard-response","273","2085687","0.0-3.0-7.0-1.24","63bd81554d9e726756bb2dc3","D2","batch4","pattern_response","6385.9000000059605","stim/no_70_2.png","j","pattern_40","j","true","","","","6385.9000000059605","true","59","","","","","","","","","","","","","","","","",""
"","","","","","html-keyboard-response","274","2086997","0.0-3.0-7.0-0.25","63bd81554d9e726756bb2dc3","D2","batch4","pattern_show_trial_num","null","<p class=block-text>Trial 65 out of 78</p>","null","","","","","","","","","","","","","","","","","","","","","","","","","",""
"","","","","","image-keyboard-response","275","2090289","0.0-3.0-7.0-1.25","63bd81554d9e726756bb2dc3","D2","batch4","pattern_response","3287.5","stim/no_42_1_w.png","j","pattern_22","j","true","","","","3287.5","true","60","","","","","","","","","","","","","","","","",""
"","","","","","html-keyboard-response","276","2091607","0.0-3.0-7.0-0.26","63bd81554d9e726756bb2dc3","D2","batch4","pattern_show_trial_num","null","<p class=block-text>Trial 66 out of 78</p>","null","","","","","","","","","","","","","","","","","","","","","","","","","",""
"","","","","","image-keyboard-response","277","2093035","0.0-3.0-7.0-1.26","63bd81554d9e726756bb2dc3","D2","batch4","pattern_response","1424","stim/yes_35_dia_b1.png","f","pattern_57","f","true","","","","1424","true","61","","","","","","","","","","","","","","","","",""
"","","","","","html-keyboard-response","278","2094347","0.0-3.0-7.0-0.27","63bd81554d9e726756bb2dc3","D2","batch4","pattern_show_trial_num","null","<p class=block-text>Trial 67 out of 78</p>","null","","","","","","","","","","","","","","","","","","","","","","","","","",""
"","","","","","image-keyboard-response","279","2095233","0.0-3.0-7.0-1.27","63bd81554d9e726756bb2dc3","D2","batch4","pattern_response","883.9000000059605","stim/yes_22_ver_w1.png","f","pattern_47","f","true","","","","883.9000000059605","true","62","","","","","","","","","","","","","","","","",""
"","","","","","html-keyboard-response","280","2096552","0.0-3.0-7.0-0.28","63bd81554d9e726756bb2dc3","D2","batch4","pattern_show_trial_num","null","<p class=block-text>Trial 68 out of 78</p>","null","","","","","","","","","","","","","","","","","","","","","","","","","",""
"","","","","","image-keyboard-response","281","2101080","0.0-3.0-7.0-1.28","63bd81554d9e726756bb2dc3","D2","batch4","pattern_response","4525.200000017881","stim/no_50_1.png","j","pattern_30","j","true","","","","4525.200000017881","true","63","","","","","","","","","","","","","","","","",""
"","","","","","html-keyboard-response","282","2102405","0.0-3.0-7.0-0.29","63bd81554d9e726756bb2dc3","D2","batch4","pattern_show_trial_num","null","<p class=block-text>Trial 69 out of 78</p>","null","","","","","","","","","","","","","","","","","","","","","","","","","",""
"","","","","","image-keyboard-response","283","2107122","0.0-3.0-7.0-1.29","63bd81554d9e726756bb2dc3","D2","batch4","pattern_response","4712.700000017881","stim/no_48_1_w.png","j","pattern_28","j","true","","","","4712.700000017881","true","64","","","","","","","","","","","","","","","","",""
"","","","","","html-keyboard-response","284","2108436","0.0-3.0-7.0-0.30","63bd81554d9e726756bb2dc3","D2","batch4","pattern_show_trial_num","null","<p class=block-text>Trial 70 out of 78</p>","null","","","","","","","","","","","","","","","","","","","","","","","","","",""
"","","","","","image-keyboard-response","285","2110297","0.0-3.0-7.0-1.30","63bd81554d9e726756bb2dc3","D2","batch4","pattern_response","1856","stim/yes_37_dia_w1.png","f","pattern_59","f","true","","","","1856","true","65","","","","","","","","","","","","","","","","",""
"","","","","","html-keyboard-response","286","2111625","0.0-3.0-7.0-0.31","63bd81554d9e726756bb2dc3","D2","batch4","pattern_show_trial_num","null","<p class=block-text>Trial 71 out of 78</p>","null","","","","","","","","","","","","","","","","","","","","","","","","","",""
"","","","","","image-keyboard-response","287","2112613","0.0-3.0-7.0-1.31","63bd81554d9e726756bb2dc3","D2","batch4","pattern_response","987.0999999940395","stim/yes_28_ver_b1.png","f","pattern_51","f","true","","","","987.0999999940395","true","66","","","","","","","","","","","","","","","","",""
"","","","","","html-keyboard-response","288","2113929","0.0-3.0-7.0-0.32","63bd81554d9e726756bb2dc3","D2","batch4","pattern_show_trial_num","null","<p class=block-text>Trial 72 out of 78</p>","null","","","","","","","","","","","","","","","","","","","","","","","","","",""
"","","","","","image-keyboard-response","289","2116212","0.0-3.0-7.0-1.32","63bd81554d9e726756bb2dc3","D2","batch4","pattern_response","2280.0999999940395","stim/no_23_1.png","j","pattern_08","j","true","","","","2280.0999999940395","true","67","","","","","","","","","","","","","","","","",""
"","","","","","html-keyboard-response","290","2117525","0.0-3.0-7.0-0.33","63bd81554d9e726756bb2dc3","D2","batch4","pattern_show_trial_num","null","<p class=block-text>Trial 73 out of 78</p>","null","","","","","","","","","","","","","","","","","","","","","","","","","",""
"","","","","","image-keyboard-response","291","2119768","0.0-3.0-7.0-1.33","63bd81554d9e726756bb2dc3","D2","batch4","pattern_response","2240.800000011921","stim/no_29_1_b.png","j","pattern_12","j","true","","","","2240.800000011921","true","68","","","","","","","","","","","","","","","","",""
"","","","","","html-keyboard-response","292","2121080","0.0-3.0-7.0-0.34","63bd81554d9e726756bb2dc3","D2","batch4","pattern_show_trial_num","null","<p class=block-text>Trial 74 out of 78</p>","null","","","","","","","","","","","","","","","","","","","","","","","","","",""
"","","","","","image-keyboard-response","293","2124375","0.0-3.0-7.0-1.34","63bd81554d9e726756bb2dc3","D2","batch4","pattern_response","3291.9000000059605","stim/no_38_1_b.png","j","pattern_20","j","true","","","","3291.9000000059605","true","69","","","","","","","","","","","","","","","","",""
"","","","","","html-keyboard-response","294","2125697","0.0-3.0-7.0-0.35","63bd81554d9e726756bb2dc3","D2","batch4","pattern_show_trial_num","null","<p class=block-text>Trial 75 out of 78</p>","null","","","","","","","","","","","","","","","","","","","","","","","","","",""
"","","","","","image-keyboard-response","295","2130992","0.0-3.0-7.0-1.35","63bd81554d9e726756bb2dc3","D2","batch4","pattern_response","5298.5999999940395","stim/no_55_1_w.png","j","pattern_34","j","true","","","","5298.5999999940395","true","70","","","","","","","","","","","","","","","","",""
"","","","","","html-keyboard-response","296","2132309","0.0-3.0-7.0-0.36","63bd81554d9e726756bb2dc3","D2","batch4","pattern_show_trial_num","null","<p class=block-text>Trial 76 out of 78</p>","null","","","","","","","","","","","","","","","","","","","","","","","","","",""
"","","","","","image-keyboard-response","297","2134403","0.0-3.0-7.0-1.36","63bd81554d9e726756bb2dc3","D2","batch4","pattern_response","2091.7999999821186","stim/yes_48_dia_w1_w.png","f","pattern_69","f","true","","","","2091.7999999821186","true","71","","","","","","","","","","","","","","","","",""
"","","","","","html-keyboard-response","298","2135715","0.0-3.0-7.0-0.37","63bd81554d9e726756bb2dc3","D2","batch4","pattern_show_trial_num","null","<p class=block-text>Trial 77 out of 78</p>","null","","","","","","","","","","","","","","","","","","","","","","","","","",""
"","","","","","image-keyboard-response","299","2137174","0.0-3.0-7.0-1.37","63bd81554d9e726756bb2dc3","D2","batch4","pattern_response","1455.199999988079","stim/yes_60_ver_b1_b.png","f","pattern_77","f","true","","","","1455.199999988079","true","72","","","","","","","","","","","","","","","","",""
"","","","","","html-keyboard-response","300","2138500","0.0-3.0-7.0-0.38","63bd81554d9e726756bb2dc3","D2","batch4","pattern_show_trial_num","null","<p class=block-text>Trial 78 out of 78</p>","null","","","","","","","","","","","","","","","","","","","","","","","","","",""
"","","","","","image-keyboard-response","301","2142607","0.0-3.0-7.0-1.38","63bd81554d9e726756bb2dc3","D2","batch4","pattern_response","4104.300000011921","stim/no_34_1_b.png","j","pattern_16","j","true","","","","4104.300000011921","true","73","","","","","","","","","","","","","","","","",""
"","","","","","html-button-response","302","2158965","0.0-3.0-8.0","63bd81554d9e726756bb2dc3","D2","batch4","","15844.199999988079","<p class = block-text>This concludes the 4-in-a-row detection game.Thank you for your responses!<br>
            You responded correctly on 94% of the trials.<br>
            When you are ready, press ""Continue"" button to continue </p>","0","","","","","","","","","","","","","","","","","","","","","","","","","",""
"true","","","","","fullscreen","303","2162466","0.0-4.0-0.0","63bd81554d9e726756bb2dc3","D2","batch4","","","","","","","","","","","","","","","","","","","","","","","","","","","","","",""
"","","","","","instructions","304","2200611","0.0-4.0-1.0-0.0-0.0","63bd81554d9e726756bb2dc3","D2","batch4","tol-instructions","38135.29999998212","","","","","","","","[{""page_index"":0,""viewing_time"":10393.199999988079},{""page_index"":1,""viewing_time"":6611.800000011921},{""page_index"":2,""viewing_time"":5049.5999999940395},{""page_index"":3,""viewing_time"":8268.5},{""page_index"":4,""viewing_time"":2721.7999999821186},{""page_index"":5,""viewing_time"":2792.100000023842},{""page_index"":6,""viewing_time"":2298}]","","","","","","","","","","","","","","","","","","","",""
"","","","","","html-button-response","305","2201975","0.0-4.0-1.0-1.0-0.0","63bd81554d9e726756bb2dc3","D2","batch4","tol_enter_quiz","1362.800000011921","<p class=block-text> Let's answer a few questions <br>","0","","","","","","","","","","","","","","","","","","","","","","","","","",""
"","","","","","html-button-response","306","2210283","0.0-4.0-1.0-1.0-1.0","63bd81554d9e726756bb2dc3","D2","batch4","tol_quiz","8306.700000017881","<p class = block-text>True or False: You can only move the ball on top of a peg. <br></p>","0","","","true","","","","","","","","","","","","","","","","","","","","","","",""
"","","","","","html-button-response","307","2212128","0.0-4.0-1.0-1.0-2.0","63bd81554d9e726756bb2dc3","D2","batch4","tol_quiz_feedback","1843.300000011921","<p class = block-text>Correct! You can only move the ball on top of a peg.</p>","0","","","","","","","","","","","","","","","","","","","","","","","","","",""
"","","","","","html-button-response","308","2215609","0.0-4.0-1.0-1.0-3.0","63bd81554d9e726756bb2dc3","D2","batch4","tol_quiz","3479.5999999940395","<p class = block-text>True or False: You should try to match your board with the target board with fewest moves possible. <br></p>","0","","","true","","","","","","","","","","","","","","","","","","","","","","",""
"","","","","","html-button-response","309","2216747","0.0-4.0-1.0-1.0-4.0","63bd81554d9e726756bb2dc3","D2","batch4","tol_quiz_feedback","1136.800000011921","<p class = block-text>Correct! </p>","0","","","","","","","","","","","","","","","","","","","","","","","","","",""
"","","","","","html-button-response","310","2219230","0.0-4.0-2.0","63bd81554d9e726756bb2dc3","D2","batch4","","2481.5999999940395","<p class=block-text> Now that you've understood the game, let's practice a few easier examples before we start!<br> <br>","0","","","","","","","","","","","","","","","","","","","","","","","","","",""
"","","","","","single-stim-button","311","2221981","0.0-4.0-3.0-0.0","63bd81554d9e726756bb2dc3","D2","batch4","tol_practice","2749","","","","","","","","","","","","","","tol_peg_2","2749","2749","0","[[1,2,0],[0,0],[0]]","1","[[1,2,0],[0,0],[3]]","practice","2749","","","","","",""
"","","","","","single-stim-button","312","2223549","0.0-4.0-3.0-1.0","63bd81554d9e726756bb2dc3","D2","batch4","tol_practice","1566","","","","","","","","","","","","","","tol_peg_3","1566","1566","0","[[1,2,0],[0,0],[3]]","1","[[1,2,0],[0,0],[3]]","practice","1566","","","","","",""
"","","","","","poldrack-single-stim","313","2224552","0.0-4.0-4.0","63bd81554d9e726756bb2dc3","D2","batch4","tol_feedback","-1","","","","","true","","","","","","","","","","1000","1000","500","","","","","","-1","none","true","","0",""
"","","","","","single-stim-button","314","2228467","0.0-4.0-5.0-0.0","63bd81554d9e726756bb2dc3","D2","batch4","tol_practice","3914","","","","","","","","","","","","","","tol_peg_1","3914","3914","0","[[1,0,0],[3,0],[0]]","2","[[0,0,0],[3,1],[2]]","practice","3914","","","","","",""
"","","","","","single-stim-button","315","2230416","0.0-4.0-5.0-1.0","63bd81554d9e726756bb2dc3","D2","batch4","tol_practice","1947","","","","","","","","","","","","","","tol_peg_3","1947","1947","0","[[1,0,0],[3,0],[2]]","2","[[0,0,0],[3,1],[2]]","practice","1947","","","","","",""
"","","","","","single-stim-button","316","2231363","0.0-4.0-5.1-0.1","63bd81554d9e726756bb2dc3","D2","batch4","tol_practice","947","","","","","","","","","","","","","","tol_peg_1","947","947","0","[[0,0,0],[3,0],[2]]","3","[[0,0,0],[3,1],[2]]","practice","947","","","","","",""
"","","","","","single-stim-button","317","2233154","0.0-4.0-5.1-1.1","63bd81554d9e726756bb2dc3","D2","batch4","tol_practice","1791","","","","","","","","","","","","","","tol_peg_2","1791","1791","0","[[0,0,0],[3,1],[2]]","3","[[0,0,0],[3,1],[2]]","practice","1791","","","","","",""
"","","","","","poldrack-single-stim","318","2234165","0.0-4.0-6.0","63bd81554d9e726756bb2dc3","D2","batch4","tol_feedback","-1","","","","","true","","","","","","","","","","1000","1000","500","","","","","","-1","none","true","","0",""
"","","","","","single-stim-button","319","2238341","0.0-4.0-7.0-0.0","63bd81554d9e726756bb2dc3","D2","batch4","tol_practice","4175","","","","","","","","","","","","","","tol_peg_2","4175","4175","0","[[1,2,0],[0,0],[0]]","4","[[1,0,0],[2,0],[3]]","practice","4175","","","","","",""
"","","","","","single-stim-button","320","2239791","0.0-4.0-7.0-1.0","63bd81554d9e726756bb2dc3","D2","batch4","tol_practice","1450","","","","","","","","","","","","","","tol_peg_3","1450","1450","0","[[1,2,0],[0,0],[3]]","4","[[1,0,0],[2,0],[3]]","practice","1450","","","","","",""
"","","","","","single-stim-button","321","2240843","0.0-4.0-7.1-0.1","63bd81554d9e726756bb2dc3","D2","batch4","tol_practice","1051","","","","","","","","","","","","","","tol_peg_1","1051","1051","0","[[1,0,0],[0,0],[3]]","5","[[1,0,0],[2,0],[3]]","practice","1051","","","","","",""
"","","","","","single-stim-button","322","2241935","0.0-4.0-7.1-1.1","63bd81554d9e726756bb2dc3","D2","batch4","tol_practice","1091","","","","","","","","","","","","","","tol_peg_2","1091","1091","0","[[1,0,0],[2,0],[3]]","5","[[1,0,0],[2,0],[3]]","practice","1091","","","","","",""
"","","","","","poldrack-single-stim","323","2242937","0.0-4.0-8.0","63bd81554d9e726756bb2dc3","D2","batch4","tol_feedback","-1","","","","","true","","","","","","","","","","1000","1000","500","","","","","","-1","none","true","","0",""
"","","","","","html-button-response","324","2244641","0.0-4.0-9.0","63bd81554d9e726756bb2dc3","D2","batch4","tol_instruction","1702.300000011921","<div class = centerbox><p class = center-block-text>Great job! You are done with practice trials<br>You are about to start official trials.<br> <br> Problem <strong>1</strong> out of 25 problems</p></div>","0","","","","","","","","","","","","","","","","","","","","","","","","","",""
"","","","","","single-stim-button","325","2249769","0.0-4.0-10.0-0.0","63bd81554d9e726756bb2dc3","D2","batch4","tol_tohand","4124","","","","","","","","","","","","","","tol_peg_1","4124","4124","0","[[1,0,0],[3,0],[0]]","1","[[1,3,0],[2,0],[0]]","0","0","","","","","","3"
"","","","","","single-stim-button","326","2251009","0.0-4.0-10.0-1.0","63bd81554d9e726756bb2dc3","D2","batch4","tol_toboard","1238","","","","","","","","","","","","","","tol_peg_3","1238","1238","0","[[1,0,0],[3,0],[2]]","1","[[1,3,0],[2,0],[0]]","0","0","","","","","","3"
"","","","","","single-stim-button","327","2252479","0.0-4.0-10.1-0.1","63bd81554d9e726756bb2dc3","D2","batch4","tol_tohand","1469","","","","","","","","","","","","","","tol_peg_2","1469","1469","0","[[1,0,0],[0,0],[2]]","2","[[1,3,0],[2,0],[0]]","0","0","","","","","","3"
"","","","","","single-stim-button","328","2253629","0.0-4.0-10.1-1.1","63bd81554d9e726756bb2dc3","D2","batch4","tol_toboard","1149","","","","","","","","","","","","","","tol_peg_1","1149","1149","0","[[1,3,0],[0,0],[2]]","2","[[1,3,0],[2,0],[0]]","0","0","","","","","","3"
"","","","","","single-stim-button","329","2254492","0.0-4.0-10.2-0.2","63bd81554d9e726756bb2dc3","D2","batch4","tol_tohand","863","","","","","","","","","","","","","","tol_peg_3","863","863","0","[[1,3,0],[0,0],[0]]","3","[[1,3,0],[2,0],[0]]","0","0","","","","","","3"
"","","","","","single-stim-button","330","2255331","0.0-4.0-10.2-1.2","63bd81554d9e726756bb2dc3","D2","batch4","tol_toboard","839","","","","","","","","","","","","","","tol_peg_2","839","839","0","[[1,3,0],[2,0],[0]]","3","[[1,3,0],[2,0],[0]]","0","0","","","","","","3"
"","","","","","poldrack-single-stim","331","2256333","0.0-4.0-11.0","63bd81554d9e726756bb2dc3","D2","batch4","tol_feedback","-1","","","","","true","","","","","","","","","","1000","1000","500","","","","","","-1","none","true","4124","6456",""
"","","","","","html-button-response","332","2257799","0.0-4.0-12.0","63bd81554d9e726756bb2dc3","D2","batch4","tol_trial_num","1463.300000011921","<div class = centerbox><p class = center-block-text>problem <strong>2</strong> out of 25 problems</p></div>","0","","","","","","","","","","","","","","","","","","","","","","","","","",""
"","","","","","single-stim-button","333","2263385","0.0-4.0-13.0-0.0","63bd81554d9e726756bb2dc3","D2","batch4","tol_tohand","5585","","","","","","","","","","","","","","tol_peg_1","5585","5585","0","[[1,0,0],[3,0],[0]]","1","[[2,1,3],[0,0],[0]]","1","0","","","","","","5"
"","","","","","single-stim-button","334","2264949","0.0-4.0-13.0-1.0","63bd81554d9e726756bb2dc3","D2","batch4","tol_toboard","1563","","","","","","","","","","","","","","tol_peg_3","1563","1563","0","[[1,0,0],[3,0],[2]]","1","[[2,1,3],[0,0],[0]]","1","0","","","","","","5"
"","","","","","single-stim-button","335","2269307","0.0-4.0-13.1-0.1","63bd81554d9e726756bb2dc3","D2","batch4","tol_tohand","4357","","","","","","","","","","","","","","tol_peg_1","4357","4357","0","[[0,0,0],[3,0],[2]]","2","[[2,1,3],[0,0],[0]]","1","0","","","","","","5"
"","","","","","single-stim-button","336","2271487","0.0-4.0-13.1-1.1","63bd81554d9e726756bb2dc3","D2","batch4","tol_toboard","2179","","","","","","","","","","","","","","tol_peg_2","2179","2179","0","[[0,0,0],[3,1],[2]]","2","[[2,1,3],[0,0],[0]]","1","0","","","","","","5"
"","","","","","single-stim-button","337","2272144","0.0-4.0-13.2-0.2","63bd81554d9e726756bb2dc3","D2","batch4","tol_tohand","657","","","","","","","","","","","","","","tol_peg_3","657","657","0","[[0,0,0],[3,1],[0]]","3","[[2,1,3],[0,0],[0]]","1","0","","","","","","5"
"","","","","","single-stim-button","338","2273629","0.0-4.0-13.2-1.2","63bd81554d9e726756bb2dc3","D2","batch4","tol_toboard","1484","","","","","","","","","","","","","","tol_peg_1","1484","1484","0","[[2,0,0],[3,1],[0]]","3","[[2,1,3],[0,0],[0]]","1","0","","","","","","5"
"","","","","","single-stim-button","339","2275515","0.0-4.0-13.3-0.3","63bd81554d9e726756bb2dc3","D2","batch4","tol_tohand","1885","","","","","","","","","","","","","","tol_peg_2","1885","1885","0","[[2,0,0],[3,0],[0]]","4","[[2,1,3],[0,0],[0]]","1","0","","","","","","5"
"","","","","","single-stim-button","340","2276191","0.0-4.0-13.3-1.3","63bd81554d9e726756bb2dc3","D2","batch4","tol_toboard","675","","","","","","","","","","","","","","tol_peg_1","675","675","0","[[2,1,0],[3,0],[0]]","4","[[2,1,3],[0,0],[0]]","1","0","","","","","","5"
"","","","","","single-stim-button","341","2276829","0.0-4.0-13.4-0.4","63bd81554d9e726756bb2dc3","D2","batch4","tol_tohand","637","","","","","","","","","","","","","","tol_peg_2","637","637","0","[[2,1,0],[0,0],[0]]","5","[[2,1,3],[0,0],[0]]","1","0","","","","","","5"
"","","","","","single-stim-button","342","2277711","0.0-4.0-13.4-1.4","63bd81554d9e726756bb2dc3","D2","batch4","tol_toboard","881","","","","","","","","","","","","","","tol_peg_1","881","881","0","[[2,1,3],[0,0],[0]]","5","[[2,1,3],[0,0],[0]]","1","0","","","","","","5"
"","","","","","poldrack-single-stim","343","2278727","0.0-4.0-14.0","63bd81554d9e726756bb2dc3","D2","batch4","tol_feedback","-1","","","","","true","","","","","","","","","","1000","1000","500","","","","","","-1","none","true","5585","13121",""
"","","","","","html-button-response","344","2279599","0.0-4.0-15.0","63bd81554d9e726756bb2dc3","D2","batch4","tol_trial_num","869.2999999821186","<div class = centerbox><p class = center-block-text>problem <strong>3</strong> out of 25 problems</p></div>","0","","","","","","","","","","","","","","","","","","","","","","","","","",""
"","","","","","single-stim-button","345","2286335","0.0-4.0-16.0-0.0","63bd81554d9e726756bb2dc3","D2","batch4","tol_tohand","6735","","","","","","","","","","","","","","tol_peg_1","6735","6735","0","[[2,0,0],[0,0],[1]]","1","[[1,2,0],[3,0],[0]]","2","0","","","","","","4"
"","","","","","single-stim-button","346","2287421","0.0-4.0-16.0-1.0","63bd81554d9e726756bb2dc3","D2","batch4","tol_toboard","1084","","","","","","","","","","","","","","tol_peg_2","1084","1084","0","[[2,0,0],[3,0],[1]]","1","[[1,2,0],[3,0],[0]]","2","0","","","","","","4"
