"success","timeout","failed_images","failed_audio","failed_video","trial_type","trial_index","time_elapsed","internal_node_id","subject_id","study_id","session_id","view_history","rt","stimulus","response","task","correct","answer","item","fiar_detect_rt","fiar_detect_correct","total_correct_fiar_detect","post_trial_gap","choices","mouse_click","stim_duration","block_duration","timing_post_trial","current_position","tol_num_moves_made","tol_target","tol_problem_id","tol_rt","key_press","possible_responses","tol_correct","preplanning","tol_rt_per_trial","tol_min_moves","spm_correct","spm_rt"
"true","false","[]","[]","[]","preload","0","5400","0.0-0.0","63c173a52e1ba7078e5fd2c0","D2","batch4","","","","","","","","","","","","","","","","","","","","","","","","","","","","","",""
"true","","","","","fullscreen","1","18969","0.0-1.0-0.0","63c173a52e1ba7078e5fd2c0","D2","batch4","","","","","","","","","","","","","","","","","","","","","","","","","","","","","",""
"true","","","","","fullscreen","2","24479","0.0-2.0-0.0","63c173a52e1ba7078e5fd2c0","D2","batch4","","","","","","","","","","","","","","","","","","","","","","","","","","","","","",""
"","","","","","instructions","3","65867","0.0-2.0-1.0-0.0","63c173a52e1ba7078e5fd2c0","D2","batch4","[{""page_index"":0,""viewing_time"":32967.70000000298},{""page_index"":1,""viewing_time"":8415.20000000298}]","41383.60000000894","","","","","","","","","","","","","","","","","","","","","","","","","","","",""
"","","","","","html-button-response","4","67547","0.0-2.0-1.0-1.0-0.0","63c173a52e1ba7078e5fd2c0","D2","batch4","","1677","<p class=block-text> Let's answer a few questions <br>","0","pattern_enter_quiz","","","","","","","","","","","","","","","","","","","","","","","","",""
"","","","","","html-button-response","5","74291","0.0-2.0-1.0-1.0-1.0","63c173a52e1ba7078e5fd2c0","D2","batch4","","6738.9000000059605","<p class = block-text>True or False: You will have as much time as you want to make each choice. <br></p>","1","pattern_quiz","true","","","","","","","","","","","","","","","","","","","","","","","",""
"","","","","","html-button-response","6","76331","0.0-2.0-1.0-1.0-2.0","63c173a52e1ba7078e5fd2c0","D2","batch4","","2033.7999999970198","<p class = block-text>Correct! You should make your choice <strong> as fast as you can</strong>.</p>","0","pattern_quiz_feedback","","","","","","","","","","","","","","","","","","","","","","","","",""
"","","","","","html-button-response","7","83868","0.0-2.0-1.0-1.0-3.0","63c173a52e1ba7078e5fd2c0","D2","batch4","","7533.79999999702","<p class = block-text>True or False: You will look for 4 pieces in black or white color connected in a row either horizontally, vertically or diagonally. <br></p>","0","pattern_quiz","true","","","","","","","","","","","","","","","","","","","","","","","",""
"","","","","","html-button-response","8","85051","0.0-2.0-1.0-1.0-4.0","63c173a52e1ba7078e5fd2c0","D2","batch4","","1179.199999988079","<p class = block-text>Correct! </p>","0","pattern_quiz_feedback","","","","","","","","","","","","","","","","","","","","","","","","",""
"","","","","","html-button-response","9","88730","0.0-2.0-2.0","63c173a52e1ba7078e5fd2c0","D2","batch4","","3674.1000000089407","<p class=block-text> Now that you've understood the game, let's do a few practice trials before we start!<br> <br>","0","pattern_enter_practice","","","","","","","","","","","","","","","","","","","","","","","","",""
"","","","","","image-keyboard-response","10","90713","0.0-2.0-3.0-0.0","63c173a52e1ba7078e5fd2c0","D2","batch4","","1958.7000000029802","stim/prac_yes_18_hor_w1.png","f","pattern_practice","true","f","","","","","","","","","","","","","","","","","","","","","","",""
"","","","","","html-keyboard-response","11","91733","0.0-2.0-3.0-1.0","63c173a52e1ba7078e5fd2c0","D2","batch4","","null","<p style=""font-size:30px;color:green;"">Correct!</p>","null","pattern_feedback","","","","","","","","","","","","","","","","","","","","","","","","",""
"","","","","","image-keyboard-response","12","93423","0.0-2.0-3.0-0.1","63c173a52e1ba7078e5fd2c0","D2","batch4","","1687.0999999940395","stim/prac_yes_20_dia_b1.png","f","pattern_practice","true","f","","","","","","","","","","","","","","","","","","","","","","",""
"","","","","","html-keyboard-response","13","94456","0.0-2.0-3.0-1.1","63c173a52e1ba7078e5fd2c0","D2","batch4","","null","<p style=""font-size:30px;color:green;"">Correct!</p>","null","pattern_feedback","","","","","","","","","","","","","","","","","","","","","","","","",""
"","","","","","image-keyboard-response","14","95642","0.0-2.0-3.0-0.2","63c173a52e1ba7078e5fd2c0","D2","batch4","","1182.6000000089407","stim/prac_yes_16_ver_w1.png","f","pattern_practice","true","f","","","","","","","","","","","","","","","","","","","","","","",""
"","","","","","html-keyboard-response","15","96663","0.0-2.0-3.0-1.2","63c173a52e1ba7078e5fd2c0","D2","batch4","","null","<p style=""font-size:30px;color:green;"">Correct!</p>","null","pattern_feedback","","","","","","","","","","","","","","","","","","","","","","","","",""
"","","","","","image-keyboard-response","16","98863","0.0-2.0-3.0-0.3","63c173a52e1ba7078e5fd2c0","D2","batch4","","2197.1000000089407","stim/prac_no_18_1.png","j","pattern_practice","true","j","","","","","","","","","","","","","","","","","","","","","","",""
"","","","","","html-keyboard-response","17","99891","0.0-2.0-3.0-1.3","63c173a52e1ba7078e5fd2c0","D2","batch4","","null","<p style=""font-size:30px;color:green;"">Correct!</p>","null","pattern_feedback","","","","","","","","","","","","","","","","","","","","","","","","",""
"","","","","","image-keyboard-response","18","102640","0.0-2.0-3.0-0.4","63c173a52e1ba7078e5fd2c0","D2","batch4","","2743.4000000059605","stim/prac_no_16_1.png","j","pattern_practice","true","j","","","","","","","","","","","","","","","","","","","","","","",""
"","","","","","html-keyboard-response","19","103659","0.0-2.0-3.0-1.4","63c173a52e1ba7078e5fd2c0","D2","batch4","","null","<p style=""font-size:30px;color:green;"">Correct!</p>","null","pattern_feedback","","","","","","","","","","","","","","","","","","","","","","","","",""
"","","","","","html-button-response","20","107042","0.0-2.0-4.0","63c173a52e1ba7078e5fd2c0","D2","batch4","","3379.2999999970198","<p class=block-text> Good job! You are done with practice trials!<br>
        You responded correctly on 100% of the trials.<br>
        Press the button below to start official trials. Now you won't see any feedback about your response</p>","0","pattern_enter_official_trials","","","","","","","","","","","","","","","","","","","","","","","","",""
"","","","","","html-keyboard-response","21","107861","0.0-2.0-5.0-0.0","63c173a52e1ba7078e5fd2c0","D2","batch4","","null","<p class=block-text>Trial 1 out of 78</p>","null","pattern_show_trial_num","","","","","","","","","","","","","","","","","","","","","","","","",""
"","","","","","image-keyboard-response","22","109263","0.0-2.0-5.0-1.0","63c173a52e1ba7078e5fd2c0","D2","batch4","","1397.2999999970198","stim/no_18_1_b.png","j","pattern_response","true","j","pattern_05","1397.2999999970198","true","1","","","","","","","","","","","","","","","","","","",""
"","","","","","html-keyboard-response","23","110575","0.0-2.0-5.0-0.1","63c173a52e1ba7078e5fd2c0","D2","batch4","","null","<p class=block-text>Trial 2 out of 78</p>","null","pattern_show_trial_num","","","","","","","","","","","","","","","","","","","","","","","","",""
"","","","","","image-keyboard-response","24","112903","0.0-2.0-5.0-1.1","63c173a52e1ba7078e5fd2c0","D2","batch4","","2324.7999999970198","stim/yes_51_dia_b1.png","j","pattern_response","false","f","pattern_72","2324.7999999970198","false","1","","","","","","","","","","","","","","","","","","",""
"","","","","","html-keyboard-response","25","114215","0.0-2.0-5.0-0.2","63c173a52e1ba7078e5fd2c0","D2","batch4","","null","<p class=block-text>Trial 3 out of 78</p>","null","pattern_show_trial_num","","","","","","","","","","","","","","","","","","","","","","","","",""
"","","","","","image-keyboard-response","26","115695","0.0-2.0-5.0-1.2","63c173a52e1ba7078e5fd2c0","D2","batch4","","1475.7000000029802","stim/yes_23_ver_b1.png","f","pattern_response","true","f","pattern_48","1475.7000000029802","true","2","","","","","","","","","","","","","","","","","","",""
"","","","","","html-keyboard-response","27","117007","0.0-2.0-5.0-0.3","63c173a52e1ba7078e5fd2c0","D2","batch4","","null","<p class=block-text>Trial 4 out of 78</p>","null","pattern_show_trial_num","","","","","","","","","","","","","","","","","","","","","","","","",""
"","","","","","image-keyboard-response","28","118250","0.0-2.0-5.0-1.3","63c173a52e1ba7078e5fd2c0","D2","batch4","","1239.5","stim/yes_26_dia_w2_w.png","f","pattern_response","true","f","pattern_50","1239.5","true","3","","","","","","","","","","","","","","","","","","",""
"","","","","","html-keyboard-response","29","119559","0.0-2.0-5.0-0.4","63c173a52e1ba7078e5fd2c0","D2","batch4","","null","<p class=block-text>Trial 5 out of 78</p>","null","pattern_show_trial_num","","","","","","","","","","","","","","","","","","","","","","","","",""
"","","","","","image-keyboard-response","30","121135","0.0-2.0-5.0-1.4","63c173a52e1ba7078e5fd2c0","D2","batch4","","1573.0999999940395","stim/yes_70_ver_b1.png","f","pattern_response","true","f","pattern_80","1573.0999999940395","true","4","","","","","","","","","","","","","","","","","","",""
"","","","","","html-keyboard-response","31","122447","0.0-2.0-5.0-0.5","63c173a52e1ba7078e5fd2c0","D2","batch4","","null","<p class=block-text>Trial 6 out of 78</p>","null","pattern_show_trial_num","","","","","","","","","","","","","","","","","","","","","","","","",""
"","","","","","image-keyboard-response","32","123311","0.0-2.0-5.0-1.5","63c173a52e1ba7078e5fd2c0","D2","batch4","","859.2999999970198","stim/yes_17_ver_b1_b.png","f","pattern_response","true","f","pattern_46","859.2999999970198","true","5","","","","","","","","","","","","","","","","","","",""
"","","","","","html-keyboard-response","33","124623","0.0-2.0-5.0-0.6","63c173a52e1ba7078e5fd2c0","D2","batch4","","null","<p class=block-text>Trial 7 out of 78</p>","null","pattern_show_trial_num","","","","","","","","","","","","","","","","","","","","","","","","",""
"","","","","","image-keyboard-response","34","127368","0.0-2.0-5.0-1.6","63c173a52e1ba7078e5fd2c0","D2","batch4","","2741.2999999970198","stim/no_37_2_w.png","j","pattern_response","true","j","pattern_19","2741.2999999970198","true","6","","","","","","","","","","","","","","","","","","",""
"","","","","","html-keyboard-response","35","128679","0.0-2.0-5.0-0.7","63c173a52e1ba7078e5fd2c0","D2","batch4","","null","<p class=block-text>Trial 8 out of 78</p>","null","pattern_show_trial_num","","","","","","","","","","","","","","","","","","","","","","","","",""
"","","","","","image-keyboard-response","36","132609","0.0-2.0-5.0-1.7","63c173a52e1ba7078e5fd2c0","D2","batch4","","3927.2999999970198","stim/yes_42_dia_w1_w.png","j","pattern_response","false","f","pattern_64","3927.2999999970198","false","6","","","","","","","","","","","","","","","","","","",""
"","","","","","html-keyboard-response","37","133920","0.0-2.0-5.0-0.8","63c173a52e1ba7078e5fd2c0","D2","batch4","","null","<p class=block-text>Trial 9 out of 78</p>","null","pattern_show_trial_num","","","","","","","","","","","","","","","","","","","","","","","","",""
"","","","","","image-keyboard-response","38","136095","0.0-2.0-5.0-1.8","63c173a52e1ba7078e5fd2c0","D2","batch4","","2170.2000000029802","stim/no_22_1_b.png","j","pattern_response","true","j","pattern_07","2170.2000000029802","true","7","","","","","","","","","","","","","","","","","","",""
"","","","","","html-keyboard-response","39","137408","0.0-2.0-5.0-0.9","63c173a52e1ba7078e5fd2c0","D2","batch4","","null","<p class=block-text>Trial 10 out of 78</p>","null","pattern_show_trial_num","","","","","","","","","","","","","","","","","","","","","","","","",""
"","","","","","image-keyboard-response","40","141408","0.0-2.0-5.0-1.9","63c173a52e1ba7078e5fd2c0","D2","batch4","","3994.5","stim/no_45_1_w.png","j","pattern_response","true","j","pattern_25","3994.5","true","8","","","","","","","","","","","","","","","","","","",""
"","","","","","html-keyboard-response","41","142720","0.0-2.0-5.0-0.10","63c173a52e1ba7078e5fd2c0","D2","batch4","","null","<p class=block-text>Trial 11 out of 78</p>","null","pattern_show_trial_num","","","","","","","","","","","","","","","","","","","","","","","","",""
"","","","","","image-keyboard-response","42","145369","0.0-2.0-5.0-1.10","63c173a52e1ba7078e5fd2c0","D2","batch4","","2644.2000000029802","stim/yes_44_ver_w1_w.png","f","pattern_response","true","f","pattern_66","2644.2000000029802","true","9","","","","","","","","","","","","","","","","","","",""
"","","","","","html-keyboard-response","43","146680","0.0-2.0-5.0-0.11","63c173a52e1ba7078e5fd2c0","D2","batch4","","null","<p class=block-text>Trial 12 out of 78</p>","null","pattern_show_trial_num","","","","","","","","","","","","","","","","","","","","","","","","",""
"","","","","","image-keyboard-response","44","149439","0.0-2.0-5.0-1.11","63c173a52e1ba7078e5fd2c0","D2","batch4","","2754.0999999940395","stim/no_39_1_w.png","j","pattern_response","true","j","pattern_21","2754.0999999940395","true","10","","","","","","","","","","","","","","","","","","",""
"","","","","","html-keyboard-response","45","150751","0.0-2.0-5.0-0.12","63c173a52e1ba7078e5fd2c0","D2","batch4","","null","<p class=block-text>Trial 13 out of 78</p>","null","pattern_show_trial_num","","","","","","","","","","","","","","","","","","","","","","","","",""
"","","","","","image-keyboard-response","46","153575","0.0-2.0-5.0-1.12","63c173a52e1ba7078e5fd2c0","D2","batch4","","2818.2999999970198","stim/no_58_1_w.png","j","pattern_response","true","j","pattern_35","2818.2999999970198","true","11","","","","","","","","","","","","","","","","","","",""
"","","","","","html-keyboard-response","47","154887","0.0-2.0-5.0-0.13","63c173a52e1ba7078e5fd2c0","D2","batch4","","null","<p class=block-text>Trial 14 out of 78</p>","null","pattern_show_trial_num","","","","","","","","","","","","","","","","","","","","","","","","",""
"","","","","","image-keyboard-response","48","156841","0.0-2.0-5.0-1.13","63c173a52e1ba7078e5fd2c0","D2","batch4","","1948.7000000029802","stim/yes_46_ver_b1_b.png","f","pattern_response","true","f","pattern_68","1948.7000000029802","true","12","","","","","","","","","","","","","","","","","","",""
"","","","","","html-keyboard-response","49","158151","0.0-2.0-5.0-0.14","63c173a52e1ba7078e5fd2c0","D2","batch4","","null","<p class=block-text>Trial 15 out of 78</p>","null","pattern_show_trial_num","","","","","","","","","","","","","","","","","","","","","","","","",""
"","","","","","image-keyboard-response","50","160167","0.0-2.0-5.0-1.14","63c173a52e1ba7078e5fd2c0","D2","batch4","","2010.5999999940395","stim/no_43_2_b.png","j","pattern_response","true","j","pattern_23","2010.5999999940395","true","13","","","","","","","","","","","","","","","","","","",""
"","","","","","html-keyboard-response","51","161479","0.0-2.0-5.0-0.15","63c173a52e1ba7078e5fd2c0","D2","batch4","","null","<p class=block-text>Trial 16 out of 78</p>","null","pattern_show_trial_num","","","","","","","","","","","","","","","","","","","","","","","","",""
"","","","","","image-keyboard-response","52","162703","0.0-2.0-5.0-1.15","63c173a52e1ba7078e5fd2c0","D2","batch4","","1220","stim/no_15_1_w.png","j","pattern_response","true","j","pattern_03","1220","true","14","","","","","","","","","","","","","","","","","","",""
"","","","","","html-keyboard-response","53","164015","0.0-2.0-5.0-0.16","63c173a52e1ba7078e5fd2c0","D2","batch4","","null","<p class=block-text>Trial 17 out of 78</p>","null","pattern_show_trial_num","","","","","","","","","","","","","","","","","","","","","","","","",""
"","","","","","image-keyboard-response","54","167257","0.0-2.0-5.0-1.16","63c173a52e1ba7078e5fd2c0","D2","batch4","","3236.800000011921","stim/no_67_1.png","j","pattern_response","true","j","pattern_39","3236.800000011921","true","15","","","","","","","","","","","","","","","","","","",""
"","","","","","html-keyboard-response","55","168567","0.0-2.0-5.0-0.17","63c173a52e1ba7078e5fd2c0","D2","batch4","","null","<p class=block-text>Trial 18 out of 78</p>","null","pattern_show_trial_num","","","","","","","","","","","","","","","","","","","","","","","","",""
"","","","","","image-keyboard-response","56","172279","0.0-2.0-5.0-1.17","63c173a52e1ba7078e5fd2c0","D2","batch4","","3705.1000000089407","stim/no_53_1_b.png","j","pattern_response","true","j","pattern_33","3705.1000000089407","true","16","","","","","","","","","","","","","","","","","","",""
"","","","","","html-keyboard-response","57","173591","0.0-2.0-5.0-0.18","63c173a52e1ba7078e5fd2c0","D2","batch4","","null","<p class=block-text>Trial 19 out of 78</p>","null","pattern_show_trial_num","","","","","","","","","","","","","","","","","","","","","","","","",""
"","","","","","image-keyboard-response","58","174510","0.0-2.0-5.0-1.18","63c173a52e1ba7078e5fd2c0","D2","batch4","","914.2999999970198","stim/yes_12_hor_w1_w.png","f","pattern_response","true","f","pattern_42","914.2999999970198","true","17","","","","","","","","","","","","","","","","","","",""
"","","","","","html-keyboard-response","59","175823","0.0-2.0-5.0-0.19","63c173a52e1ba7078e5fd2c0","D2","batch4","","null","<p class=block-text>Trial 20 out of 78</p>","null","pattern_show_trial_num","","","","","","","","","","","","","","","","","","","","","","","","",""
"","","","","","image-keyboard-response","60","176664","0.0-2.0-5.0-1.19","63c173a52e1ba7078e5fd2c0","D2","batch4","","836.1000000089407","stim/yes_36_ver_w1_w.png","f","pattern_response","true","f","pattern_58","836.1000000089407","true","18","","","","","","","","","","","","","","","","","","",""
"","","","","","html-keyboard-response","61","177977","0.0-2.0-5.0-0.20","63c173a52e1ba7078e5fd2c0","D2","batch4","","null","<p class=block-text>Trial 21 out of 78</p>","null","pattern_show_trial_num","","","","","","","","","","","","","","","","","","","","","","","","",""
"","","","","","image-keyboard-response","62","179610","0.0-2.0-5.0-1.20","63c173a52e1ba7078e5fd2c0","D2","batch4","","1603.7000000029802","stim/yes_30_ver_b1_b.png","f","pattern_response","true","f","pattern_54","1603.7000000029802","true","19","","","","","","","","","","","","","","","","","","",""
"","","","","","html-keyboard-response","63","180921","0.0-2.0-5.0-0.21","63c173a52e1ba7078e5fd2c0","D2","batch4","","null","<p class=block-text>Trial 22 out of 78</p>","null","pattern_show_trial_num","","","","","","","","","","","","","","","","","","","","","","","","",""
"","","","","","image-keyboard-response","64","186088","0.0-2.0-5.0-1.21","63c173a52e1ba7078e5fd2c0","D2","batch4","","5162.5","stim/yes_58_dia_w1_w.png","j","pattern_response","false","f","pattern_76","5162.5","false","19","","","","","","","","","","","","","","","","","","",""
"","","","","","html-keyboard-response","65","187401","0.0-2.0-5.0-0.22","63c173a52e1ba7078e5fd2c0","D2","batch4","","null","<p class=block-text>Trial 23 out of 78</p>","null","pattern_show_trial_num","","","","","","","","","","","","","","","","","","","","","","","","",""
"","","","","","image-keyboard-response","66","190378","0.0-2.0-5.0-1.22","63c173a52e1ba7078e5fd2c0","D2","batch4","","2972.5999999940395","stim/no_30_1_b.png","j","pattern_response","true","j","pattern_13","2972.5999999940395","true","20","","","","","","","","","","","","","","","","","","",""
"","","","","","html-keyboard-response","67","191689","0.0-2.0-5.0-0.23","63c173a52e1ba7078e5fd2c0","D2","batch4","","null","<p class=block-text>Trial 24 out of 78</p>","null","pattern_show_trial_num","","","","","","","","","","","","","","","","","","","","","","","","",""
"","","","","","image-keyboard-response","68","194024","0.0-2.0-5.0-1.23","63c173a52e1ba7078e5fd2c0","D2","batch4","","2330.5","stim/no_25_1_b.png","j","pattern_response","true","j","pattern_09","2330.5","true","21","","","","","","","","","","","","","","","","","","",""
"","","","","","html-keyboard-response","69","195337","0.0-2.0-5.0-0.24","63c173a52e1ba7078e5fd2c0","D2","batch4","","null","<p class=block-text>Trial 25 out of 78</p>","null","pattern_show_trial_num","","","","","","","","","","","","","","","","","","","","","","","","",""
"","","","","","image-keyboard-response","70","198392","0.0-2.0-5.0-1.24","63c173a52e1ba7078e5fd2c0","D2","batch4","","3050.7000000029802","stim/yes_63_dia_b1.png","f","pattern_response","true","f","pattern_78","3050.7000000029802","true","22","","","","","","","","","","","","","","","","","","",""
"","","","","","html-keyboard-response","71","199706","0.0-2.0-5.0-0.25","63c173a52e1ba7078e5fd2c0","D2","batch4","","null","<p class=block-text>Trial 26 out of 78</p>","null","pattern_show_trial_num","","","","","","","","","","","","","","","","","","","","","","","","",""
"","","","","","image-keyboard-response","72","203426","0.0-2.0-5.0-1.25","63c173a52e1ba7078e5fd2c0","D2","batch4","","3715.800000011921","stim/no_51_1.png","j","pattern_response","true","j","pattern_31","3715.800000011921","true","23","","","","","","","","","","","","","","","","","","",""
"","","","","","html-keyboard-response","73","204737","0.0-2.0-5.0-0.26","63c173a52e1ba7078e5fd2c0","D2","batch4","","null","<p class=block-text>Trial 27 out of 78</p>","null","pattern_show_trial_num","","","","","","","","","","","","","","","","","","","","","","","","",""
"","","","","","image-keyboard-response","74","206120","0.0-2.0-5.0-1.26","63c173a52e1ba7078e5fd2c0","D2","batch4","","1377.6000000089407","stim/yes_37_hor_w1_w.png","f","pattern_response","true","f","pattern_60","1377.6000000089407","true","24","","","","","","","","","","","","","","","","","","",""
"","","","","","html-keyboard-response","75","207433","0.0-2.0-5.0-0.27","63c173a52e1ba7078e5fd2c0","D2","batch4","","null","<p class=block-text>Trial 28 out of 78</p>","null","pattern_show_trial_num","","","","","","","","","","","","","","","","","","","","","","","","",""
"","","","","","image-keyboard-response","76","208856","0.0-2.0-5.0-1.27","63c173a52e1ba7078e5fd2c0","D2","batch4","","1419.2999999970198","stim/yes_15_dia_b1u_b.png","f","pattern_response","true","f","pattern_44","1419.2999999970198","true","25","","","","","","","","","","","","","","","","","","",""
"","","","","","html-keyboard-response","77","210169","0.0-2.0-5.0-0.28","63c173a52e1ba7078e5fd2c0","D2","batch4","","null","<p class=block-text>Trial 29 out of 78</p>","null","pattern_show_trial_num","","","","","","","","","","","","","","","","","","","","","","","","",""
"","","","","","image-keyboard-response","78","212352","0.0-2.0-5.0-1.28","63c173a52e1ba7078e5fd2c0","D2","batch4","","2177.7000000029802","stim/no_36_1_b.png","j","pattern_response","true","j","pattern_17","2177.7000000029802","true","26","","","","","","","","","","","","","","","","","","",""
"","","","","","html-keyboard-response","79","213665","0.0-2.0-5.0-0.29","63c173a52e1ba7078e5fd2c0","D2","batch4","","null","<p class=block-text>Trial 30 out of 78</p>","null","pattern_show_trial_num","","","","","","","","","","","","","","","","","","","","","","","","",""
"","","","","","image-keyboard-response","80","215114","0.0-2.0-5.0-1.29","63c173a52e1ba7078e5fd2c0","D2","batch4","","1445.5","stim/yes_39_hor_w1_w.png","f","pattern_response","true","f","pattern_62","1445.5","true","27","","","","","","","","","","","","","","","","","","",""
"","","","","","html-keyboard-response","81","216425","0.0-2.0-5.0-0.30","63c173a52e1ba7078e5fd2c0","D2","batch4","","null","<p class=block-text>Trial 31 out of 78</p>","null","pattern_show_trial_num","","","","","","","","","","","","","","","","","","","","","","","","",""
"","","","","","image-keyboard-response","82","218968","0.0-2.0-5.0-1.30","63c173a52e1ba7078e5fd2c0","D2","batch4","","2537.7999999970198","stim/no_47_1_b.png","j","pattern_response","true","j","pattern_27","2537.7999999970198","true","28","","","","","","","","","","","","","","","","","","",""
"","","","","","html-keyboard-response","83","220281","0.0-2.0-5.0-0.31","63c173a52e1ba7078e5fd2c0","D2","batch4","","null","<p class=block-text>Trial 32 out of 78</p>","null","pattern_show_trial_num","","","","","","","","","","","","","","","","","","","","","","","","",""
"","","","","","image-keyboard-response","84","221632","0.0-2.0-5.0-1.31","63c173a52e1ba7078e5fd2c0","D2","batch4","","1345.5999999940395","stim/yes_53_ver_b1_b.png","f","pattern_response","true","f","pattern_74","1345.5999999940395","true","29","","","","","","","","","","","","","","","","","","",""
"","","","","","html-keyboard-response","85","222945","0.0-2.0-5.0-0.32","63c173a52e1ba7078e5fd2c0","D2","batch4","","null","<p class=block-text>Trial 33 out of 78</p>","null","pattern_show_trial_num","","","","","","","","","","","","","","","","","","","","","","","","",""
"","","","","","image-keyboard-response","86","225530","0.0-2.0-5.0-1.32","63c173a52e1ba7078e5fd2c0","D2","batch4","","2581.4000000059605","stim/no_28_2.png","j","pattern_response","true","j","pattern_11","2581.4000000059605","true","30","","","","","","","","","","","","","","","","","","",""
"","","","","","html-keyboard-response","87","226841","0.0-2.0-5.0-0.33","63c173a52e1ba7078e5fd2c0","D2","batch4","","null","<p class=block-text>Trial 34 out of 78</p>","null","pattern_show_trial_num","","","","","","","","","","","","","","","","","","","","","","","","",""
"","","","","","image-keyboard-response","88","228096","0.0-2.0-5.0-1.33","63c173a52e1ba7078e5fd2c0","D2","batch4","","1249.7000000029802","stim/yes_49_hor_w1_b.png","f","pattern_response","true","f","pattern_70","1249.7000000029802","true","31","","","","","","","","","","","","","","","","","","",""
"","","","","","html-keyboard-response","89","229410","0.0-2.0-5.0-0.34","63c173a52e1ba7078e5fd2c0","D2","batch4","","null","<p class=block-text>Trial 35 out of 78</p>","null","pattern_show_trial_num","","","","","","","","","","","","","","","","","","","","","","","","",""
"","","","","","image-keyboard-response","90","231416","0.0-2.0-5.0-1.34","63c173a52e1ba7078e5fd2c0","D2","batch4","","2001.5999999940395","stim/no_33_1_b.png","j","pattern_response","true","j","pattern_15","2001.5999999940395","true","32","","","","","","","","","","","","","","","","","","",""
"","","","","","html-keyboard-response","91","232729","0.0-2.0-5.0-0.35","63c173a52e1ba7078e5fd2c0","D2","batch4","","null","<p class=block-text>Trial 36 out of 78</p>","null","pattern_show_trial_num","","","","","","","","","","","","","","","","","","","","","","","","",""
"","","","","","image-keyboard-response","92","233991","0.0-2.0-5.0-1.35","63c173a52e1ba7078e5fd2c0","D2","batch4","","1257.7999999970198","stim/yes_29_hor_b1_b.png","f","pattern_response","true","f","pattern_52","1257.7999999970198","true","33","","","","","","","","","","","","","","","","","","",""
"","","","","","html-keyboard-response","93","235305","0.0-2.0-5.0-0.36","63c173a52e1ba7078e5fd2c0","D2","batch4","","null","<p class=block-text>Trial 37 out of 78</p>","null","pattern_show_trial_num","","","","","","","","","","","","","","","","","","","","","","","","",""
"","","","","","image-keyboard-response","94","236802","0.0-2.0-5.0-1.36","63c173a52e1ba7078e5fd2c0","D2","batch4","","1493.4000000059605","stim/yes_33_dia_w1_w.png","f","pattern_response","true","f","pattern_56","1493.4000000059605","true","34","","","","","","","","","","","","","","","","","","",""
"","","","","","html-keyboard-response","95","238114","0.0-2.0-5.0-0.37","63c173a52e1ba7078e5fd2c0","D2","batch4","","null","<p class=block-text>Trial 38 out of 78</p>","null","pattern_show_trial_num","","","","","","","","","","","","","","","","","","","","","","","","",""
"","","","","","image-keyboard-response","96","240424","0.0-2.0-5.0-1.37","63c173a52e1ba7078e5fd2c0","D2","batch4","","2307.2000000029802","stim/no_49_2_b.png","j","pattern_response","true","j","pattern_29","2307.2000000029802","true","35","","","","","","","","","","","","","","","","","","",""
"","","","","","html-keyboard-response","97","241738","0.0-2.0-5.0-0.38","63c173a52e1ba7078e5fd2c0","D2","batch4","","null","<p class=block-text>Trial 39 out of 78</p>","null","pattern_show_trial_num","","","","","","","","","","","","","","","","","","","","","","","","",""
"","","","","","image-keyboard-response","98","243336","0.0-2.0-5.0-1.38","63c173a52e1ba7078e5fd2c0","D2","batch4","","1593.5","stim/no_12_1.png","j","pattern_response","true","j","pattern_01","1593.5","true","36","","","","","","","","","","","","","","","","","","",""
"","","","","","image-keyboard-response","99","244768","0.0-2.0-6.0","63c173a52e1ba7078e5fd2c0","D2","batch4","","923.8999999910593","stim/empty_board.png","j","attention_check","true","j","","","","","500","[""f"",""j""]","","","","","","","","","","","","","","","","",""
"","","","","","html-keyboard-response","100","245578","0.0-2.0-7.0-0.0","63c173a52e1ba7078e5fd2c0","D2","batch4","","null","<p class=block-text>Trial 40 out of 78</p>","null","pattern_show_trial_num","","","","","","","","","","","","","","","","","","","","","","","","",""
"","","","","","image-keyboard-response","101","248034","0.0-2.0-7.0-1.0","63c173a52e1ba7078e5fd2c0","D2","batch4","","2452","stim/yes_31_hor_b1.png","f","pattern_response","true","f","pattern_55","2452","true","37","","","","","","","","","","","","","","","","","","",""
"","","","","","html-keyboard-response","102","249346","0.0-2.0-7.0-0.1","63c173a52e1ba7078e5fd2c0","D2","batch4","","null","<p class=block-text>Trial 41 out of 78</p>","null","pattern_show_trial_num","","","","","","","","","","","","","","","","","","","","","","","","",""
"","","","","","image-keyboard-response","103","251240","0.0-2.0-7.0-1.1","63c173a52e1ba7078e5fd2c0","D2","batch4","","1889.7999999970198","stim/no_20_1_w.png","j","pattern_response","true","j","pattern_06","1889.7999999970198","true","38","","","","","","","","","","","","","","","","","","",""
"","","","","","html-keyboard-response","104","252554","0.0-2.0-7.0-0.2","63c173a52e1ba7078e5fd2c0","D2","batch4","","null","<p class=block-text>Trial 42 out of 78</p>","null","pattern_show_trial_num","","","","","","","","","","","","","","","","","","","","","","","","",""
"","","","","","image-keyboard-response","105","254049","0.0-2.0-7.0-1.2","63c173a52e1ba7078e5fd2c0","D2","batch4","","1490.0999999940395","stim/yes_45_hor_b2_b.png","f","pattern_response","true","f","pattern_67","1490.0999999940395","true","39","","","","","","","","","","","","","","","","","","",""
"","","","","","html-keyboard-response","106","255361","0.0-2.0-7.0-0.3","63c173a52e1ba7078e5fd2c0","D2","batch4","","null","<p class=block-text>Trial 43 out of 78</p>","null","pattern_show_trial_num","","","","","","","","","","","","","","","","","","","","","","","","",""
"","","","","","image-keyboard-response","107","257888","0.0-2.0-7.0-1.3","63c173a52e1ba7078e5fd2c0","D2","batch4","","2523.2000000029802","stim/no_46_1_b.png","f","pattern_response","false","j","pattern_26","2523.2000000029802","false","39","","","","","","","","","","","","","","","","","","",""
"","","","","","html-keyboard-response","108","259201","0.0-2.0-7.0-0.4","63c173a52e1ba7078e5fd2c0","D2","batch4","","null","<p class=block-text>Trial 44 out of 78</p>","null","pattern_show_trial_num","","","","","","","","","","","","","","","","","","","","","","","","",""
"","","","","","image-keyboard-response","109","262195","0.0-2.0-7.0-1.4","63c173a52e1ba7078e5fd2c0","D2","batch4","","2988.6000000089407","stim/yes_48_dia_w1_w.png","j","pattern_response","false","f","pattern_69","2988.6000000089407","false","39","","","","","","","","","","","","","","","","","","",""
"","","","","","html-keyboard-response","110","263505","0.0-2.0-7.0-0.5","63c173a52e1ba7078e5fd2c0","D2","batch4","","null","<p class=block-text>Trial 45 out of 78</p>","null","pattern_show_trial_num","","","","","","","","","","","","","","","","","","","","","","","","",""
"","","","","","image-keyboard-response","111","265352","0.0-2.0-7.0-1.5","63c173a52e1ba7078e5fd2c0","D2","batch4","","1841.5","stim/no_26_1_w.png","j","pattern_response","true","j","pattern_10","1841.5","true","40","","","","","","","","","","","","","","","","","","",""
"","","","","","html-keyboard-response","112","266666","0.0-2.0-7.0-0.6","63c173a52e1ba7078e5fd2c0","D2","batch4","","null","<p class=block-text>Trial 46 out of 78</p>","null","pattern_show_trial_num","","","","","","","","","","","","","","","","","","","","","","","","",""
"","","","","","image-keyboard-response","113","271008","0.0-2.0-7.0-1.6","63c173a52e1ba7078e5fd2c0","D2","batch4","","4336.399999991059","stim/no_52_1.png","j","pattern_response","true","j","pattern_32","4336.399999991059","true","41","","","","","","","","","","","","","","","","","","",""
"","","","","","html-keyboard-response","114","272322","0.0-2.0-7.0-0.7","63c173a52e1ba7078e5fd2c0","D2","batch4","","null","<p class=block-text>Trial 47 out of 78</p>","null","pattern_show_trial_num","","","","","","","","","","","","","","","","","","","","","","","","",""
"","","","","","image-keyboard-response","115","274659","0.0-2.0-7.0-1.7","63c173a52e1ba7078e5fd2c0","D2","batch4","","2331.2999999970198","stim/no_34_1_b.png","j","pattern_response","true","j","pattern_16","2331.2999999970198","true","42","","","","","","","","","","","","","","","","","","",""
"","","","","","html-keyboard-response","116","275970","0.0-2.0-7.0-0.8","63c173a52e1ba7078e5fd2c0","D2","batch4","","null","<p class=block-text>Trial 48 out of 78</p>","null","pattern_show_trial_num","","","","","","","","","","","","","","","","","","","","","","","","",""
"","","","","","image-keyboard-response","117","277032","0.0-2.0-7.0-1.8","63c173a52e1ba7078e5fd2c0","D2","batch4","","1056.9000000059605","stim/no_13_2_b.png","j","pattern_response","true","j","pattern_02","1056.9000000059605","true","43","","","","","","","","","","","","","","","","","","",""
"","","","","","html-keyboard-response","118","278346","0.0-2.0-7.0-0.9","63c173a52e1ba7078e5fd2c0","D2","batch4","","null","<p class=block-text>Trial 49 out of 78</p>","null","pattern_show_trial_num","","","","","","","","","","","","","","","","","","","","","","","","",""
"","","","","","image-keyboard-response","119","279408","0.0-2.0-7.0-1.9","63c173a52e1ba7078e5fd2c0","D2","batch4","","1058.4000000059605","stim/yes_28_ver_b1.png","f","pattern_response","true","f","pattern_51","1058.4000000059605","true","44","","","","","","","","","","","","","","","","","","",""
"","","","","","html-keyboard-response","120","280722","0.0-2.0-7.0-0.10","63c173a52e1ba7078e5fd2c0","D2","batch4","","null","<p class=block-text>Trial 50 out of 78</p>","null","pattern_show_trial_num","","","","","","","","","","","","","","","","","","","","","","","","",""
"","","","","","image-keyboard-response","121","283550","0.0-2.0-7.0-1.10","63c173a52e1ba7078e5fd2c0","D2","batch4","","2824.1000000089407","stim/no_38_1_b.png","j","pattern_response","true","j","pattern_20","2824.1000000089407","true","45","","","","","","","","","","","","","","","","","","",""
"","","","","","html-keyboard-response","122","284866","0.0-2.0-7.0-0.11","63c173a52e1ba7078e5fd2c0","D2","batch4","","null","<p class=block-text>Trial 51 out of 78</p>","null","pattern_show_trial_num","","","","","","","","","","","","","","","","","","","","","","","","",""
"","","","","","image-keyboard-response","123","286474","0.0-2.0-7.0-1.11","63c173a52e1ba7078e5fd2c0","D2","batch4","","1603.0999999940395","stim/yes_35_dia_b1.png","f","pattern_response","true","f","pattern_57","1603.0999999940395","true","46","","","","","","","","","","","","","","","","","","",""
"","","","","","html-keyboard-response","124","287786","0.0-2.0-7.0-0.12","63c173a52e1ba7078e5fd2c0","D2","batch4","","null","<p class=block-text>Trial 52 out of 78</p>","null","pattern_show_trial_num","","","","","","","","","","","","","","","","","","","","","","","","",""
"","","","","","image-keyboard-response","125","288711","0.0-2.0-7.0-1.12","63c173a52e1ba7078e5fd2c0","D2","batch4","","922.2000000029802","stim/yes_67_hor_b1.png","f","pattern_response","true","f","pattern_79","922.2000000029802","true","47","","","","","","","","","","","","","","","","","","",""
"","","","","","html-keyboard-response","126","290026","0.0-2.0-7.0-0.13","63c173a52e1ba7078e5fd2c0","D2","batch4","","null","<p class=block-text>Trial 53 out of 78</p>","null","pattern_show_trial_num","","","","","","","","","","","","","","","","","","","","","","","","",""
"","","","","","image-keyboard-response","127","292159","0.0-2.0-7.0-1.13","63c173a52e1ba7078e5fd2c0","D2","batch4","","2130.4000000059605","stim/no_32_1_w.png","j","pattern_response","true","j","pattern_14","2130.4000000059605","true","48","","","","","","","","","","","","","","","","","","",""
"","","","","","html-keyboard-response","128","293474","0.0-2.0-7.0-0.14","63c173a52e1ba7078e5fd2c0","D2","batch4","","null","<p class=block-text>Trial 54 out of 78</p>","null","pattern_show_trial_num","","","","","","","","","","","","","","","","","","","","","","","","",""
"","","","","","image-keyboard-response","129","294831","0.0-2.0-7.0-1.14","63c173a52e1ba7078e5fd2c0","D2","batch4","","1352.6000000089407","stim/yes_25_hor_b1_b.png","f","pattern_response","true","f","pattern_49","1352.6000000089407","true","49","","","","","","","","","","","","","","","","","","",""
"","","","","","html-keyboard-response","130","296146","0.0-2.0-7.0-0.15","63c173a52e1ba7078e5fd2c0","D2","batch4","","null","<p class=block-text>Trial 55 out of 78</p>","null","pattern_show_trial_num","","","","","","","","","","","","","","","","","","","","","","","","",""
"","","","","","image-keyboard-response","131","297322","0.0-2.0-7.0-1.15","63c173a52e1ba7078e5fd2c0","D2","batch4","","1172.5999999940395","stim/yes_22_ver_w1.png","f","pattern_response","true","f","pattern_47","1172.5999999940395","true","50","","","","","","","","","","","","","","","","","","",""
"","","","","","html-keyboard-response","132","298635","0.0-2.0-7.0-0.16","63c173a52e1ba7078e5fd2c0","D2","batch4","","null","<p class=block-text>Trial 56 out of 78</p>","null","pattern_show_trial_num","","","","","","","","","","","","","","","","","","","","","","","","",""
"","","","","","image-keyboard-response","133","301048","0.0-2.0-7.0-1.16","63c173a52e1ba7078e5fd2c0","D2","batch4","","2408.7000000029802","stim/yes_50_dia_w1.png","j","pattern_response","false","f","pattern_71","2408.7000000029802","false","50","","","","","","","","","","","","","","","","","","",""
"","","","","","html-keyboard-response","134","302363","0.0-2.0-7.0-0.17","63c173a52e1ba7078e5fd2c0","D2","batch4","","null","<p class=block-text>Trial 57 out of 78</p>","null","pattern_show_trial_num","","","","","","","","","","","","","","","","","","","","","","","","",""
"","","","","","image-keyboard-response","135","305432","0.0-2.0-7.0-1.17","63c173a52e1ba7078e5fd2c0","D2","batch4","","3066.300000011921","stim/yes_38_hor_b1_b.png","f","pattern_response","true","f","pattern_61","3066.300000011921","true","51","","","","","","","","","","","","","","","","","","",""
"","","","","","html-keyboard-response","136","306747","0.0-2.0-7.0-0.18","63c173a52e1ba7078e5fd2c0","D2","batch4","","null","<p class=block-text>Trial 58 out of 78</p>","null","pattern_show_trial_num","","","","","","","","","","","","","","","","","","","","","","","","",""
"","","","","","image-keyboard-response","137","307843","0.0-2.0-7.0-1.18","63c173a52e1ba7078e5fd2c0","D2","batch4","","1090.8999999910593","stim/yes_43_ver_w1_w.png","f","pattern_response","true","f","pattern_65","1090.8999999910593","true","52","","","","","","","","","","","","","","","","","","",""
"","","","","","html-keyboard-response","138","309155","0.0-2.0-7.0-0.19","63c173a52e1ba7078e5fd2c0","D2","batch4","","null","<p class=block-text>Trial 59 out of 78</p>","null","pattern_show_trial_num","","","","","","","","","","","","","","","","","","","","","","","","",""
"","","","","","image-keyboard-response","139","309944","0.0-2.0-7.0-1.19","63c173a52e1ba7078e5fd2c0","D2","batch4","","786.2999999970198","stim/yes_60_ver_b1_b.png","f","pattern_response","true","f","pattern_77","786.2999999970198","true","53","","","","","","","","","","","","","","","","","","",""
"","","","","","html-keyboard-response","140","311259","0.0-2.0-7.0-0.20","63c173a52e1ba7078e5fd2c0","D2","batch4","","null","<p class=block-text>Trial 60 out of 78</p>","null","pattern_show_trial_num","","","","","","","","","","","","","","","","","","","","","","","","",""
"","","","","","image-keyboard-response","141","314208","0.0-2.0-7.0-1.20","63c173a52e1ba7078e5fd2c0","D2","batch4","","2946.1000000089407","stim/no_70_2.png","j","pattern_response","true","j","pattern_40","2946.1000000089407","true","54","","","","","","","","","","","","","","","","","","",""
"","","","","","html-keyboard-response","142","315523","0.0-2.0-7.0-0.21","63c173a52e1ba7078e5fd2c0","D2","batch4","","null","<p class=block-text>Trial 61 out of 78</p>","null","pattern_show_trial_num","","","","","","","","","","","","","","","","","","","","","","","","",""
"","","","","","image-keyboard-response","143","316672","0.0-2.0-7.0-1.21","63c173a52e1ba7078e5fd2c0","D2","batch4","","1144.5999999940395","stim/yes_14_hor_b1_w.png","f","pattern_response","true","f","pattern_43","1144.5999999940395","true","55","","","","","","","","","","","","","","","","","","",""
"","","","","","html-keyboard-response","144","317986","0.0-2.0-7.0-0.22","63c173a52e1ba7078e5fd2c0","D2","batch4","","null","<p class=block-text>Trial 62 out of 78</p>","null","pattern_show_trial_num","","","","","","","","","","","","","","","","","","","","","","","","",""
"","","","","","image-keyboard-response","145","321170","0.0-2.0-7.0-1.22","63c173a52e1ba7078e5fd2c0","D2","batch4","","3180.4000000059605","stim/no_44_1.png","j","pattern_response","true","j","pattern_24","3180.4000000059605","true","56","","","","","","","","","","","","","","","","","","",""
"","","","","","html-keyboard-response","146","322482","0.0-2.0-7.0-0.23","63c173a52e1ba7078e5fd2c0","D2","batch4","","null","<p class=block-text>Trial 63 out of 78</p>","null","pattern_show_trial_num","","","","","","","","","","","","","","","","","","","","","","","","",""
"","","","","","image-keyboard-response","147","325288","0.0-2.0-7.0-1.23","63c173a52e1ba7078e5fd2c0","D2","batch4","","2800.5","stim/yes_37_dia_w1.png","j","pattern_response","false","f","pattern_59","2800.5","false","56","","","","","","","","","","","","","","","","","","",""
"","","","","","html-keyboard-response","148","326602","0.0-2.0-7.0-0.24","63c173a52e1ba7078e5fd2c0","D2","batch4","","null","<p class=block-text>Trial 64 out of 78</p>","null","pattern_show_trial_num","","","","","","","","","","","","","","","","","","","","","","","","",""
"","","","","","image-keyboard-response","149","329144","0.0-2.0-7.0-1.24","63c173a52e1ba7078e5fd2c0","D2","batch4","","2536.4000000059605","stim/no_42_1_w.png","j","pattern_response","true","j","pattern_22","2536.4000000059605","true","57","","","","","","","","","","","","","","","","","","",""
"","","","","","html-keyboard-response","150","330458","0.0-2.0-7.0-0.25","63c173a52e1ba7078e5fd2c0","D2","batch4","","null","<p class=block-text>Trial 65 out of 78</p>","null","pattern_show_trial_num","","","","","","","","","","","","","","","","","","","","","","","","",""
"","","","","","image-keyboard-response","151","331730","0.0-2.0-7.0-1.25","63c173a52e1ba7078e5fd2c0","D2","batch4","","1268.2999999970198","stim/yes_17_dia_w1.png","f","pattern_response","true","f","pattern_45","1268.2999999970198","true","58","","","","","","","","","","","","","","","","","","",""
"","","","","","html-keyboard-response","152","333043","0.0-2.0-7.0-0.26","63c173a52e1ba7078e5fd2c0","D2","batch4","","null","<p class=block-text>Trial 66 out of 78</p>","null","pattern_show_trial_num","","","","","","","","","","","","","","","","","","","","","","","","",""
"","","","","","image-keyboard-response","153","335840","0.0-2.0-7.0-1.26","63c173a52e1ba7078e5fd2c0","D2","batch4","","2791.7000000029802","stim/no_55_1_w.png","j","pattern_response","true","j","pattern_34","2791.7000000029802","true","59","","","","","","","","","","","","","","","","","","",""
"","","","","","html-keyboard-response","154","337155","0.0-2.0-7.0-0.27","63c173a52e1ba7078e5fd2c0","D2","batch4","","null","<p class=block-text>Trial 67 out of 78</p>","null","pattern_show_trial_num","","","","","","","","","","","","","","","","","","","","","","","","",""
"","","","","","image-keyboard-response","155","341463","0.0-2.0-7.0-1.27","63c173a52e1ba7078e5fd2c0","D2","batch4","","4303.600000008941","stim/no_36_2_w.png","j","pattern_response","true","j","pattern_18","4303.600000008941","true","60","","","","","","","","","","","","","","","","","","",""
"","","","","","html-keyboard-response","156","342779","0.0-2.0-7.0-0.28","63c173a52e1ba7078e5fd2c0","D2","batch4","","null","<p class=block-text>Trial 68 out of 78</p>","null","pattern_show_trial_num","","","","","","","","","","","","","","","","","","","","","","","","",""
"","","","","","image-keyboard-response","157","344967","0.0-2.0-7.0-1.28","63c173a52e1ba7078e5fd2c0","D2","batch4","","2183.7000000029802","stim/no_50_1.png","j","pattern_response","true","j","pattern_30","2183.7000000029802","true","61","","","","","","","","","","","","","","","","","","",""
"","","","","","html-keyboard-response","158","346283","0.0-2.0-7.0-0.29","63c173a52e1ba7078e5fd2c0","D2","batch4","","null","<p class=block-text>Trial 69 out of 78</p>","null","pattern_show_trial_num","","","","","","","","","","","","","","","","","","","","","","","","",""
"","","","","","image-keyboard-response","159","347624","0.0-2.0-7.0-1.29","63c173a52e1ba7078e5fd2c0","D2","batch4","","1337.199999988079","stim/no_17_1_w.png","j","pattern_response","true","j","pattern_04","1337.199999988079","true","62","","","","","","","","","","","","","","","","","","",""
"","","","","","html-keyboard-response","160","348939","0.0-2.0-7.0-0.30","63c173a52e1ba7078e5fd2c0","D2","batch4","","null","<p class=block-text>Trial 70 out of 78</p>","null","pattern_show_trial_num","","","","","","","","","","","","","","","","","","","","","","","","",""
"","","","","","image-keyboard-response","161","351512","0.0-2.0-7.0-1.30","63c173a52e1ba7078e5fd2c0","D2","batch4","","2567.6000000089407","stim/no_48_1_w.png","j","pattern_response","true","j","pattern_28","2567.6000000089407","true","63","","","","","","","","","","","","","","","","","","",""
"","","","","","html-keyboard-response","162","352827","0.0-2.0-7.0-0.31","63c173a52e1ba7078e5fd2c0","D2","batch4","","null","<p class=block-text>Trial 71 out of 78</p>","null","pattern_show_trial_num","","","","","","","","","","","","","","","","","","","","","","","","",""
"","","","","","image-keyboard-response","163","354375","0.0-2.0-7.0-1.31","63c173a52e1ba7078e5fd2c0","D2","batch4","","1543.5","stim/yes_29_ver_w1.png","f","pattern_response","true","f","pattern_53","1543.5","true","64","","","","","","","","","","","","","","","","","","",""
"","","","","","html-keyboard-response","164","355691","0.0-2.0-7.0-0.32","63c173a52e1ba7078e5fd2c0","D2","batch4","","null","<p class=block-text>Trial 72 out of 78</p>","null","pattern_show_trial_num","","","","","","","","","","","","","","","","","","","","","","","","",""
"","","","","","image-keyboard-response","165","357122","0.0-2.0-7.0-1.32","63c173a52e1ba7078e5fd2c0","D2","batch4","","1427.0999999940395","stim/no_29_1_b.png","j","pattern_response","true","j","pattern_12","1427.0999999940395","true","65","","","","","","","","","","","","","","","","","","",""
"","","","","","html-keyboard-response","166","358436","0.0-2.0-7.0-0.33","63c173a52e1ba7078e5fd2c0","D2","batch4","","null","<p class=block-text>Trial 73 out of 78</p>","null","pattern_show_trial_num","","","","","","","","","","","","","","","","","","","","","","","","",""
"","","","","","image-keyboard-response","167","359968","0.0-2.0-7.0-1.33","63c173a52e1ba7078e5fd2c0","D2","batch4","","1529.2000000029802","stim/yes_55_hor_w1_w.png","f","pattern_response","true","f","pattern_75","1529.2000000029802","true","66","","","","","","","","","","","","","","","","","","",""
"","","","","","html-keyboard-response","168","361284","0.0-2.0-7.0-0.34","63c173a52e1ba7078e5fd2c0","D2","batch4","","null","<p class=block-text>Trial 74 out of 78</p>","null","pattern_show_trial_num","","","","","","","","","","","","","","","","","","","","","","","","",""
"","","","","","image-keyboard-response","169","366072","0.0-2.0-7.0-1.34","63c173a52e1ba7078e5fd2c0","D2","batch4","","4783.5","stim/no_65_1_b.png","j","pattern_response","true","j","pattern_38","4783.5","true","67","","","","","","","","","","","","","","","","","","",""
"","","","","","html-keyboard-response","170","367388","0.0-2.0-7.0-0.35","63c173a52e1ba7078e5fd2c0","D2","batch4","","null","<p class=block-text>Trial 75 out of 78</p>","null","pattern_show_trial_num","","","","","","","","","","","","","","","","","","","","","","","","",""
"","","","","","image-keyboard-response","171","373482","0.0-2.0-7.0-1.35","63c173a52e1ba7078e5fd2c0","D2","batch4","","6087.20000000298","stim/no_62_1_w.png","j","pattern_response","true","j","pattern_36","6087.20000000298","true","68","","","","","","","","","","","","","","","","","","",""
"","","","","","html-keyboard-response","172","374795","0.0-2.0-7.0-0.36","63c173a52e1ba7078e5fd2c0","D2","batch4","","null","<p class=block-text>Trial 76 out of 78</p>","null","pattern_show_trial_num","","","","","","","","","","","","","","","","","","","","","","","","",""
"","","","","","image-keyboard-response","173","376624","0.0-2.0-7.0-1.36","63c173a52e1ba7078e5fd2c0","D2","batch4","","1823.199999988079","stim/no_23_1.png","j","pattern_response","true","j","pattern_08","1823.199999988079","true","69","","","","","","","","","","","","","","","","","","",""
"","","","","","html-keyboard-response","174","377939","0.0-2.0-7.0-0.37","63c173a52e1ba7078e5fd2c0","D2","batch4","","null","<p class=block-text>Trial 77 out of 78</p>","null","pattern_show_trial_num","","","","","","","","","","","","","","","","","","","","","","","","",""
"","","","","","image-keyboard-response","175","380488","0.0-2.0-7.0-1.37","63c173a52e1ba7078e5fd2c0","D2","batch4","","2545.4000000059605","stim/yes_40_dia_b1_b.png","j","pattern_response","false","f","pattern_63","2545.4000000059605","false","69","","","","","","","","","","","","","","","","","","",""
"","","","","","html-keyboard-response","176","381805","0.0-2.0-7.0-0.38","63c173a52e1ba7078e5fd2c0","D2","batch4","","null","<p class=block-text>Trial 78 out of 78</p>","null","pattern_show_trial_num","","","","","","","","","","","","","","","","","","","","","","","","",""
"","","","","","image-keyboard-response","177","382952","0.0-2.0-7.0-1.38","63c173a52e1ba7078e5fd2c0","D2","batch4","","1141.9000000059605","stim/yes_52_ver_w1.png","f","pattern_response","true","f","pattern_73","1141.9000000059605","true","70","","","","","","","","","","","","","","","","","","",""
"","","","","","html-button-response","178","391915","0.0-2.0-8.0","63c173a52e1ba7078e5fd2c0","D2","batch4","","8452.90000000596","<p class = block-text>This concludes the 4-in-a-row detection game.Thank you for your responses!<br>
            You responded correctly on 90% of the trials.<br>
            When you are ready, press ""Continue"" button to continue </p>","0","","","","","","","","","","","","","","","","","","","","","","","","","",""
"true","","","","","fullscreen","179","396027","0.0-3.0-0.0","63c173a52e1ba7078e5fd2c0","D2","batch4","","","","","","","","","","","","","","","","","","","","","","","","","","","","","",""
"","","","","","instructions","180","494210","0.0-3.0-1.0-0.0-0.0","63c173a52e1ba7078e5fd2c0","D2","batch4","[{""page_index"":0,""viewing_time"":18852.79999999702},{""page_index"":1,""viewing_time"":14327.90000000596},{""page_index"":2,""viewing_time"":8783.5},{""page_index"":3,""viewing_time"":20927.59999999404},{""page_index"":4,""viewing_time"":11591.90000000596},{""page_index"":5,""viewing_time"":18759.69999998808},{""page_index"":6,""viewing_time"":4935.800000011921}]","98180","","","tol-instructions","","","","","","","","","","","","","","","","","","","","","","","","",""
"","","","","","html-button-response","181","495730","0.0-3.0-1.0-1.0-0.0","63c173a52e1ba7078e5fd2c0","D2","batch4","","1517.5","<p class=block-text> Let's answer a few questions <br>","0","tol_enter_quiz","","","","","","","","","","","","","","","","","","","","","","","","",""
"","","","","","html-button-response","182","501050","0.0-3.0-1.0-1.0-1.0","63c173a52e1ba7078e5fd2c0","D2","batch4","","5317.0999999940395","<p class = block-text>True or False: You can only move the ball on top of a peg. <br></p>","0","tol_quiz","true","","","","","","","","","","","","","","","","","","","","","","","",""
"","","","","","html-button-response","183","502202","0.0-3.0-1.0-1.0-2.0","63c173a52e1ba7078e5fd2c0","D2","batch4","","1148.6000000089407","<p class = block-text>Correct! You can only move the ball on top of a peg.</p>","0","tol_quiz_feedback","","","","","","","","","","","","","","","","","","","","","","","","",""
"","","","","","html-button-response","184","507387","0.0-3.0-1.0-1.0-3.0","63c173a52e1ba7078e5fd2c0","D2","batch4","","5182.199999988079","<p class = block-text>True or False: You should try to match your board with the target board with fewest moves possible. <br></p>","0","tol_quiz","true","","","","","","","","","","","","","","","","","","","","","","","",""
"","","","","","html-button-response","185","508690","0.0-3.0-1.0-1.0-4.0","63c173a52e1ba7078e5fd2c0","D2","batch4","","1299.7000000029802","<p class = block-text>Correct! </p>","0","tol_quiz_feedback","","","","","","","","","","","","","","","","","","","","","","","","",""
"","","","","","html-button-response","186","512266","0.0-3.0-2.0","63c173a52e1ba7078e5fd2c0","D2","batch4","","3572.7000000029802","<p class=block-text> Now that you've understood the game, let's practice a few easier examples before we start!<br> <br>","0","","","","","","","","","","","","","","","","","","","","","","","","","",""
"","","","","","single-stim-button","187","516681","0.0-3.0-3.0-0.0","63c173a52e1ba7078e5fd2c0","D2","batch4","","4408","","","tol_practice","","","","","","","","","tol_peg_2","4408","4408","0","[[1,2,0],[0,0],[0]]","1","[[1,2,0],[0,0],[3]]","practice","4408","","","","","","","",""
"","","","","","single-stim-button","188","519035","0.0-3.0-3.0-1.0","63c173a52e1ba7078e5fd2c0","D2","batch4","","2350","","","tol_practice","","","","","","","","","tol_peg_3","2350","2350","0","[[1,2,0],[0,0],[3]]","1","[[1,2,0],[0,0],[3]]","practice","2350","","","","","","","",""
"","","","","","poldrack-single-stim","189","520046","0.0-3.0-4.0","63c173a52e1ba7078e5fd2c0","D2","batch4","","-1","","","tol_feedback","true","","","","","","","","","1000","1000","500","","","","","","-1","none","true","","0","","",""
"","","","","","single-stim-button","190","530851","0.0-3.0-5.0-0.0","63c173a52e1ba7078e5fd2c0","D2","batch4","","10802","","","tol_practice","","","","","","","","","tol_peg_1","10802","10802","0","[[1,0,0],[3,0],[0]]","2","[[0,0,0],[3,1],[2]]","practice","10802","","","","","","","",""
"","","","","","single-stim-button","191","532787","0.0-3.0-5.0-1.0","63c173a52e1ba7078e5fd2c0","D2","batch4","","1932","","","tol_practice","","","","","","","","","tol_peg_3","1932","1932","0","[[1,0,0],[3,0],[2]]","2","[[0,0,0],[3,1],[2]]","practice","1932","","","","","","","",""
"","","","","","single-stim-button","192","541516","0.0-3.0-5.1-0.1","63c173a52e1ba7078e5fd2c0","D2","batch4","","8725","","","tol_practice","","","","","","","","","tol_peg_1","8725","8725","0","[[0,0,0],[3,0],[2]]","3","[[0,0,0],[3,1],[2]]","practice","8725","","","","","","","",""
"","","","","","single-stim-button","193","543083","0.0-3.0-5.1-1.1","63c173a52e1ba7078e5fd2c0","D2","batch4","","1564","","","tol_practice","","","","","","","","","tol_peg_2","1564","1564","0","[[0,0,0],[3,1],[2]]","3","[[0,0,0],[3,1],[2]]","practice","1564","","","","","","","",""
"","","","","","poldrack-single-stim","194","544095","0.0-3.0-6.0","63c173a52e1ba7078e5fd2c0","D2","batch4","","-1","","","tol_feedback","true","","","","","","","","","1000","1000","500","","","","","","-1","none","true","","0","","",""
"","","","","","single-stim-button","195","550731","0.0-3.0-7.0-0.0","63c173a52e1ba7078e5fd2c0","D2","batch4","","6634","","","tol_practice","","","","","","","","","tol_peg_2","6634","6634","0","[[1,2,0],[0,0],[0]]","4","[[1,0,0],[2,0],[3]]","practice","6634","","","","","","","",""
"","","","","","single-stim-button","196","552099","0.0-3.0-7.0-1.0","63c173a52e1ba7078e5fd2c0","D2","batch4","","1365","","","tol_practice","","","","","","","","","tol_peg_3","1365","1365","0","[[1,2,0],[0,0],[3]]","4","[[1,0,0],[2,0],[3]]","practice","1365","","","","","","","",""
"","","","","","single-stim-button","197","553611","0.0-3.0-7.1-0.1","63c173a52e1ba7078e5fd2c0","D2","batch4","","1509","","","tol_practice","","","","","","","","","tol_peg_1","1509","1509","0","[[1,0,0],[0,0],[3]]","5","[[1,0,0],[2,0],[3]]","practice","1509","","","","","","","",""
"","","","","","single-stim-button","198","555203","0.0-3.0-7.1-1.1","63c173a52e1ba7078e5fd2c0","D2","batch4","","1589","","","tol_practice","","","","","","","","","tol_peg_2","1589","1589","0","[[1,0,0],[2,0],[3]]","5","[[1,0,0],[2,0],[3]]","practice","1589","","","","","","","",""
"","","","","","poldrack-single-stim","199","556215","0.0-3.0-8.0","63c173a52e1ba7078e5fd2c0","D2","batch4","","-1","","","tol_feedback","true","","","","","","","","","1000","1000","500","","","","","","-1","none","true","","0","","",""
"","","","","","html-button-response","200","561945","0.0-3.0-9.0","63c173a52e1ba7078e5fd2c0","D2","batch4","","5728.100000008941","<div class = centerbox><p class = center-block-text>Great job! You are done with practice trials<br>You are about to start official trials.<br> <br> Problem <strong>1</strong> out of 25 problems</p></div>","0","tol_instruction","","","","","","","","","","","","","","","","","","","","","","","","",""
"","","","","","single-stim-button","201","568396","0.0-3.0-10.0-0.0","63c173a52e1ba7078e5fd2c0","D2","batch4","","5444","","","tol_tohand","","","","","","","","","tol_peg_1","5444","5444","0","[[1,0,0],[3,0],[0]]","1","[[1,3,0],[2,0],[0]]","0","0","","","","","","3","",""
"","","","","","single-stim-button","202","570652","0.0-3.0-10.0-1.0","63c173a52e1ba7078e5fd2c0","D2","batch4","","2252","","","tol_toboard","","","","","","","","","tol_peg_3","2252","2252","0","[[1,0,0],[3,0],[2]]","1","[[1,3,0],[2,0],[0]]","0","0","","","","","","3","",""
"","","","","","single-stim-button","203","571819","0.0-3.0-10.1-0.1","63c173a52e1ba7078e5fd2c0","D2","batch4","","1164","","","tol_tohand","","","","","","","","","tol_peg_2","1164","1164","0","[[1,0,0],[0,0],[2]]","2","[[1,3,0],[2,0],[0]]","0","0","","","","","","3","",""
"","","","","","single-stim-button","204","572611","0.0-3.0-10.1-1.1","63c173a52e1ba7078e5fd2c0","D2","batch4","","788","","","tol_toboard","","","","","","","","","tol_peg_1","788","788","0","[[1,3,0],[0,0],[2]]","2","[[1,3,0],[2,0],[0]]","0","0","","","","","","3","",""
"","","","","","single-stim-button","205","575587","0.0-3.0-10.2-0.2","63c173a52e1ba7078e5fd2c0","D2","batch4","","2972","","","tol_tohand","","","","","","","","","tol_peg_3","2972","2972","0","[[1,3,0],[0,0],[0]]","3","[[1,3,0],[2,0],[0]]","0","0","","","","","","3","",""
"","","","","","single-stim-button","206","576539","0.0-3.0-10.2-1.2","63c173a52e1ba7078e5fd2c0","D2","batch4","","949","","","tol_toboard","","","","","","","","","tol_peg_2","949","949","0","[[1,3,0],[2,0],[0]]","3","[[1,3,0],[2,0],[0]]","0","0","","","","","","3","",""
"","","","","","poldrack-single-stim","207","577551","0.0-3.0-11.0","63c173a52e1ba7078e5fd2c0","D2","batch4","","-1","","","tol_feedback","true","","","","","","","","","1000","1000","500","","","","","","-1","none","true","5444","9580","","",""
"","","","","","html-button-response","208","583091","0.0-3.0-12.0","63c173a52e1ba7078e5fd2c0","D2","batch4","","5536.399999991059","<div class = centerbox><p class = center-block-text>problem <strong>2</strong> out of 25 problems</p></div>","0","tol_trial_num","","","","","","","","","","","","","","","","","","","","","","","","",""
"","","","","","single-stim-button","209","593740","0.0-3.0-13.0-0.0","63c173a52e1ba7078e5fd2c0","D2","batch4","","10645","","","tol_tohand","","","","","","","","","tol_peg_1","10645","10645","0","[[1,0,0],[3,0],[0]]","1","[[2,1,3],[0,0],[0]]","1","0","","","","","","5","",""
"","","","","","single-stim-button","210","595764","0.0-3.0-13.0-1.0","63c173a52e1ba7078e5fd2c0","D2","batch4","","2020","","","tol_toboard","","","","","","","","","tol_peg_3","2020","2020","0","[[1,0,0],[3,0],[2]]","1","[[2,1,3],[0,0],[0]]","1","0","","","","","","5","",""
"","","","","","single-stim-button","211","600916","0.0-3.0-13.1-0.1","63c173a52e1ba7078e5fd2c0","D2","batch4","","5149","","","tol_tohand","","","","","","","","","tol_peg_1","5149","5149","0","[[0,0,0],[3,0],[2]]","2","[[2,1,3],[0,0],[0]]","1","0","","","","","","5","",""
"","","","","","single-stim-button","212","603131","0.0-3.0-13.1-1.1","63c173a52e1ba7078e5fd2c0","D2","batch4","","2212","","","tol_toboard","","","","","","","","","tol_peg_2","2212","2212","0","[[0,0,0],[3,1],[2]]","2","[[2,1,3],[0,0],[0]]","1","0","","","","","","5","",""
"","","","","","single-stim-button","213","604483","0.0-3.0-13.2-0.2","63c173a52e1ba7078e5fd2c0","D2","batch4","","1349","","","tol_tohand","","","","","","","","","tol_peg_3","1349","1349","0","[[0,0,0],[3,1],[0]]","3","[[2,1,3],[0,0],[0]]","1","0","","","","","","5","",""
"","","","","","single-stim-button","214","605691","0.0-3.0-13.2-1.2","63c173a52e1ba7078e5fd2c0","D2","batch4","","1205","","","tol_toboard","","","","","","","","","tol_peg_1","1205","1205","0","[[2,0,0],[3,1],[0]]","3","[[2,1,3],[0,0],[0]]","1","0","","","","","","5","",""
"","","","","","single-stim-button","215","607411","0.0-3.0-13.3-0.3","63c173a52e1ba7078e5fd2c0","D2","batch4","","1717","","","tol_tohand","","","","","","","","","tol_peg_2","1717","1717","0","[[2,0,0],[3,0],[0]]","4","[[2,1,3],[0,0],[0]]","1","0","","","","","","5","",""
"","","","","","single-stim-button","216","608507","0.0-3.0-13.3-1.3","63c173a52e1ba7078e5fd2c0","D2","batch4","","1093","","","tol_toboard","","","","","","","","","tol_peg_1","1093","1093","0","[[2,1,0],[3,0],[0]]","4","[[2,1,3],[0,0],[0]]","1","0","","","","","","5","",""
"","","","","","single-stim-button","217","610043","0.0-3.0-13.4-0.4","63c173a52e1ba7078e5fd2c0","D2","batch4","","1533","","","tol_tohand","","","","","","","","","tol_peg_2","1533","1533","0","[[2,1,0],[0,0],[0]]","5","[[2,1,3],[0,0],[0]]","1","0","","","","","","5","",""
"","","","","","single-stim-button","218","610971","0.0-3.0-13.4-1.4","63c173a52e1ba7078e5fd2c0","D2","batch4","","926","","","tol_toboard","","","","","","","","","tol_peg_1","926","926","0","[[2,1,3],[0,0],[0]]","5","[[2,1,3],[0,0],[0]]","1","0","","","","","","5","",""
"","","","","","poldrack-single-stim","219","611976","0.0-3.0-14.0","63c173a52e1ba7078e5fd2c0","D2","batch4","","-1","","","tol_feedback","true","","","","","","","","","1000","1000","500","","","","","","-1","none","true","10645","20393","","",""
"","","","","","html-button-response","220","613555","0.0-3.0-15.0","63c173a52e1ba7078e5fd2c0","D2","batch4","","1575.699999988079","<div class = centerbox><p class = center-block-text>problem <strong>3</strong> out of 25 problems</p></div>","0","tol_trial_num","","","","","","","","","","","","","","","","","","","","","","","","",""
"","","","","","single-stim-button","221","619123","0.0-3.0-16.0-0.0","63c173a52e1ba7078e5fd2c0","D2","batch4","","5566","","","tol_tohand","","","","","","","","","tol_peg_1","5566","5566","0","[[2,0,0],[0,0],[1]]","1","[[1,2,0],[3,0],[0]]","2","0","","","","","","4","",""
"","","","","","single-stim-button","222","620627","0.0-3.0-16.0-1.0","63c173a52e1ba7078e5fd2c0","D2","batch4","","1501","","","tol_toboard","","","","","","","","","tol_peg_2","1501","1501","0","[[2,0,0],[3,0],[1]]","1","[[1,2,0],[3,0],[0]]","2","0","","","","","","4","",""
"","","","","","single-stim-button","223","623651","0.0-3.0-16.1-0.1","63c173a52e1ba7078e5fd2c0","D2","batch4","","3020","","","tol_tohand","","","","","","","","","tol_peg_1","3020","3020","0","[[0,0,0],[3,0],[1]]","2","[[1,2,0],[3,0],[0]]","2","0","","","","","","4","",""
"","","","","","single-stim-button","224","624267","0.0-3.0-16.1-1.1","63c173a52e1ba7078e5fd2c0","D2","batch4","","614","","","tol_toboard","","","","","","","","","tol_peg_2","614","614","0","[[0,0,0],[3,2],[1]]","2","[[1,2,0],[3,0],[0]]","2","0","","","","","","4","",""
"","","","","","single-stim-button","225","625147","0.0-3.0-16.2-0.2","63c173a52e1ba7078e5fd2c0","D2","batch4","","876","","","tol_tohand","","","","","","","","","tol_peg_3","876","876","0","[[0,0,0],[3,2],[0]]","3","[[1,2,0],[3,0],[0]]","2","0","","","","","","4","",""
"","","","","","single-stim-button","226","626043","0.0-3.0-16.2-1.2","63c173a52e1ba7078e5fd2c0","D2","batch4","","893","","","tol_toboard","","","","","","","","","tol_peg_1","893","893","0","[[1,0,0],[3,2],[0]]","3","[[1,2,0],[3,0],[0]]","2","0","","","","","","4","",""
"","","","","","single-stim-button","227","627339","0.0-3.0-16.3-0.3","63c173a52e1ba7078e5fd2c0","D2","batch4","","1292","","","tol_tohand","","","","","","","","","tol_peg_2","1292","1292","0","[[1,0,0],[3,0],[0]]","4","[[1,2,0],[3,0],[0]]","2","0","","","","","","4","",""
"","","","","","single-stim-button","228","628107","0.0-3.0-16.3-1.3","63c173a52e1ba7078e5fd2c0","D2","batch4","","765","","","tol_toboard","","","","","","","","","tol_peg_1","765","765","0","[[1,2,0],[3,0],[0]]","4","[[1,2,0],[3,0],[0]]","2","0","","","","","","4","",""
"","","","","","poldrack-single-stim","229","629112","0.0-3.0-17.0","63c173a52e1ba7078e5fd2c0","D2","batch4","","-1","","","tol_feedback","true","","","","","","","","","1000","1000","500","","","","","","-1","none","true","5566","10754","","",""
"","","","","","html-button-response","230","630434","0.0-3.0-18.0","63c173a52e1ba7078e5fd2c0","D2","batch4","","1319.4000000059605","<div class = centerbox><p class = center-block-text>problem <strong>4</strong> out of 25 problems</p></div>","0","tol_trial_num","","","","","","","","","","","","","","","","","","","","","","","","",""
"","","","","","single-stim-button","231","635099","0.0-3.0-19.0-0.0","63c173a52e1ba7078e5fd2c0","D2","batch4","","4661","","","tol_tohand","","","","","","","","","tol_peg_2","4661","4661","0","[[3,0,0],[2,0],[0]]","1","[[3,0,0],[1,0],[2]]","3","0","","","","","","3","",""
"","","","","","single-stim-button","232","637451","0.0-3.0-19.0-1.0","63c173a52e1ba7078e5fd2c0","D2","batch4","","2348","","","tol_toboard","","","","","","","","","tol_peg_1","2348","2348","0","[[3,1,0],[2,0],[0]]","1","[[3,0,0],[1,0],[2]]","3","0","","","","","","3","",""
"","","","","","single-stim-button","233","638115","0.0-3.0-19.1-0.1","63c173a52e1ba7078e5fd2c0","D2","batch4","","660","","","tol_tohand","","","","","","","","","tol_peg_2","660","660","0","[[3,1,0],[0,0],[0]]","2","[[3,0,0],[1,0],[2]]","3","0","","","","","","3","",""
"","","","","","single-stim-button","234","638843","0.0-3.0-19.1-1.1","63c173a52e1ba7078e5fd2c0","D2","batch4","","724","","","tol_toboard","","","","","","","","","tol_peg_3","724","724","0","[[3,1,0],[0,0],[2]]","2","[[3,0,0],[1,0],[2]]","3","0","","","","","","3","",""
"","","","","","single-stim-button","235","639876","0.0-3.0-19.2-0.2","63c173a52e1ba7078e5fd2c0","D2","batch4","","1029","","","tol_tohand","","","","","","","","","tol_peg_1","1029","1029","0","[[3,0,0],[0,0],[2]]","3","[[3,0,0],[1,0],[2]]","3","0","","","","","","3","",""
"","","","","","single-stim-button","236","640587","0.0-3.0-19.2-1.2","63c173a52e1ba7078e5fd2c0","D2","batch4","","708","","","tol_toboard","","","","","","","","","tol_peg_2","708","708","0","[[3,0,0],[1,0],[2]]","3","[[3,0,0],[1,0],[2]]","3","0","","","","","","3","",""
"","","","","","poldrack-single-stim","237","641600","0.0-3.0-20.0","63c173a52e1ba7078e5fd2c0","D2","batch4","","-1","","","tol_feedback","true","","","","","","","","","1000","1000","500","","","","","","-1","none","true","4661","6350","","",""
"","","","","","html-button-response","238","642851","0.0-3.0-21.0","63c173a52e1ba7078e5fd2c0","D2","batch4","","1247.2000000029802","<div class = centerbox><p class = center-block-text>problem <strong>5</strong> out of 25 problems</p></div>","0","tol_trial_num","","","","","","","","","","","","","","","","","","","","","","","","",""
"","","","","","single-stim-button","239","653475","0.0-3.0-22.0-0.0","63c173a52e1ba7078e5fd2c0","D2","batch4","","10622","","","tol_tohand","","","","","","","","","tol_peg_1","10622","10622","0","[[0,0,0],[2,0],[3]]","1","[[0,0,0],[1,2],[3]]","4","0","","","","","","7","",""
"","","","","","single-stim-button","240","654314","0.0-3.0-22.0-1.0","63c173a52e1ba7078e5fd2c0","D2","batch4","","836","","","tol_toboard","","","","","","","","","tol_peg_2","836","836","0","[[0,0,0],[2,1],[3]]","1","[[0,0,0],[1,2],[3]]","4","0","","","","","","7","",""
"","","","","","single-stim-button","241","664947","0.0-3.0-22.1-0.1","63c173a52e1ba7078e5fd2c0","D2","batch4","","10630","","","tol_tohand","","","","","","","","","tol_peg_3","10630","10630","0","[[0,0,0],[2,1],[0]]","2","[[0,0,0],[1,2],[3]]","4","0","","","","","","7","",""
"","","","","","single-stim-button","242","666139","0.0-3.0-22.1-1.1","63c173a52e1ba7078e5fd2c0","D2","batch4","","1189","","","tol_toboard","","","","","","","","","tol_peg_1","1189","1189","0","[[3,0,0],[2,1],[0]]","2","[[0,0,0],[1,2],[3]]","4","0","","","","","","7","",""
"","","","","","single-stim-button","243","669164","0.0-3.0-22.2-0.2","63c173a52e1ba7078e5fd2c0","D2","batch4","","3021","","","tol_tohand","","","","","","","","","tol_peg_2","3021","3021","0","[[3,0,0],[2,0],[0]]","3","[[0,0,0],[1,2],[3]]","4","0","","","","","","7","",""
"","","","","","single-stim-button","244","670987","0.0-3.0-22.2-1.2","63c173a52e1ba7078e5fd2c0","D2","batch4","","1821","","","tol_toboard","","","","","","","","","tol_peg_1","1821","1821","0","[[3,1,0],[2,0],[0]]","3","[[0,0,0],[1,2],[3]]","4","0","","","","","","7","",""
"","","","","","single-stim-button","245","672099","0.0-3.0-22.3-0.3","63c173a52e1ba7078e5fd2c0","D2","batch4","","1109","","","tol_tohand","","","","","","","","","tol_peg_2","1109","1109","0","[[3,1,0],[0,0],[0]]","4","[[0,0,0],[1,2],[3]]","4","0","","","","","","7","",""
"","","","","","single-stim-button","246","673235","0.0-3.0-22.3-1.3","63c173a52e1ba7078e5fd2c0","D2","batch4","","1133","","","tol_toboard","","","","","","","","","tol_peg_3","1133","1133","0","[[3,1,0],[0,0],[2]]","4","[[0,0,0],[1,2],[3]]","4","0","","","","","","7","",""
"","","","","","single-stim-button","247","674483","0.0-3.0-22.4-0.4","63c173a52e1ba7078e5fd2c0","D2","batch4","","1245","","","tol_tohand","","","","","","","","","tol_peg_1","1245","1245","0","[[3,0,0],[0,0],[2]]","5","[[0,0,0],[1,2],[3]]","4","0","","","","","","7","",""
"","","","","","single-stim-button","248","675452","0.0-3.0-22.4-1.4","63c173a52e1ba7078e5fd2c0","D2","batch4","","966","","","tol_toboard","","","","","","","","","tol_peg_2","966","966","0","[[3,0,0],[1,0],[2]]","5","[[0,0,0],[1,2],[3]]","4","0","","","","","","7","",""
"","","","","","single-stim-button","249","677548","0.0-3.0-22.5-0.5","63c173a52e1ba7078e5fd2c0","D2","batch4","","2093","","","tol_tohand","","","","","","","","","tol_peg_3","2093","2093","0","[[3,0,0],[1,0],[0]]","6","[[0,0,0],[1,2],[3]]","4","0","","","","","","7","",""
"","","","","","single-stim-button","250","678932","0.0-3.0-22.5-1.5","63c173a52e1ba7078e5fd2c0","D2","batch4","","1381","","","tol_toboard","","","","","","","","","tol_peg_2","1381","1381","0","[[3,0,0],[1,2],[0]]","6","[[0,0,0],[1,2],[3]]","4","0","","","","","","7","",""
"","","","","","single-stim-button","251","679860","0.0-3.0-22.6-0.6","63c173a52e1ba7078e5fd2c0","D2","batch4","","924","","","tol_tohand","","","","","","","","","tol_peg_1","924","924","0","[[0,0,0],[1,2],[0]]","7","[[0,0,0],[1,2],[3]]","4","0","","","","","","7","",""
"","","","","","single-stim-button","252","680539","0.0-3.0-22.6-1.6","63c173a52e1ba7078e5fd2c0","D2","batch4","","677","","","tol_toboard","","","","","","","","","tol_peg_3","677","677","0","[[0,0,0],[1,2],[3]]","7","[[0,0,0],[1,2],[3]]","4","0","","","","","","7","",""
"","","","","","poldrack-single-stim","253","681546","0.0-3.0-23.0","63c173a52e1ba7078e5fd2c0","D2","batch4","","-1","","","tol_feedback","true","","","","","","","","","1000","1000","500","","","","","","-1","none","true","10622","29644","","",""
"","","","","","html-button-response","254","682827","0.0-3.0-24.0","63c173a52e1ba7078e5fd2c0","D2","batch4","","1278.5","<div class = centerbox><p class = center-block-text>problem <strong>6</strong> out of 25 problems</p></div>","0","tol_trial_num","","","","","","","","","","","","","","","","","","","","","","","","",""
"","","","","","single-stim-button","255","695445","0.0-3.0-25.0-0.0","63c173a52e1ba7078e5fd2c0","D2","batch4","","12613","","","tol_tohand","","","","","","","","","tol_peg_3","12613","12613","0","[[0,0,0],[1,2],[0]]","1","[[1,0,0],[2,3],[0]]","5","0","","","","","","6","",""
"","","","","","single-stim-button","256","696468","0.0-3.0-25.0-1.0","63c173a52e1ba7078e5fd2c0","D2","batch4","","1019","","","tol_toboard","","","","","","","","","tol_peg_1","1019","1019","0","[[3,0,0],[1,2],[0]]","1","[[1,0,0],[2,3],[0]]","5","0","","","","","","6","",""
"","","","","","single-stim-button","257","698004","0.0-3.0-25.1-0.1","63c173a52e1ba7078e5fd2c0","D2","batch4","","1533","","","tol_tohand","","","","","","","","","tol_peg_2","1533","1533","0","[[3,0,0],[1,0],[0]]","2","[[1,0,0],[2,3],[0]]","5","0","","","","","","6","",""
"","","","","","single-stim-button","258","701244","0.0-3.0-25.1-1.1","63c173a52e1ba7078e5fd2c0","D2","batch4","","3237","","","tol_toboard","","","","","","","","","tol_peg_1","3237","3237","0","[[3,2,0],[1,0],[0]]","2","[[1,0,0],[2,3],[0]]","5","0","","","","","","6","",""
"","","","","","single-stim-button","259","703043","0.0-3.0-25.2-0.2","63c173a52e1ba7078e5fd2c0","D2","batch4","","1796","","","tol_tohand","","","","","","","","","tol_peg_2","1796","1796","0","[[3,2,0],[0,0],[0]]","3","[[1,0,0],[2,3],[0]]","5","0","","","","","","6","",""
"","","","","","single-stim-button","260","704051","0.0-3.0-25.2-1.2","63c173a52e1ba7078e5fd2c0","D2","batch4","","1006","","","tol_toboard","","","","","","","","","tol_peg_3","1006","1006","0","[[3,2,0],[0,0],[1]]","3","[[1,0,0],[2,3],[0]]","5","0","","","","","","6","",""
"","","","","","single-stim-button","261","706219","0.0-3.0-25.3-0.3","63c173a52e1ba7078e5fd2c0","D2","batch4","","2164","","","tol_tohand","","","","","","","","","tol_peg_1","2164","2164","0","[[3,0,0],[0,0],[1]]","4","[[1,0,0],[2,3],[0]]","5","0","","","","","","6","",""
"","","","","","single-stim-button","262","706971","0.0-3.0-25.3-1.3","63c173a52e1ba7078e5fd2c0","D2","batch4","","748","","","tol_toboard","","","","","","","","","tol_peg_2","748","748","0","[[3,0,0],[2,0],[1]]","4","[[1,0,0],[2,3],[0]]","5","0","","","","","","6","",""
"","","","","","single-stim-button","263","707684","0.0-3.0-25.4-0.4","63c173a52e1ba7078e5fd2c0","D2","batch4","","709","","","tol_tohand","","","","","","","","","tol_peg_1","709","709","0","[[0,0,0],[2,0],[1]]","5","[[1,0,0],[2,3],[0]]","5","0","","","","","","6","",""
"","","","","","single-stim-button","264","708396","0.0-3.0-25.4-1.4","63c173a52e1ba7078e5fd2c0","D2","batch4","","709","","","tol_toboard","","","","","","","","","tol_peg_2","709","709","0","[[0,0,0],[2,3],[1]]","5","[[1,0,0],[2,3],[0]]","5","0","","","","","","6","",""
"","","","","","single-stim-button","265","709524","0.0-3.0-25.5-0.5","63c173a52e1ba7078e5fd2c0","D2","batch4","","1124","","","tol_tohand","","","","","","","","","tol_peg_3","1124","1124","0","[[0,0,0],[2,3],[0]]","6","[[1,0,0],[2,3],[0]]","5","0","","","","","","6","",""
"","","","","","single-stim-button","266","710724","0.0-3.0-25.5-1.5","63c173a52e1ba7078e5fd2c0","D2","batch4","","1196","","","tol_toboard","","","","","","","","","tol_peg_1","1196","1196","0","[[1,0,0],[2,3],[0]]","6","[[1,0,0],[2,3],[0]]","5","0","","","","","","6","",""
"","","","","","poldrack-single-stim","267","711729","0.0-3.0-26.0","63c173a52e1ba7078e5fd2c0","D2","batch4","","-1","","","tol_feedback","true","","","","","","","","","1000","1000","500","","","","","","-1","none","true","12613","19939","","",""
"","","","","","html-button-response","268","712722","0.0-3.0-27.0","63c173a52e1ba7078e5fd2c0","D2","batch4","","990.8999999910593","<div class = centerbox><p class = center-block-text>problem <strong>7</strong> out of 25 problems</p></div>","0","tol_trial_num","","","","","","","","","","","","","","","","","","","","","","","","",""
"","","","","","single-stim-button","269","719667","0.0-3.0-28.0-0.0","63c173a52e1ba7078e5fd2c0","D2","batch4","","6942","","","tol_tohand","","","","","","","","","tol_peg_3","6942","6942","0","[[2,1,0],[0,0],[0]]","1","[[1,2,0],[3,0],[0]]","6","0","","","","","","5","",""
"","","","","","single-stim-button","270","720396","0.0-3.0-28.0-1.0","63c173a52e1ba7078e5fd2c0","D2","batch4","","725","","","tol_toboard","","","","","","","","","tol_peg_2","725","725","0","[[2,1,0],[3,0],[0]]","1","[[1,2,0],[3,0],[0]]","6","0","","","","","","5","",""
"","","","","","single-stim-button","271","721908","0.0-3.0-28.1-0.1","63c173a52e1ba7078e5fd2c0","D2","batch4","","1509","","","tol_tohand","","","","","","","","","tol_peg_1","1509","1509","0","[[2,0,0],[3,0],[0]]","2","[[1,2,0],[3,0],[0]]","6","0","","","","","","5","",""
"","","","","","single-stim-button","272","723851","0.0-3.0-28.1-1.1","63c173a52e1ba7078e5fd2c0","D2","batch4","","1941","","","tol_toboard","","","","","","","","","tol_peg_3","1941","1941","0","[[2,0,0],[3,0],[1]]","2","[[1,2,0],[3,0],[0]]","6","0","","","","","","5","",""
"","","","","","single-stim-button","273","724851","0.0-3.0-28.2-0.2","63c173a52e1ba7078e5fd2c0","D2","batch4","","997","","","tol_tohand","","","","","","","","","tol_peg_1","997","997","0","[[0,0,0],[3,0],[1]]","3","[[1,2,0],[3,0],[0]]","6","0","","","","","","5","",""
"","","","","","single-stim-button","274","725796","0.0-3.0-28.2-1.2","63c173a52e1ba7078e5fd2c0","D2","batch4","","941","","","tol_toboard","","","","","","","","","tol_peg_2","941","941","0","[[0,0,0],[3,2],[1]]","3","[[1,2,0],[3,0],[0]]","6","0","","","","","","5","",""
"","","","","","single-stim-button","275","726804","0.0-3.0-28.3-0.3","63c173a52e1ba7078e5fd2c0","D2","batch4","","1005","","","tol_tohand","","","","","","","","","tol_peg_3","1005","1005","0","[[0,0,0],[3,2],[0]]","4","[[1,2,0],[3,0],[0]]","6","0","","","","","","5","",""
"","","","","","single-stim-button","276","727707","0.0-3.0-28.3-1.3","63c173a52e1ba7078e5fd2c0","D2","batch4","","901","","","tol_toboard","","","","","","","","","tol_peg_1","901","901","0","[[1,0,0],[3,2],[0]]","4","[[1,2,0],[3,0],[0]]","6","0","","","","","","5","",""
"","","","","","single-stim-button","277","729179","0.0-3.0-28.4-0.4","63c173a52e1ba7078e5fd2c0","D2","batch4","","1469","","","tol_tohand","","","","","","","","","tol_peg_2","1469","1469","0","[[1,0,0],[3,0],[0]]","5","[[1,2,0],[3,0],[0]]","6","0","","","","","","5","",""
"","","","","","single-stim-button","278","729817","0.0-3.0-28.4-1.4","63c173a52e1ba7078e5fd2c0","D2","batch4","","636","","","tol_toboard","","","","","","","","","tol_peg_1","636","636","0","[[1,2,0],[3,0],[0]]","5","[[1,2,0],[3,0],[0]]","6","0","","","","","","5","",""
"","","","","","poldrack-single-stim","279","730825","0.0-3.0-29.0","63c173a52e1ba7078e5fd2c0","D2","batch4","","-1","","","tol_feedback","true","","","","","","","","","1000","1000","500","","","","","","-1","none","true","6942","11922","","",""
"","","","","","html-button-response","280","732059","0.0-3.0-30.0","63c173a52e1ba7078e5fd2c0","D2","batch4","","1230.800000011921","<div class = centerbox><p class = center-block-text>problem <strong>8</strong> out of 25 problems</p></div>","0","tol_trial_num","","","","","","","","","","","","","","","","","","","","","","","","",""
"","","","","","single-stim-button","281","740308","0.0-3.0-31.0-0.0","63c173a52e1ba7078e5fd2c0","D2","batch4","","8246","","","tol_tohand","","","","","","","","","tol_peg_3","8246","8246","0","[[0,0,0],[2,3],[0]]","1","[[1,2,0],[3,0],[0]]","7","0","","","","","","4","",""
"","","","","","single-stim-button","282","741275","0.0-3.0-31.0-1.0","63c173a52e1ba7078e5fd2c0","D2","batch4","","964","","","tol_toboard","","","","","","","","","tol_peg_1","964","964","0","[[1,0,0],[2,3],[0]]","1","[[1,2,0],[3,0],[0]]","7","0","","","","","","4","",""
"","","","","","single-stim-button","283","742436","0.0-3.0-31.1-0.1","63c173a52e1ba7078e5fd2c0","D2","batch4","","1157","","","tol_tohand","","","","","","","","","tol_peg_2","1157","1157","0","[[1,0,0],[2,0],[0]]","2","[[1,2,0],[3,0],[0]]","7","0","","","","","","4","",""
"","","","","","single-stim-button","284","743076","0.0-3.0-31.1-1.1","63c173a52e1ba7078e5fd2c0","D2","batch4","","637","","","tol_toboard","","","","","","","","","tol_peg_1","637","637","0","[[1,3,0],[2,0],[0]]","2","[[1,2,0],[3,0],[0]]","7","0","","","","","","4","",""
"","","","","","single-stim-button","285","747876","0.0-3.0-31.2-0.2","63c173a52e1ba7078e5fd2c0","D2","batch4","","4797","","","tol_tohand","","","","","","","","","tol_peg_2","4797","4797","0","[[1,3,0],[0,0],[0]]","3","[[1,2,0],[3,0],[0]]","7","0","","","","","","4","",""
"","","","","","single-stim-button","286","749475","0.0-3.0-31.2-1.2","63c173a52e1ba7078e5fd2c0","D2","batch4","","1596","","","tol_toboard","","","","","","","","","tol_peg_3","1596","1596","0","[[1,3,0],[0,0],[2]]","3","[[1,2,0],[3,0],[0]]","7","0","","","","","","4","",""
"","","","","","single-stim-button","287","751019","0.0-3.0-31.3-0.3","63c173a52e1ba7078e5fd2c0","D2","batch4","","1540","","","tol_tohand","","","","","","","","","tol_peg_1","1540","1540","0","[[1,0,0],[0,0],[2]]","4","[[1,2,0],[3,0],[0]]","7","0","","","","","","4","",""
"","","","","","single-stim-button","288","751803","0.0-3.0-31.3-1.3","63c173a52e1ba7078e5fd2c0","D2","batch4","","780","","","tol_toboard","","","","","","","","","tol_peg_2","780","780","0","[[1,0,0],[3,0],[2]]","4","[[1,2,0],[3,0],[0]]","7","0","","","","","","4","",""
"","","","","","single-stim-button","289","752580","0.0-3.0-31.4-0.4","63c173a52e1ba7078e5fd2c0","D2","batch4","","774","","","tol_tohand","","","","","","","","","tol_peg_3","774","774","0","[[1,0,0],[3,0],[0]]","5","[[1,2,0],[3,0],[0]]","7","0","","","","","","4","",""
"","","","","","single-stim-button","290","753500","0.0-3.0-31.4-1.4","63c173a52e1ba7078e5fd2c0","D2","batch4","","916","","","tol_toboard","","","","","","","","","tol_peg_1","916","916","0","[[1,2,0],[3,0],[0]]","5","[[1,2,0],[3,0],[0]]","7","0","","","","","","4","",""
"","","","","","poldrack-single-stim","291","754506","0.0-3.0-32.0","63c173a52e1ba7078e5fd2c0","D2","batch4","","-1","","","tol_feedback","true","","","","","","","","","1000","1000","500","","","","","","-1","none","true","8246","16514","","",""
"","","","","","html-button-response","292","755643","0.0-3.0-33.0","63c173a52e1ba7078e5fd2c0","D2","batch4","","1133.5","<div class = centerbox><p class = center-block-text>problem <strong>9</strong> out of 25 problems</p></div>","0","tol_trial_num","","","","","","","","","","","","","","","","","","","","","","","","",""
"","","","","","single-stim-button","293","766947","0.0-3.0-34.0-0.0","63c173a52e1ba7078e5fd2c0","D2","batch4","","11302","","","tol_tohand","","","","","","","","","tol_peg_3","11302","11302","0","[[3,2,0],[0,0],[0]]","1","[[2,1,0],[3,0],[0]]","8","0","","","","","","6","",""
"","","","","","single-stim-button","294","772355","0.0-3.0-34.0-1.0","63c173a52e1ba7078e5fd2c0","D2","batch4","","5404","","","tol_toboard","","","","","","","","","tol_peg_2","5404","5404","0","[[3,2,0],[1,0],[0]]","1","[[2,1,0],[3,0],[0]]","8","0","","","","","","6","",""
"","","","","","single-stim-button","295","773539","0.0-3.0-34.1-0.1","63c173a52e1ba7078e5fd2c0","D2","batch4","","1181","","","tol_tohand","","","","","","","","","tol_peg_1","1181","1181","0","[[3,0,0],[1,0],[0]]","2","[[2,1,0],[3,0],[0]]","8","0","","","","","","6","",""
"","","","","","single-stim-button","296","775058","0.0-3.0-34.1-1.1","63c173a52e1ba7078e5fd2c0","D2","batch4","","1517","","","tol_toboard","","","","","","","","","tol_peg_2","1517","1517","0","[[3,0,0],[1,2],[0]]","2","[[2,1,0],[3,0],[0]]","8","0","","","","","","6","",""
"","","","","","single-stim-button","297","776122","0.0-3.0-34.2-0.2","63c173a52e1ba7078e5fd2c0","D2","batch4","","1061","","","tol_tohand","","","","","","","","","tol_peg_1","1061","1061","0","[[0,0,0],[1,2],[0]]","3","[[2,1,0],[3,0],[0]]","8","0","","","","","","6","",""
"","","","","","single-stim-button","298","777138","0.0-3.0-34.2-1.2","63c173a52e1ba7078e5fd2c0","D2","batch4","","1013","","","tol_toboard","","","","","","","","","tol_peg_3","1013","1013","0","[[0,0,0],[1,2],[3]]","3","[[2,1,0],[3,0],[0]]","8","0","","","","","","6","",""
"","","","","","single-stim-button","299","778466","0.0-3.0-34.3-0.3","63c173a52e1ba7078e5fd2c0","D2","batch4","","1325","","","tol_tohand","","","","","","","","","tol_peg_2","1325","1325","0","[[0,0,0],[1,0],[3]]","4","[[2,1,0],[3,0],[0]]","8","0","","","","","","6","",""
"","","","","","single-stim-button","300","779419","0.0-3.0-34.3-1.3","63c173a52e1ba7078e5fd2c0","D2","batch4","","949","","","tol_toboard","","","","","","","","","tol_peg_1","949","949","0","[[2,0,0],[1,0],[3]]","4","[[2,1,0],[3,0],[0]]","8","0","","","","","","6","",""
"","","","","","single-stim-button","301","780660","0.0-3.0-34.4-0.4","63c173a52e1ba7078e5fd2c0","D2","batch4","","1237","","","tol_tohand","","","","","","","","","tol_peg_2","1237","1237","0","[[2,0,0],[0,0],[3]]","5","[[2,1,0],[3,0],[0]]","8","0","","","","","","6","",""
"","","","","","single-stim-button","302","781307","0.0-3.0-34.4-1.4","63c173a52e1ba7078e5fd2c0","D2","batch4","","645","","","tol_toboard","","","","","","","","","tol_peg_1","645","645","0","[[2,1,0],[0,0],[3]]","5","[[2,1,0],[3,0],[0]]","8","0","","","","","","6","",""
"","","","","","single-stim-button","303","782587","0.0-3.0-34.5-0.5","63c173a52e1ba7078e5fd2c0","D2","batch4","","1277","","","tol_tohand","","","","","","","","","tol_peg_3","1277","1277","0","[[2,1,0],[0,0],[0]]","6","[[2,1,0],[3,0],[0]]","8","0","","","","","","6","",""
"","","","","","single-stim-button","304","783355","0.0-3.0-34.5-1.5","63c173a52e1ba7078e5fd2c0","D2","batch4","","766","","","tol_toboard","","","","","","","","","tol_peg_2","766","766","0","[[2,1,0],[3,0],[0]]","6","[[2,1,0],[3,0],[0]]","8","0","","","","","","6","",""
"","","","","","poldrack-single-stim","305","784362","0.0-3.0-35.0","63c173a52e1ba7078e5fd2c0","D2","batch4","","-1","","","tol_feedback","true","","","","","","","","","1000","1000","500","","","","","","-1","none","true","11302","17383","","",""
"","","","","","html-button-response","306","785435","0.0-3.0-36.0","63c173a52e1ba7078e5fd2c0","D2","batch4","","1070.0999999940395","<div class = centerbox><p class = center-block-text>problem <strong>10</strong> out of 25 problems</p></div>","0","tol_trial_num","","","","","","","","","","","","","","","","","","","","","","","","",""
"","","","","","single-stim-button","307","790948","0.0-3.0-37.0-0.0","63c173a52e1ba7078e5fd2c0","D2","batch4","","5510","","","tol_tohand","","","","","","","","","tol_peg_3","5510","5510","0","[[3,0,0],[1,0],[0]]","1","[[3,0,0],[2,1],[0]]","9","0","","","","","","3","",""
"","","","","","single-stim-button","308","792084","0.0-3.0-37.0-1.0","63c173a52e1ba7078e5fd2c0","D2","batch4","","1132","","","tol_toboard","","","","","","","","","tol_peg_1","1132","1132","0","[[3,2,0],[1,0],[0]]","1","[[3,0,0],[2,1],[0]]","9","0","","","","","","3","",""
"","","","","","single-stim-button","309","792779","0.0-3.0-37.1-0.1","63c173a52e1ba7078e5fd2c0","D2","batch4","","693","","","tol_tohand","","","","","","","","","tol_peg_2","693","693","0","[[3,2,0],[0,0],[0]]","2","[[3,0,0],[2,1],[0]]","9","0","","","","","","3","",""
"","","","","","single-stim-button","310","793795","0.0-3.0-37.1-1.1","63c173a52e1ba7078e5fd2c0","D2","batch4","","1013","","","tol_toboard","","","","","","","","","tol_peg_3","1013","1013","0","[[3,2,0],[0,0],[1]]","2","[[3,0,0],[2,1],[0]]","9","0","","","","","","3","",""
"","","","","","single-stim-button","311","795308","0.0-3.0-37.2-0.2","63c173a52e1ba7078e5fd2c0","D2","batch4","","1509","","","tol_tohand","","","","","","","","","tol_peg_1","1509","1509","0","[[3,0,0],[0,0],[1]]","3","[[3,0,0],[2,1],[0]]","9","0","","","","","","3","",""
"","","","","","single-stim-button","312","796091","0.0-3.0-37.2-1.2","63c173a52e1ba7078e5fd2c0","D2","batch4","","781","","","tol_toboard","","","","","","","","","tol_peg_2","781","781","0","[[3,0,0],[2,0],[1]]","3","[[3,0,0],[2,1],[0]]","9","0","","","","","","3","",""
"","","","","","single-stim-button","313","796875","0.0-3.0-37.3-0.3","63c173a52e1ba7078e5fd2c0","D2","batch4","","781","","","tol_tohand","","","","","","","","","tol_peg_3","781","781","0","[[3,0,0],[2,0],[0]]","4","[[3,0,0],[2,1],[0]]","9","0","","","","","","3","",""
"","","","","","single-stim-button","314","797524","0.0-3.0-37.3-1.3","63c173a52e1ba7078e5fd2c0","D2","batch4","","645","","","tol_toboard","","","","","","","","","tol_peg_2","645","645","0","[[3,0,0],[2,1],[0]]","4","[[3,0,0],[2,1],[0]]","9","0","","","","","","3","",""
"","","","","","poldrack-single-stim","315","798530","0.0-3.0-38.0","63c173a52e1ba7078e5fd2c0","D2","batch4","","-1","","","tol_feedback","true","","","","","","","","","1000","1000","500","","","","","","-1","none","true","5510","8493","","",""
"","","","","","html-button-response","316","799450","0.0-3.0-39.0","63c173a52e1ba7078e5fd2c0","D2","batch4","","916.7000000029802","<div class = centerbox><p class = center-block-text>problem <strong>11</strong> out of 25 problems</p></div>","0","tol_trial_num","","","","","","","","","","","","","","","","","","","","","","","","",""
"","","","","","single-stim-button","317","804812","0.0-3.0-40.0-0.0","63c173a52e1ba7078e5fd2c0","D2","batch4","","5360","","","tol_tohand","","","","","","","","","tol_peg_1","5360","5360","0","[[1,0,0],[3,0],[0]]","1","[[2,0,0],[1,3],[0]]","10","0","","","","","","6","",""
"","","","","","single-stim-button","318","806123","0.0-3.0-40.0-1.0","63c173a52e1ba7078e5fd2c0","D2","batch4","","1307","","","tol_toboard","","","","","","","","","tol_peg_3","1307","1307","0","[[1,0,0],[3,0],[2]]","1","[[2,0,0],[1,3],[0]]","10","0","","","","","","6","",""
"","","","","","single-stim-button","319","808132","0.0-3.0-40.1-0.1","63c173a52e1ba7078e5fd2c0","D2","batch4","","2005","","","tol_tohand","","","","","","","","","tol_peg_1","2005","2005","0","[[0,0,0],[3,0],[2]]","2","[[2,0,0],[1,3],[0]]","10","0","","","","","","6","",""
"","","","","","single-stim-button","320","808772","0.0-3.0-40.1-1.1","63c173a52e1ba7078e5fd2c0","D2","batch4","","637","","","tol_toboard","","","","","","","","","tol_peg_2","637","637","0","[[0,0,0],[3,1],[2]]","2","[[2,0,0],[1,3],[0]]","10","0","","","","","","6","",""
"","","","","","single-stim-button","321","809524","0.0-3.0-40.2-0.2","63c173a52e1ba7078e5fd2c0","D2","batch4","","748","","","tol_tohand","","","","","","","","","tol_peg_3","748","748","0","[[0,0,0],[3,1],[0]]","3","[[2,0,0],[1,3],[0]]","10","0","","","","","","6","",""
"","","","","","single-stim-button","322","810588","0.0-3.0-40.2-1.2","63c173a52e1ba7078e5fd2c0","D2","batch4","","1061","","","tol_toboard","","","","","","","","","tol_peg_1","1061","1061","0","[[2,0,0],[3,1],[0]]","3","[[2,0,0],[1,3],[0]]","10","0","","","","","","6","",""
"","","","","","single-stim-button","323","811612","0.0-3.0-40.3-0.3","63c173a52e1ba7078e5fd2c0","D2","batch4","","1019","","","tol_tohand","","","","","","","","","tol_peg_2","1019","1019","0","[[2,0,0],[3,0],[0]]","4","[[2,0,0],[1,3],[0]]","10","0","","","","","","6","",""
"","","","","","single-stim-button","324","813443","0.0-3.0-40.3-1.3","63c173a52e1ba7078e5fd2c0","D2","batch4","","1829","","","tol_toboard","","","","","","","","","tol_peg_3","1829","1829","0","[[2,0,0],[3,0],[1]]","4","[[2,0,0],[1,3],[0]]","10","0","","","","","","6","",""
"","","","","","single-stim-button","325","816475","0.0-3.0-40.4-0.4","63c173a52e1ba7078e5fd2c0","D2","batch4","","3029","","","tol_tohand","","","","","","","","","tol_peg_2","3029","3029","0","[[2,0,0],[0,0],[1]]","5","[[2,0,0],[1,3],[0]]","10","0","","","","","","6","",""
"","","","","","single-stim-button","326","817098","0.0-3.0-40.4-1.4","63c173a52e1ba7078e5fd2c0","D2","batch4","","621","","","tol_toboard","","","","","","","","","tol_peg_1","621","621","0","[[2,3,0],[0,0],[1]]","5","[[2,0,0],[1,3],[0]]","10","0","","","","","","6","",""
"","","","","","single-stim-button","327","818138","0.0-3.0-40.5-0.5","63c173a52e1ba7078e5fd2c0","D2","batch4","","1037","","","tol_tohand","","","","","","","","","tol_peg_3","1037","1037","0","[[2,3,0],[0,0],[0]]","6","[[2,0,0],[1,3],[0]]","10","0","","","","","","6","",""
"","","","","","single-stim-button","328","819131","0.0-3.0-40.5-1.5","63c173a52e1ba7078e5fd2c0","D2","batch4","","991","","","tol_toboard","","","","","","","","","tol_peg_2","991","991","0","[[2,3,0],[1,0],[0]]","6","[[2,0,0],[1,3],[0]]","10","0","","","","","","6","",""
"","","","","","single-stim-button","329","820122","0.0-3.0-40.6-0.6","63c173a52e1ba7078e5fd2c0","D2","batch4","","989","","","tol_tohand","","","","","","","","","tol_peg_1","989","989","0","[[2,0,0],[1,0],[0]]","7","[[2,0,0],[1,3],[0]]","10","0","","","","","","6","",""
"","","","","","single-stim-button","330","820827","0.0-3.0-40.6-1.6","63c173a52e1ba7078e5fd2c0","D2","batch4","","702","","","tol_toboard","","","","","","","","","tol_peg_2","702","702","0","[[2,0,0],[1,3],[0]]","7","[[2,0,0],[1,3],[0]]","10","0","","","","","","6","",""
"","","","","","poldrack-single-stim","331","821833","0.0-3.0-41.0","63c173a52e1ba7078e5fd2c0","D2","batch4","","-1","","","tol_feedback","true","","","","","","","","","1000","1000","500","","","","","","-1","none","true","5360","14187","","",""
"","","","","","html-button-response","332","823130","0.0-3.0-42.0","63c173a52e1ba7078e5fd2c0","D2","batch4","","1294.0999999940395","<div class = centerbox><p class = center-block-text>problem <strong>12</strong> out of 25 problems</p></div>","0","tol_trial_num","","","","","","","","","","","","","","","","","","","","","","","","",""
"","","","","","single-stim-button","333","829339","0.0-3.0-43.0-0.0","63c173a52e1ba7078e5fd2c0","D2","batch4","","6205","","","tol_tohand","","","","","","","","","tol_peg_2","6205","6205","0","[[1,2,0],[0,0],[0]]","1","[[2,3,0],[0,0],[1]]","11","0","","","","","","4","",""
"","","","","","single-stim-button","334","830346","0.0-3.0-43.0-1.0","63c173a52e1ba7078e5fd2c0","D2","batch4","","1004","","","tol_toboard","","","","","","","","","tol_peg_3","1004","1004","0","[[1,2,0],[0,0],[3]]","1","[[2,3,0],[0,0],[1]]","11","0","","","","","","4","",""
"","","","","","single-stim-button","335","832731","0.0-3.0-43.1-0.1","63c173a52e1ba7078e5fd2c0","D2","batch4","","2381","","","tol_tohand","","","","","","","","","tol_peg_1","2381","2381","0","[[1,0,0],[0,0],[3]]","2","[[2,3,0],[0,0],[1]]","11","0","","","","","","4","",""
"","","","","","single-stim-button","336","836235","0.0-3.0-43.1-1.1","63c173a52e1ba7078e5fd2c0","D2","batch4","","3501","","","tol_toboard","","","","","","","","","tol_peg_2","3501","3501","0","[[1,0,0],[2,0],[3]]","2","[[2,3,0],[0,0],[1]]","11","0","","","","","","4","",""
"","","","","","single-stim-button","337","842596","0.0-3.0-43.2-0.2","63c173a52e1ba7078e5fd2c0","D2","batch4","","6358","","","tol_tohand","","","","","","","","","tol_peg_3","6358","6358","0","[[1,0,0],[2,0],[0]]","3","[[2,3,0],[0,0],[1]]","11","0","","","","","","4","",""
"","","","","","single-stim-button","338","843171","0.0-3.0-43.2-1.2","63c173a52e1ba7078e5fd2c0","D2","batch4","","573","","","tol_toboard","","","","","","","","","tol_peg_2","573","573","0","[[1,0,0],[2,3],[0]]","3","[[2,3,0],[0,0],[1]]","11","0","","","","","","4","",""
"","","","","","single-stim-button","339","843868","0.0-3.0-43.3-0.3","63c173a52e1ba7078e5fd2c0","D2","batch4","","694","","","tol_tohand","","","","","","","","","tol_peg_1","694","694","0","[[0,0,0],[2,3],[0]]","4","[[2,3,0],[0,0],[1]]","11","0","","","","","","4","",""
"","","","","","single-stim-button","340","844851","0.0-3.0-43.3-1.3","63c173a52e1ba7078e5fd2c0","D2","batch4","","981","","","tol_toboard","","","","","","","","","tol_peg_3","981","981","0","[[0,0,0],[2,3],[1]]","4","[[2,3,0],[0,0],[1]]","11","0","","","","","","4","",""
"","","","","","single-stim-button","341","848196","0.0-3.0-43.4-0.4","63c173a52e1ba7078e5fd2c0","D2","batch4","","3341","","","tol_tohand","","","","","","","","","tol_peg_2","3341","3341","0","[[0,0,0],[2,0],[1]]","5","[[2,3,0],[0,0],[1]]","11","0","","","","","","4","",""
"","","","","","single-stim-button","342","853148","0.0-3.0-43.4-1.4","63c173a52e1ba7078e5fd2c0","D2","batch4","","4949","","","tol_toboard","","","","","","","","","tol_peg_1","4949","4949","0","[[3,0,0],[2,0],[1]]","5","[[2,3,0],[0,0],[1]]","11","0","","","","","","4","",""
"","","","","","single-stim-button","343","855827","0.0-3.0-43.5-0.5","63c173a52e1ba7078e5fd2c0","D2","batch4","","2676","","","tol_tohand","","","","","","","","","tol_peg_3","2676","2676","0","[[3,0,0],[2,0],[0]]","6","[[2,3,0],[0,0],[1]]","11","0","","","","","","4","",""
"","","","","","single-stim-button","344","856500","0.0-3.0-43.5-1.5","63c173a52e1ba7078e5fd2c0","D2","batch4","","669","","","tol_toboard","","","","","","","","","tol_peg_2","669","669","0","[[3,0,0],[2,1],[0]]","6","[[2,3,0],[0,0],[1]]","11","0","","","","","","4","",""
"","","","","","single-stim-button","345","857180","0.0-3.0-43.6-0.6","63c173a52e1ba7078e5fd2c0","D2","batch4","","677","","","tol_tohand","","","","","","","","","tol_peg_1","677","677","0","[[0,0,0],[2,1],[0]]","7","[[2,3,0],[0,0],[1]]","11","0","","","","","","4","",""
"","","","","","single-stim-button","346","876763","0.0-3.0-43.6-1.6","63c173a52e1ba7078e5fd2c0","D2","batch4","","19580","","","tol_toboard","","","","","","","","","tol_peg_1","19580","19580","0","[[3,0,0],[2,1],[0]]","7","[[2,3,0],[0,0],[1]]","11","0","","","","","","4","",""
"","","","","","single-stim-button","347","879459","0.0-3.0-43.7-0.7","63c173a52e1ba7078e5fd2c0","D2","batch4","","2691","","","tol_tohand","","","","","","","","","tol_peg_2","2691","2691","0","[[3,0,0],[2,0],[0]]","8","[[2,3,0],[0,0],[1]]","11","0","","","","","","4","",""
