"success","timeout","failed_images","failed_audio","failed_video","trial_type","trial_index","time_elapsed","internal_node_id","subject_id","study_id","session_id","view_history","rt","stimulus","response","task","correct","answer","item","fiar_detect_rt","fiar_detect_correct","total_correct_fiar_detect","post_trial_gap","choices","mouse_click","stim_duration","block_duration","timing_post_trial","current_position","tol_num_moves_made","tol_target","tol_problem_id","tol_rt","key_press","possible_responses","tol_correct","preplanning","tol_rt_per_trial","tol_min_moves","spm_correct","spm_rt"
"true","false","[]","[]","[]","preload","0","23878","0.0-0.0","63c487fa9db90581d57dc017","C3","batch3","","","","","","","","","","","","","","","","","","","","","","","","","","","","","",""
"true","","","","","fullscreen","1","37471","0.0-1.0-0.0","63c487fa9db90581d57dc017","C3","batch3","","","","","","","","","","","","","","","","","","","","","","","","","","","","","",""
"true","","","","","fullscreen","2","42404","0.0-2.0-0.0","63c487fa9db90581d57dc017","C3","batch3","","","","","","","","","","","","","","","","","","","","","","","","","","","","","",""
"","","","","","instructions","3","44850","0.0-2.0-1.0-0.0","63c487fa9db90581d57dc017","C3","batch3","[{""page_index"":0,""viewing_time"":1836.0999999996275},{""page_index"":1,""viewing_time"":607.7000000011176}]","2444.199999999255","","","","","","","","","","","","","","","","","","","","","","","","","","","",""
"","","","","","html-button-response","4","46522","0.0-2.0-1.0-1.0-0.0","63c487fa9db90581d57dc017","C3","batch3","","1670.5999999996275","<p class=block-text> Let's answer a few questions <br>","0","pattern_enter_quiz","","","","","","","","","","","","","","","","","","","","","","","","",""
"","","","","","html-button-response","5","51898","0.0-2.0-1.0-1.0-1.0","63c487fa9db90581d57dc017","C3","batch3","","5373.799999998882","<p class = block-text>True or False: You will have as much time as you want to make each choice. <br></p>","0","pattern_quiz","false","","","","","","","","","","","","","","","","","","","","","","","",""
"","","","","","html-button-response","6","52842","0.0-2.0-1.0-1.0-2.0","63c487fa9db90581d57dc017","C3","batch3","","942.9000000003725","<p class = block-text>Incorrect. Remember, You should make your choice as fast as you can.</p>","0","pattern_quiz_feedback","","","","","","","","","","","","","","","","","","","","","","","","",""
"","","","","","html-button-response","7","60674","0.0-2.0-1.0-1.0-3.0","63c487fa9db90581d57dc017","C3","batch3","","7830.4000000003725","<p class = block-text>True or False: You will look for 4 pieces in black or white color connected in a row either horizontally, vertically or diagonally. <br></p>","0","pattern_quiz","true","","","","","","","","","","","","","","","","","","","","","","","",""
"","","","","","html-button-response","8","61434","0.0-2.0-1.0-1.0-4.0","63c487fa9db90581d57dc017","C3","batch3","","758.5","<p class = block-text>Correct! </p>","0","pattern_quiz_feedback","","","","","","","","","","","","","","","","","","","","","","","","",""
"","","","","","html-button-response","9","63434","0.0-2.0-1.0-2.0-0.0","63c487fa9db90581d57dc017","C3","batch3","","1997.2999999988824","<p class = block-text>You made too many incorrect choices.</p><p class = block-text>You will now repeat the instruction and quiz</p>","0","","","","","","","","","","","","","","","","","","","","","","","","","",""
"","","","","","instructions","10","65194","0.0-2.0-1.1-0.1","63c487fa9db90581d57dc017","C3","batch3","[{""page_index"":0,""viewing_time"":903},{""page_index"":1,""viewing_time"":856}]","1759.2999999988824","","","","","","","","","","","","","","","","","","","","","","","","","","","",""
"","","","","","html-button-response","11","66330","0.0-2.0-1.1-1.1-0.1","63c487fa9db90581d57dc017","C3","batch3","","1134.5999999996275","<p class=block-text> Let's answer a few questions <br>","0","pattern_enter_quiz","","","","","","","","","","","","","","","","","","","","","","","","",""
"","","","","","html-button-response","12","68698","0.0-2.0-1.1-1.1-1.1","63c487fa9db90581d57dc017","C3","batch3","","2366.0999999996275","<p class = block-text>True or False: You will have as much time as you want to make each choice. <br></p>","1","pattern_quiz","true","","","","","","","","","","","","","","","","","","","","","","","",""
"","","","","","html-button-response","13","69531","0.0-2.0-1.1-1.1-2.1","63c487fa9db90581d57dc017","C3","batch3","","830.9000000003725","<p class = block-text>Correct! You should make your choice <strong> as fast as you can</strong>.</p>","0","pattern_quiz_feedback","","","","","","","","","","","","","","","","","","","","","","","","",""
"","","","","","html-button-response","14","72162","0.0-2.0-1.1-1.1-3.1","63c487fa9db90581d57dc017","C3","batch3","","2630","<p class = block-text>True or False: You will look for 4 pieces in black or white color connected in a row either horizontally, vertically or diagonally. <br></p>","0","pattern_quiz","true","","","","","","","","","","","","","","","","","","","","","","","",""
"","","","","","html-button-response","15","72714","0.0-2.0-1.1-1.1-4.1","63c487fa9db90581d57dc017","C3","batch3","","550.5","<p class = block-text>Correct! </p>","0","pattern_quiz_feedback","","","","","","","","","","","","","","","","","","","","","","","","",""
"","","","","","html-button-response","16","74082","0.0-2.0-2.0","63c487fa9db90581d57dc017","C3","batch3","","1366.5","<p class=block-text> Now that you've understood the game, let's do a few practice trials before we start!<br> <br>","0","pattern_enter_practice","","","","","","","","","","","","","","","","","","","","","","","","",""
"","","","","","image-keyboard-response","17","91883","0.0-2.0-3.0-0.0","63c487fa9db90581d57dc017","C3","batch3","","17794.699999999255","stim/prac_no_18_1.png","j","pattern_practice","true","j","","","","","","","","","","","","","","","","","","","","","","",""
"","","","","","html-keyboard-response","18","92912","0.0-2.0-3.0-1.0","63c487fa9db90581d57dc017","C3","batch3","","null","<p style=""font-size:30px;color:green;"">Correct!</p>","null","pattern_feedback","","","","","","","","","","","","","","","","","","","","","","","","",""
"","","","","","image-keyboard-response","19","95970","0.0-2.0-3.0-0.1","63c487fa9db90581d57dc017","C3","batch3","","3054.5","stim/prac_yes_20_dia_b1.png","f","pattern_practice","true","f","","","","","","","","","","","","","","","","","","","","","","",""
"","","","","","html-keyboard-response","20","96989","0.0-2.0-3.0-1.1","63c487fa9db90581d57dc017","C3","batch3","","null","<p style=""font-size:30px;color:green;"">Correct!</p>","null","pattern_feedback","","","","","","","","","","","","","","","","","","","","","","","","",""
"","","","","","image-keyboard-response","21","98868","0.0-2.0-3.0-0.2","63c487fa9db90581d57dc017","C3","batch3","","1874.2999999988824","stim/prac_yes_16_ver_w1.png","f","pattern_practice","true","f","","","","","","","","","","","","","","","","","","","","","","",""
"","","","","","html-keyboard-response","22","99888","0.0-2.0-3.0-1.2","63c487fa9db90581d57dc017","C3","batch3","","null","<p style=""font-size:30px;color:green;"">Correct!</p>","null","pattern_feedback","","","","","","","","","","","","","","","","","","","","","","","","",""
"","","","","","image-keyboard-response","23","101083","0.0-2.0-3.0-0.3","63c487fa9db90581d57dc017","C3","batch3","","1191.9000000003725","stim/prac_yes_18_hor_w1.png","f","pattern_practice","true","f","","","","","","","","","","","","","","","","","","","","","","",""
"","","","","","html-keyboard-response","24","102094","0.0-2.0-3.0-1.3","63c487fa9db90581d57dc017","C3","batch3","","null","<p style=""font-size:30px;color:green;"">Correct!</p>","null","pattern_feedback","","","","","","","","","","","","","","","","","","","","","","","","",""
"","","","","","image-keyboard-response","25","107066","0.0-2.0-3.0-0.4","63c487fa9db90581d57dc017","C3","batch3","","4966.699999999255","stim/prac_no_16_1.png","f","pattern_practice","false","j","","","","","","","","","","","","","","","","","","","","","","",""
"","","","","","html-keyboard-response","26","108080","0.0-2.0-3.0-1.4","63c487fa9db90581d57dc017","C3","batch3","","null","<p style=""font-size:30px;color:red;"">Wrong.</p>","null","pattern_feedback","","","","","","","","","","","","","","","","","","","","","","","","",""
"","","","","","html-button-response","27","111337","0.0-2.0-4.0","63c487fa9db90581d57dc017","C3","batch3","","3254.4000000003725","<p class=block-text> Good job! You are done with practice trials!<br>
        You responded correctly on 80% of the trials.<br>
        Press the button below to start official trials. Now you won't see any feedback about your response</p>","0","pattern_enter_official_trials","","","","","","","","","","","","","","","","","","","","","","","","",""
"","","","","","html-keyboard-response","28","112147","0.0-2.0-5.0-0.0","63c487fa9db90581d57dc017","C3","batch3","","null","<p class=block-text>Trial 1 out of 78</p>","null","pattern_show_trial_num","","","","","","","","","","","","","","","","","","","","","","","","",""
"","","","","","image-keyboard-response","29","114547","0.0-2.0-5.0-1.0","63c487fa9db90581d57dc017","C3","batch3","","2396.199999999255","stim/no_12_1.png","j","pattern_response","true","j","pattern_01","2396.199999999255","true","1","","","","","","","","","","","","","","","","","","",""
"","","","","","html-keyboard-response","30","115873","0.0-2.0-5.0-0.1","63c487fa9db90581d57dc017","C3","batch3","","null","<p class=block-text>Trial 2 out of 78</p>","null","pattern_show_trial_num","","","","","","","","","","","","","","","","","","","","","","","","",""
"","","","","","image-keyboard-response","31","117068","0.0-2.0-5.0-1.1","63c487fa9db90581d57dc017","C3","batch3","","1191.2999999988824","stim/yes_30_ver_b1_b.png","f","pattern_response","true","f","pattern_54","1191.2999999988824","true","2","","","","","","","","","","","","","","","","","","",""
"","","","","","html-keyboard-response","32","118393","0.0-2.0-5.0-0.2","63c487fa9db90581d57dc017","C3","batch3","","null","<p class=block-text>Trial 3 out of 78</p>","null","pattern_show_trial_num","","","","","","","","","","","","","","","","","","","","","","","","",""
"","","","","","image-keyboard-response","33","119838","0.0-2.0-5.0-1.2","63c487fa9db90581d57dc017","C3","batch3","","1441.300000000745","stim/yes_23_ver_b1.png","f","pattern_response","true","f","pattern_48","1441.300000000745","true","3","","","","","","","","","","","","","","","","","","",""
"","","","","","html-keyboard-response","34","121168","0.0-2.0-5.0-0.3","63c487fa9db90581d57dc017","C3","batch3","","null","<p class=block-text>Trial 4 out of 78</p>","null","pattern_show_trial_num","","","","","","","","","","","","","","","","","","","","","","","","",""
"","","","","","image-keyboard-response","35","125836","0.0-2.0-5.0-1.3","63c487fa9db90581d57dc017","C3","batch3","","4664.199999999255","stim/yes_49_hor_w1_b.png","f","pattern_response","true","f","pattern_70","4664.199999999255","true","4","","","","","","","","","","","","","","","","","","",""
"","","","","","html-keyboard-response","36","127166","0.0-2.0-5.0-0.4","63c487fa9db90581d57dc017","C3","batch3","","null","<p class=block-text>Trial 5 out of 78</p>","null","pattern_show_trial_num","","","","","","","","","","","","","","","","","","","","","","","","",""
"","","","","","image-keyboard-response","37","128562","0.0-2.0-5.0-1.4","63c487fa9db90581d57dc017","C3","batch3","","1391.2000000011176","stim/yes_42_dia_w1_w.png","f","pattern_response","true","f","pattern_64","1391.2000000011176","true","5","","","","","","","","","","","","","","","","","","",""
"","","","","","html-keyboard-response","38","129887","0.0-2.0-5.0-0.5","63c487fa9db90581d57dc017","C3","batch3","","null","<p class=block-text>Trial 6 out of 78</p>","null","pattern_show_trial_num","","","","","","","","","","","","","","","","","","","","","","","","",""
"","","","","","image-keyboard-response","39","131033","0.0-2.0-5.0-1.5","63c487fa9db90581d57dc017","C3","batch3","","1142.7999999988824","stim/yes_36_ver_w1_w.png","f","pattern_response","true","f","pattern_58","1142.7999999988824","true","6","","","","","","","","","","","","","","","","","","",""
"","","","","","html-keyboard-response","40","132340","0.0-2.0-5.0-0.6","63c487fa9db90581d57dc017","C3","batch3","","null","<p class=block-text>Trial 7 out of 78</p>","null","pattern_show_trial_num","","","","","","","","","","","","","","","","","","","","","","","","",""
"","","","","","image-keyboard-response","41","134275","0.0-2.0-5.0-1.6","63c487fa9db90581d57dc017","C3","batch3","","1930","stim/no_18_1_b.png","j","pattern_response","true","j","pattern_05","1930","true","7","","","","","","","","","","","","","","","","","","",""
"","","","","","html-keyboard-response","42","135589","0.0-2.0-5.0-0.7","63c487fa9db90581d57dc017","C3","batch3","","null","<p class=block-text>Trial 8 out of 78</p>","null","pattern_show_trial_num","","","","","","","","","","","","","","","","","","","","","","","","",""
"","","","","","image-keyboard-response","43","140819","0.0-2.0-5.0-1.7","63c487fa9db90581d57dc017","C3","batch3","","5226.0999999996275","stim/no_49_2_b.png","j","pattern_response","true","j","pattern_29","5226.0999999996275","true","8","","","","","","","","","","","","","","","","","","",""
"","","","","","html-keyboard-response","44","142147","0.0-2.0-5.0-0.8","63c487fa9db90581d57dc017","C3","batch3","","null","<p class=block-text>Trial 9 out of 78</p>","null","pattern_show_trial_num","","","","","","","","","","","","","","","","","","","","","","","","",""
"","","","","","image-keyboard-response","45","143627","0.0-2.0-5.0-1.8","63c487fa9db90581d57dc017","C3","batch3","","1474.2000000011176","stim/yes_70_ver_b1.png","f","pattern_response","true","f","pattern_80","1474.2000000011176","true","9","","","","","","","","","","","","","","","","","","",""
"","","","","","html-keyboard-response","46","144950","0.0-2.0-5.0-0.9","63c487fa9db90581d57dc017","C3","batch3","","null","<p class=block-text>Trial 10 out of 78</p>","null","pattern_show_trial_num","","","","","","","","","","","","","","","","","","","","","","","","",""
"","","","","","image-keyboard-response","47","145732","0.0-2.0-5.0-1.9","63c487fa9db90581d57dc017","C3","batch3","","777.5999999996275","stim/no_15_1_w.png","j","pattern_response","true","j","pattern_03","777.5999999996275","true","10","","","","","","","","","","","","","","","","","","",""
"","","","","","html-keyboard-response","48","147039","0.0-2.0-5.0-0.10","63c487fa9db90581d57dc017","C3","batch3","","null","<p class=block-text>Trial 11 out of 78</p>","null","pattern_show_trial_num","","","","","","","","","","","","","","","","","","","","","","","","",""
"","","","","","image-keyboard-response","49","149532","0.0-2.0-5.0-1.10","63c487fa9db90581d57dc017","C3","batch3","","2489.199999999255","stim/no_36_1_b.png","j","pattern_response","true","j","pattern_17","2489.199999999255","true","11","","","","","","","","","","","","","","","","","","",""
"","","","","","html-keyboard-response","50","150855","0.0-2.0-5.0-0.11","63c487fa9db90581d57dc017","C3","batch3","","null","<p class=block-text>Trial 12 out of 78</p>","null","pattern_show_trial_num","","","","","","","","","","","","","","","","","","","","","","","","",""
"","","","","","image-keyboard-response","51","151629","0.0-2.0-5.0-1.11","63c487fa9db90581d57dc017","C3","batch3","","771.5","stim/yes_39_hor_w1_w.png","f","pattern_response","true","f","pattern_62","771.5","true","12","","","","","","","","","","","","","","","","","","",""
"","","","","","html-keyboard-response","52","152938","0.0-2.0-5.0-0.12","63c487fa9db90581d57dc017","C3","batch3","","null","<p class=block-text>Trial 13 out of 78</p>","null","pattern_show_trial_num","","","","","","","","","","","","","","","","","","","","","","","","",""
"","","","","","image-keyboard-response","53","157937","0.0-2.0-5.0-1.12","63c487fa9db90581d57dc017","C3","batch3","","4996","stim/no_58_1_w.png","j","pattern_response","true","j","pattern_35","4996","true","13","","","","","","","","","","","","","","","","","","",""
"","","","","","html-keyboard-response","54","159265","0.0-2.0-5.0-0.13","63c487fa9db90581d57dc017","C3","batch3","","null","<p class=block-text>Trial 14 out of 78</p>","null","pattern_show_trial_num","","","","","","","","","","","","","","","","","","","","","","","","",""
"","","","","","image-keyboard-response","55","160059","0.0-2.0-5.0-1.13","63c487fa9db90581d57dc017","C3","batch3","","789","stim/yes_37_hor_w1_w.png","f","pattern_response","true","f","pattern_60","789","true","14","","","","","","","","","","","","","","","","","","",""
"","","","","","html-keyboard-response","56","161369","0.0-2.0-5.0-0.14","63c487fa9db90581d57dc017","C3","batch3","","null","<p class=block-text>Trial 15 out of 78</p>","null","pattern_show_trial_num","","","","","","","","","","","","","","","","","","","","","","","","",""
"","","","","","image-keyboard-response","57","162773","0.0-2.0-5.0-1.14","63c487fa9db90581d57dc017","C3","batch3","","1401.2000000011176","stim/no_28_2.png","j","pattern_response","true","j","pattern_11","1401.2000000011176","true","15","","","","","","","","","","","","","","","","","","",""
"","","","","","html-keyboard-response","58","164096","0.0-2.0-5.0-0.15","63c487fa9db90581d57dc017","C3","batch3","","null","<p class=block-text>Trial 16 out of 78</p>","null","pattern_show_trial_num","","","","","","","","","","","","","","","","","","","","","","","","",""
"","","","","","image-keyboard-response","59","165001","0.0-2.0-5.0-1.15","63c487fa9db90581d57dc017","C3","batch3","","903.6999999992549","stim/yes_44_ver_w1_w.png","f","pattern_response","true","f","pattern_66","903.6999999992549","true","16","","","","","","","","","","","","","","","","","","",""
"","","","","","html-keyboard-response","60","166321","0.0-2.0-5.0-0.16","63c487fa9db90581d57dc017","C3","batch3","","null","<p class=block-text>Trial 17 out of 78</p>","null","pattern_show_trial_num","","","","","","","","","","","","","","","","","","","","","","","","",""
"","","","","","image-keyboard-response","61","171755","0.0-2.0-5.0-1.16","63c487fa9db90581d57dc017","C3","batch3","","5428.5","stim/no_51_1.png","j","pattern_response","true","j","pattern_31","5428.5","true","17","","","","","","","","","","","","","","","","","","",""
"","","","","","html-keyboard-response","62","173075","0.0-2.0-5.0-0.17","63c487fa9db90581d57dc017","C3","batch3","","null","<p class=block-text>Trial 18 out of 78</p>","null","pattern_show_trial_num","","","","","","","","","","","","","","","","","","","","","","","","",""
"","","","","","image-keyboard-response","63","176332","0.0-2.0-5.0-1.17","63c487fa9db90581d57dc017","C3","batch3","","3251.2000000011176","stim/no_45_1_w.png","j","pattern_response","true","j","pattern_25","3251.2000000011176","true","18","","","","","","","","","","","","","","","","","","",""
"","","","","","html-keyboard-response","64","177660","0.0-2.0-5.0-0.18","63c487fa9db90581d57dc017","C3","batch3","","null","<p class=block-text>Trial 19 out of 78</p>","null","pattern_show_trial_num","","","","","","","","","","","","","","","","","","","","","","","","",""
"","","","","","image-keyboard-response","65","178565","0.0-2.0-5.0-1.18","63c487fa9db90581d57dc017","C3","batch3","","900.1999999992549","stim/yes_26_dia_w2_w.png","j","pattern_response","false","f","pattern_50","900.1999999992549","false","18","","","","","","","","","","","","","","","","","","",""
"","","","","","html-keyboard-response","66","179879","0.0-2.0-5.0-0.19","63c487fa9db90581d57dc017","C3","batch3","","null","<p class=block-text>Trial 20 out of 78</p>","null","pattern_show_trial_num","","","","","","","","","","","","","","","","","","","","","","","","",""
"","","","","","image-keyboard-response","67","180898","0.0-2.0-5.0-1.19","63c487fa9db90581d57dc017","C3","batch3","","1015.5999999996275","stim/no_47_1_b.png","j","pattern_response","true","j","pattern_27","1015.5999999996275","true","19","","","","","","","","","","","","","","","","","","",""
"","","","","","html-keyboard-response","68","182202","0.0-2.0-5.0-0.20","63c487fa9db90581d57dc017","C3","batch3","","null","<p class=block-text>Trial 21 out of 78</p>","null","pattern_show_trial_num","","","","","","","","","","","","","","","","","","","","","","","","",""
"","","","","","image-keyboard-response","69","185069","0.0-2.0-5.0-1.20","63c487fa9db90581d57dc017","C3","batch3","","2863.9000000003725","stim/no_37_2_w.png","j","pattern_response","true","j","pattern_19","2863.9000000003725","true","20","","","","","","","","","","","","","","","","","","",""
"","","","","","html-keyboard-response","70","186386","0.0-2.0-5.0-0.21","63c487fa9db90581d57dc017","C3","batch3","","null","<p class=block-text>Trial 22 out of 78</p>","null","pattern_show_trial_num","","","","","","","","","","","","","","","","","","","","","","","","",""
"","","","","","image-keyboard-response","71","187578","0.0-2.0-5.0-1.21","63c487fa9db90581d57dc017","C3","batch3","","1186.5","stim/no_30_1_b.png","j","pattern_response","true","j","pattern_13","1186.5","true","21","","","","","","","","","","","","","","","","","","",""
"","","","","","html-keyboard-response","72","188905","0.0-2.0-5.0-0.22","63c487fa9db90581d57dc017","C3","batch3","","null","<p class=block-text>Trial 23 out of 78</p>","null","pattern_show_trial_num","","","","","","","","","","","","","","","","","","","","","","","","",""
"","","","","","image-keyboard-response","73","190931","0.0-2.0-5.0-1.22","63c487fa9db90581d57dc017","C3","batch3","","2022.5","stim/no_25_1_b.png","j","pattern_response","true","j","pattern_09","2022.5","true","22","","","","","","","","","","","","","","","","","","",""
"","","","","","html-keyboard-response","74","192251","0.0-2.0-5.0-0.23","63c487fa9db90581d57dc017","C3","batch3","","null","<p class=block-text>Trial 24 out of 78</p>","null","pattern_show_trial_num","","","","","","","","","","","","","","","","","","","","","","","","",""
"","","","","","image-keyboard-response","75","198611","0.0-2.0-5.0-1.23","63c487fa9db90581d57dc017","C3","batch3","","6357.9000000003725","stim/no_39_1_w.png","j","pattern_response","true","j","pattern_21","6357.9000000003725","true","23","","","","","","","","","","","","","","","","","","",""
"","","","","","html-keyboard-response","76","199933","0.0-2.0-5.0-0.24","63c487fa9db90581d57dc017","C3","batch3","","null","<p class=block-text>Trial 25 out of 78</p>","null","pattern_show_trial_num","","","","","","","","","","","","","","","","","","","","","","","","",""
"","","","","","image-keyboard-response","77","201185","0.0-2.0-5.0-1.24","63c487fa9db90581d57dc017","C3","batch3","","1246","stim/yes_46_ver_b1_b.png","f","pattern_response","true","f","pattern_68","1246","true","24","","","","","","","","","","","","","","","","","","",""
"","","","","","html-keyboard-response","78","202508","0.0-2.0-5.0-0.25","63c487fa9db90581d57dc017","C3","batch3","","null","<p class=block-text>Trial 26 out of 78</p>","null","pattern_show_trial_num","","","","","","","","","","","","","","","","","","","","","","","","",""
"","","","","","image-keyboard-response","79","208192","0.0-2.0-5.0-1.25","63c487fa9db90581d57dc017","C3","batch3","","5683.0999999996275","stim/no_67_1.png","j","pattern_response","true","j","pattern_39","5683.0999999996275","true","25","","","","","","","","","","","","","","","","","","",""
"","","","","","html-keyboard-response","80","209510","0.0-2.0-5.0-0.26","63c487fa9db90581d57dc017","C3","batch3","","null","<p class=block-text>Trial 27 out of 78</p>","null","pattern_show_trial_num","","","","","","","","","","","","","","","","","","","","","","","","",""
"","","","","","image-keyboard-response","81","210323","0.0-2.0-5.0-1.26","63c487fa9db90581d57dc017","C3","batch3","","806.5","stim/no_22_1_b.png","j","pattern_response","true","j","pattern_07","806.5","true","26","","","","","","","","","","","","","","","","","","",""
"","","","","","html-keyboard-response","82","211644","0.0-2.0-5.0-0.27","63c487fa9db90581d57dc017","C3","batch3","","null","<p class=block-text>Trial 28 out of 78</p>","null","pattern_show_trial_num","","","","","","","","","","","","","","","","","","","","","","","","",""
"","","","","","image-keyboard-response","83","214500","0.0-2.0-5.0-1.27","63c487fa9db90581d57dc017","C3","batch3","","2852.9000000003725","stim/no_33_1_b.png","j","pattern_response","true","j","pattern_15","2852.9000000003725","true","27","","","","","","","","","","","","","","","","","","",""
"","","","","","html-keyboard-response","84","215814","0.0-2.0-5.0-0.28","63c487fa9db90581d57dc017","C3","batch3","","null","<p class=block-text>Trial 29 out of 78</p>","null","pattern_show_trial_num","","","","","","","","","","","","","","","","","","","","","","","","",""
"","","","","","image-keyboard-response","85","219225","0.0-2.0-5.0-1.28","63c487fa9db90581d57dc017","C3","batch3","","3405.9000000003725","stim/yes_58_dia_w1_w.png","j","pattern_response","false","f","pattern_76","3405.9000000003725","false","27","","","","","","","","","","","","","","","","","","",""
"","","","","","html-keyboard-response","86","220544","0.0-2.0-5.0-0.29","63c487fa9db90581d57dc017","C3","batch3","","null","<p class=block-text>Trial 30 out of 78</p>","null","pattern_show_trial_num","","","","","","","","","","","","","","","","","","","","","","","","",""
"","","","","","image-keyboard-response","87","221559","0.0-2.0-5.0-1.29","63c487fa9db90581d57dc017","C3","batch3","","1011","stim/yes_15_dia_b1u_b.png","f","pattern_response","true","f","pattern_44","1011","true","28","","","","","","","","","","","","","","","","","","",""
"","","","","","html-keyboard-response","88","222875","0.0-2.0-5.0-0.30","63c487fa9db90581d57dc017","C3","batch3","","null","<p class=block-text>Trial 31 out of 78</p>","null","pattern_show_trial_num","","","","","","","","","","","","","","","","","","","","","","","","",""
"","","","","","image-keyboard-response","89","226156","0.0-2.0-5.0-1.30","63c487fa9db90581d57dc017","C3","batch3","","3276.60000000149","stim/yes_51_dia_b1.png","f","pattern_response","true","f","pattern_72","3276.60000000149","true","29","","","","","","","","","","","","","","","","","","",""
"","","","","","html-keyboard-response","90","227483","0.0-2.0-5.0-0.31","63c487fa9db90581d57dc017","C3","batch3","","null","<p class=block-text>Trial 32 out of 78</p>","null","pattern_show_trial_num","","","","","","","","","","","","","","","","","","","","","","","","",""
"","","","","","image-keyboard-response","91","228337","0.0-2.0-5.0-1.31","63c487fa9db90581d57dc017","C3","batch3","","850.3999999985099","stim/yes_12_hor_w1_w.png","f","pattern_response","true","f","pattern_42","850.3999999985099","true","30","","","","","","","","","","","","","","","","","","",""
"","","","","","html-keyboard-response","92","229659","0.0-2.0-5.0-0.32","63c487fa9db90581d57dc017","C3","batch3","","null","<p class=block-text>Trial 33 out of 78</p>","null","pattern_show_trial_num","","","","","","","","","","","","","","","","","","","","","","","","",""
"","","","","","image-keyboard-response","93","233100","0.0-2.0-5.0-1.32","63c487fa9db90581d57dc017","C3","batch3","","3436.9000000003725","stim/no_53_1_b.png","j","pattern_response","true","j","pattern_33","3436.9000000003725","true","31","","","","","","","","","","","","","","","","","","",""
"","","","","","html-keyboard-response","94","234425","0.0-2.0-5.0-0.33","63c487fa9db90581d57dc017","C3","batch3","","null","<p class=block-text>Trial 34 out of 78</p>","null","pattern_show_trial_num","","","","","","","","","","","","","","","","","","","","","","","","",""
"","","","","","image-keyboard-response","95","235636","0.0-2.0-5.0-1.33","63c487fa9db90581d57dc017","C3","batch3","","1203.699999999255","stim/yes_29_hor_b1_b.png","f","pattern_response","true","f","pattern_52","1203.699999999255","true","32","","","","","","","","","","","","","","","","","","",""
"","","","","","html-keyboard-response","96","236964","0.0-2.0-5.0-0.34","63c487fa9db90581d57dc017","C3","batch3","","null","<p class=block-text>Trial 35 out of 78</p>","null","pattern_show_trial_num","","","","","","","","","","","","","","","","","","","","","","","","",""
"","","","","","image-keyboard-response","97","243531","0.0-2.0-5.0-1.34","63c487fa9db90581d57dc017","C3","batch3","","6561","stim/yes_53_ver_b1_b.png","f","pattern_response","true","f","pattern_74","6561","true","33","","","","","","","","","","","","","","","","","","",""
"","","","","","html-keyboard-response","98","244841","0.0-2.0-5.0-0.35","63c487fa9db90581d57dc017","C3","batch3","","null","<p class=block-text>Trial 36 out of 78</p>","null","pattern_show_trial_num","","","","","","","","","","","","","","","","","","","","","","","","",""
"","","","","","image-keyboard-response","99","249029","0.0-2.0-5.0-1.35","63c487fa9db90581d57dc017","C3","batch3","","4182.5","stim/no_43_2_b.png","j","pattern_response","true","j","pattern_23","4182.5","true","34","","","","","","","","","","","","","","","","","","",""
"","","","","","html-keyboard-response","100","250343","0.0-2.0-5.0-0.36","63c487fa9db90581d57dc017","C3","batch3","","null","<p class=block-text>Trial 37 out of 78</p>","null","pattern_show_trial_num","","","","","","","","","","","","","","","","","","","","","","","","",""
"","","","","","image-keyboard-response","101","251298","0.0-2.0-5.0-1.36","63c487fa9db90581d57dc017","C3","batch3","","951.2999999988824","stim/yes_17_ver_b1_b.png","j","pattern_response","false","f","pattern_46","951.2999999988824","false","34","","","","","","","","","","","","","","","","","","",""
"","","","","","html-keyboard-response","102","252605","0.0-2.0-5.0-0.37","63c487fa9db90581d57dc017","C3","batch3","","null","<p class=block-text>Trial 38 out of 78</p>","null","pattern_show_trial_num","","","","","","","","","","","","","","","","","","","","","","","","",""
"","","","","","image-keyboard-response","103","258684","0.0-2.0-5.0-1.37","63c487fa9db90581d57dc017","C3","batch3","","6073.9000000003725","stim/yes_63_dia_b1.png","j","pattern_response","false","f","pattern_78","6073.9000000003725","false","34","","","","","","","","","","","","","","","","","","",""
"","","","","","html-keyboard-response","104","259996","0.0-2.0-5.0-0.38","63c487fa9db90581d57dc017","C3","batch3","","null","<p class=block-text>Trial 39 out of 78</p>","null","pattern_show_trial_num","","","","","","","","","","","","","","","","","","","","","","","","",""
"","","","","","image-keyboard-response","105","261323","0.0-2.0-5.0-1.38","63c487fa9db90581d57dc017","C3","batch3","","1321.8999999985099","stim/yes_33_dia_w1_w.png","f","pattern_response","true","f","pattern_56","1321.8999999985099","true","35","","","","","","","","","","","","","","","","","","",""
"","","","","","image-keyboard-response","106","264234","0.0-2.0-6.0","63c487fa9db90581d57dc017","C3","batch3","","2394.2000000011176","stim/empty_board.png","j","attention_check","true","j","","","","","500","[""f"",""j""]","","","","","","","","","","","","","","","","",""
"","","","","","html-keyboard-response","107","265038","0.0-2.0-7.0-0.0","63c487fa9db90581d57dc017","C3","batch3","","null","<p class=block-text>Trial 40 out of 78</p>","null","pattern_show_trial_num","","","","","","","","","","","","","","","","","","","","","","","","",""
"","","","","","image-keyboard-response","108","270065","0.0-2.0-7.0-1.0","63c487fa9db90581d57dc017","C3","batch3","","5021.89999999851","stim/no_55_1_w.png","j","pattern_response","true","j","pattern_34","5021.89999999851","true","36","","","","","","","","","","","","","","","","","","",""
"","","","","","html-keyboard-response","109","271393","0.0-2.0-7.0-0.1","63c487fa9db90581d57dc017","C3","batch3","","null","<p class=block-text>Trial 41 out of 78</p>","null","pattern_show_trial_num","","","","","","","","","","","","","","","","","","","","","","","","",""
"","","","","","image-keyboard-response","110","275074","0.0-2.0-7.0-1.1","63c487fa9db90581d57dc017","C3","batch3","","3675.699999999255","stim/no_17_1_w.png","j","pattern_response","true","j","pattern_04","3675.699999999255","true","37","","","","","","","","","","","","","","","","","","",""
"","","","","","html-keyboard-response","111","276383","0.0-2.0-7.0-0.2","63c487fa9db90581d57dc017","C3","batch3","","null","<p class=block-text>Trial 42 out of 78</p>","null","pattern_show_trial_num","","","","","","","","","","","","","","","","","","","","","","","","",""
"","","","","","image-keyboard-response","112","279799","0.0-2.0-7.0-1.2","63c487fa9db90581d57dc017","C3","batch3","","3410.699999999255","stim/no_34_1_b.png","j","pattern_response","true","j","pattern_16","3410.699999999255","true","38","","","","","","","","","","","","","","","","","","",""
"","","","","","html-keyboard-response","113","281111","0.0-2.0-7.0-0.3","63c487fa9db90581d57dc017","C3","batch3","","null","<p class=block-text>Trial 43 out of 78</p>","null","pattern_show_trial_num","","","","","","","","","","","","","","","","","","","","","","","","",""
"","","","","","image-keyboard-response","114","284835","0.0-2.0-7.0-1.3","63c487fa9db90581d57dc017","C3","batch3","","3719.4000000003725","stim/no_46_1_b.png","j","pattern_response","true","j","pattern_26","3719.4000000003725","true","39","","","","","","","","","","","","","","","","","","",""
"","","","","","html-keyboard-response","115","286150","0.0-2.0-7.0-0.4","63c487fa9db90581d57dc017","C3","batch3","","null","<p class=block-text>Trial 44 out of 78</p>","null","pattern_show_trial_num","","","","","","","","","","","","","","","","","","","","","","","","",""
"","","","","","image-keyboard-response","116","289239","0.0-2.0-7.0-1.4","63c487fa9db90581d57dc017","C3","batch3","","3084.2000000011176","stim/no_29_1_b.png","j","pattern_response","true","j","pattern_12","3084.2000000011176","true","40","","","","","","","","","","","","","","","","","","",""
"","","","","","html-keyboard-response","117","290554","0.0-2.0-7.0-0.5","63c487fa9db90581d57dc017","C3","batch3","","null","<p class=block-text>Trial 45 out of 78</p>","null","pattern_show_trial_num","","","","","","","","","","","","","","","","","","","","","","","","",""
"","","","","","image-keyboard-response","118","292442","0.0-2.0-7.0-1.5","63c487fa9db90581d57dc017","C3","batch3","","1884.0999999996275","stim/yes_40_dia_b1_b.png","j","pattern_response","false","f","pattern_63","1884.0999999996275","false","40","","","","","","","","","","","","","","","","","","",""
"","","","","","html-keyboard-response","119","293752","0.0-2.0-7.0-0.6","63c487fa9db90581d57dc017","C3","batch3","","null","<p class=block-text>Trial 46 out of 78</p>","null","pattern_show_trial_num","","","","","","","","","","","","","","","","","","","","","","","","",""
"","","","","","image-keyboard-response","120","295121","0.0-2.0-7.0-1.6","63c487fa9db90581d57dc017","C3","batch3","","1364.5","stim/yes_28_ver_b1.png","f","pattern_response","true","f","pattern_51","1364.5","true","41","","","","","","","","","","","","","","","","","","",""
"","","","","","html-keyboard-response","121","296443","0.0-2.0-7.0-0.7","63c487fa9db90581d57dc017","C3","batch3","","null","<p class=block-text>Trial 47 out of 78</p>","null","pattern_show_trial_num","","","","","","","","","","","","","","","","","","","","","","","","",""
"","","","","","image-keyboard-response","122","298215","0.0-2.0-7.0-1.7","63c487fa9db90581d57dc017","C3","batch3","","1769.9000000003725","stim/yes_45_hor_b2_b.png","f","pattern_response","true","f","pattern_67","1769.9000000003725","true","42","","","","","","","","","","","","","","","","","","",""
"","","","","","html-keyboard-response","123","299533","0.0-2.0-7.0-0.8","63c487fa9db90581d57dc017","C3","batch3","","null","<p class=block-text>Trial 48 out of 78</p>","null","pattern_show_trial_num","","","","","","","","","","","","","","","","","","","","","","","","",""
"","","","","","image-keyboard-response","124","300559","0.0-2.0-7.0-1.8","63c487fa9db90581d57dc017","C3","batch3","","1020.7000000011176","stim/no_36_2_w.png","f","pattern_response","false","j","pattern_18","1020.7000000011176","false","42","","","","","","","","","","","","","","","","","","",""
"","","","","","html-keyboard-response","125","301874","0.0-2.0-7.0-0.9","63c487fa9db90581d57dc017","C3","batch3","","null","<p class=block-text>Trial 49 out of 78</p>","null","pattern_show_trial_num","","","","","","","","","","","","","","","","","","","","","","","","",""
"","","","","","image-keyboard-response","126","303056","0.0-2.0-7.0-1.9","63c487fa9db90581d57dc017","C3","batch3","","1178.0999999996275","stim/yes_14_hor_b1_w.png","f","pattern_response","true","f","pattern_43","1178.0999999996275","true","43","","","","","","","","","","","","","","","","","","",""
"","","","","","html-keyboard-response","127","304379","0.0-2.0-7.0-0.10","63c487fa9db90581d57dc017","C3","batch3","","null","<p class=block-text>Trial 50 out of 78</p>","null","pattern_show_trial_num","","","","","","","","","","","","","","","","","","","","","","","","",""
"","","","","","image-keyboard-response","128","305821","0.0-2.0-7.0-1.10","63c487fa9db90581d57dc017","C3","batch3","","1439.5999999996275","stim/yes_52_ver_w1.png","f","pattern_response","true","f","pattern_73","1439.5999999996275","true","44","","","","","","","","","","","","","","","","","","",""
"","","","","","html-keyboard-response","129","307150","0.0-2.0-7.0-0.11","63c487fa9db90581d57dc017","C3","batch3","","null","<p class=block-text>Trial 51 out of 78</p>","null","pattern_show_trial_num","","","","","","","","","","","","","","","","","","","","","","","","",""
"","","","","","image-keyboard-response","130","308207","0.0-2.0-7.0-1.11","63c487fa9db90581d57dc017","C3","batch3","","1052.6000000014901","stim/yes_43_ver_w1_w.png","f","pattern_response","true","f","pattern_65","1052.6000000014901","true","45","","","","","","","","","","","","","","","","","","",""
"","","","","","html-keyboard-response","131","309526","0.0-2.0-7.0-0.12","63c487fa9db90581d57dc017","C3","batch3","","null","<p class=block-text>Trial 52 out of 78</p>","null","pattern_show_trial_num","","","","","","","","","","","","","","","","","","","","","","","","",""
"","","","","","image-keyboard-response","132","311464","0.0-2.0-7.0-1.12","63c487fa9db90581d57dc017","C3","batch3","","1935.5999999996275","stim/yes_38_hor_b1_b.png","f","pattern_response","true","f","pattern_61","1935.5999999996275","true","46","","","","","","","","","","","","","","","","","","",""
"","","","","","html-keyboard-response","133","312788","0.0-2.0-7.0-0.13","63c487fa9db90581d57dc017","C3","batch3","","null","<p class=block-text>Trial 53 out of 78</p>","null","pattern_show_trial_num","","","","","","","","","","","","","","","","","","","","","","","","",""
"","","","","","image-keyboard-response","134","316993","0.0-2.0-7.0-1.13","63c487fa9db90581d57dc017","C3","batch3","","4201.4000000003725","stim/yes_50_dia_w1.png","j","pattern_response","false","f","pattern_71","4201.4000000003725","false","46","","","","","","","","","","","","","","","","","","",""
"","","","","","html-keyboard-response","135","318322","0.0-2.0-7.0-0.14","63c487fa9db90581d57dc017","C3","batch3","","null","<p class=block-text>Trial 54 out of 78</p>","null","pattern_show_trial_num","","","","","","","","","","","","","","","","","","","","","","","","",""
"","","","","","image-keyboard-response","136","319888","0.0-2.0-7.0-1.14","63c487fa9db90581d57dc017","C3","batch3","","1559.300000000745","stim/no_32_1_w.png","j","pattern_response","true","j","pattern_14","1559.300000000745","true","47","","","","","","","","","","","","","","","","","","",""
"","","","","","html-keyboard-response","137","321205","0.0-2.0-7.0-0.15","63c487fa9db90581d57dc017","C3","batch3","","null","<p class=block-text>Trial 55 out of 78</p>","null","pattern_show_trial_num","","","","","","","","","","","","","","","","","","","","","","","","",""
"","","","","","image-keyboard-response","138","322398","0.0-2.0-7.0-1.15","63c487fa9db90581d57dc017","C3","batch3","","1190.699999999255","stim/yes_55_hor_w1_w.png","f","pattern_response","true","f","pattern_75","1190.699999999255","true","48","","","","","","","","","","","","","","","","","","",""
"","","","","","html-keyboard-response","139","323712","0.0-2.0-7.0-0.16","63c487fa9db90581d57dc017","C3","batch3","","null","<p class=block-text>Trial 56 out of 78</p>","null","pattern_show_trial_num","","","","","","","","","","","","","","","","","","","","","","","","",""
"","","","","","image-keyboard-response","140","324952","0.0-2.0-7.0-1.16","63c487fa9db90581d57dc017","C3","batch3","","1236.7000000011176","stim/yes_17_dia_w1.png","f","pattern_response","true","f","pattern_45","1236.7000000011176","true","49","","","","","","","","","","","","","","","","","","",""
"","","","","","html-keyboard-response","141","326271","0.0-2.0-7.0-0.17","63c487fa9db90581d57dc017","C3","batch3","","null","<p class=block-text>Trial 57 out of 78</p>","null","pattern_show_trial_num","","","","","","","","","","","","","","","","","","","","","","","","",""
"","","","","","image-keyboard-response","142","327609","0.0-2.0-7.0-1.17","63c487fa9db90581d57dc017","C3","batch3","","1334.699999999255","stim/no_42_1_w.png","j","pattern_response","true","j","pattern_22","1334.699999999255","true","50","","","","","","","","","","","","","","","","","","",""
"","","","","","html-keyboard-response","143","328915","0.0-2.0-7.0-0.18","63c487fa9db90581d57dc017","C3","batch3","","null","<p class=block-text>Trial 58 out of 78</p>","null","pattern_show_trial_num","","","","","","","","","","","","","","","","","","","","","","","","",""
"","","","","","image-keyboard-response","144","331116","0.0-2.0-7.0-1.18","63c487fa9db90581d57dc017","C3","batch3","","2196.9000000003725","stim/yes_60_ver_b1_b.png","f","pattern_response","true","f","pattern_77","2196.9000000003725","true","51","","","","","","","","","","","","","","","","","","",""
"","","","","","html-keyboard-response","145","332442","0.0-2.0-7.0-0.19","63c487fa9db90581d57dc017","C3","batch3","","null","<p class=block-text>Trial 59 out of 78</p>","null","pattern_show_trial_num","","","","","","","","","","","","","","","","","","","","","","","","",""
"","","","","","image-keyboard-response","146","333641","0.0-2.0-7.0-1.19","63c487fa9db90581d57dc017","C3","batch3","","1194.4000000003725","stim/yes_29_ver_w1.png","j","pattern_response","false","f","pattern_53","1194.4000000003725","false","51","","","","","","","","","","","","","","","","","","",""
"","","","","","html-keyboard-response","147","334956","0.0-2.0-7.0-0.20","63c487fa9db90581d57dc017","C3","batch3","","null","<p class=block-text>Trial 60 out of 78</p>","null","pattern_show_trial_num","","","","","","","","","","","","","","","","","","","","","","","","",""
"","","","","","image-keyboard-response","148","341463","0.0-2.0-7.0-1.20","63c487fa9db90581d57dc017","C3","batch3","","6500.300000000745","stim/no_70_2.png","j","pattern_response","true","j","pattern_40","6500.300000000745","true","52","","","","","","","","","","","","","","","","","","",""
"","","","","","html-keyboard-response","149","342791","0.0-2.0-7.0-0.21","63c487fa9db90581d57dc017","C3","batch3","","null","<p class=block-text>Trial 61 out of 78</p>","null","pattern_show_trial_num","","","","","","","","","","","","","","","","","","","","","","","","",""
"","","","","","image-keyboard-response","150","345350","0.0-2.0-7.0-1.21","63c487fa9db90581d57dc017","C3","batch3","","2553.4000000003725","stim/yes_37_dia_w1.png","j","pattern_response","false","f","pattern_59","2553.4000000003725","false","52","","","","","","","","","","","","","","","","","","",""
"","","","","","html-keyboard-response","151","346662","0.0-2.0-7.0-0.22","63c487fa9db90581d57dc017","C3","batch3","","null","<p class=block-text>Trial 62 out of 78</p>","null","pattern_show_trial_num","","","","","","","","","","","","","","","","","","","","","","","","",""
"","","","","","image-keyboard-response","152","348255","0.0-2.0-7.0-1.22","63c487fa9db90581d57dc017","C3","batch3","","1589.2000000011176","stim/yes_67_hor_b1.png","f","pattern_response","true","f","pattern_79","1589.2000000011176","true","53","","","","","","","","","","","","","","","","","","",""
"","","","","","html-keyboard-response","153","349566","0.0-2.0-7.0-0.23","63c487fa9db90581d57dc017","C3","batch3","","null","<p class=block-text>Trial 63 out of 78</p>","null","pattern_show_trial_num","","","","","","","","","","","","","","","","","","","","","","","","",""
"","","","","","image-keyboard-response","154","352049","0.0-2.0-7.0-1.23","63c487fa9db90581d57dc017","C3","batch3","","2479.699999999255","stim/no_52_1.png","j","pattern_response","true","j","pattern_32","2479.699999999255","true","54","","","","","","","","","","","","","","","","","","",""
"","","","","","html-keyboard-response","155","353363","0.0-2.0-7.0-0.24","63c487fa9db90581d57dc017","C3","batch3","","null","<p class=block-text>Trial 64 out of 78</p>","null","pattern_show_trial_num","","","","","","","","","","","","","","","","","","","","","","","","",""
"","","","","","image-keyboard-response","156","354688","0.0-2.0-7.0-1.24","63c487fa9db90581d57dc017","C3","batch3","","1319.2000000011176","stim/yes_35_dia_b1.png","j","pattern_response","false","f","pattern_57","1319.2000000011176","false","54","","","","","","","","","","","","","","","","","","",""
"","","","","","html-keyboard-response","157","356013","0.0-2.0-7.0-0.25","63c487fa9db90581d57dc017","C3","batch3","","null","<p class=block-text>Trial 65 out of 78</p>","null","pattern_show_trial_num","","","","","","","","","","","","","","","","","","","","","","","","",""
"","","","","","image-keyboard-response","158","357175","0.0-2.0-7.0-1.25","63c487fa9db90581d57dc017","C3","batch3","","1158.4000000003725","stim/no_23_1.png","j","pattern_response","true","j","pattern_08","1158.4000000003725","true","55","","","","","","","","","","","","","","","","","","",""
"","","","","","html-keyboard-response","159","358485","0.0-2.0-7.0-0.26","63c487fa9db90581d57dc017","C3","batch3","","null","<p class=block-text>Trial 66 out of 78</p>","null","pattern_show_trial_num","","","","","","","","","","","","","","","","","","","","","","","","",""
"","","","","","image-keyboard-response","160","361033","0.0-2.0-7.0-1.26","63c487fa9db90581d57dc017","C3","batch3","","2546.10000000149","stim/no_38_1_b.png","j","pattern_response","true","j","pattern_20","2546.10000000149","true","56","","","","","","","","","","","","","","","","","","",""
"","","","","","html-keyboard-response","161","362355","0.0-2.0-7.0-0.27","63c487fa9db90581d57dc017","C3","batch3","","null","<p class=block-text>Trial 67 out of 78</p>","null","pattern_show_trial_num","","","","","","","","","","","","","","","","","","","","","","","","",""
"","","","","","image-keyboard-response","162","364899","0.0-2.0-7.0-1.27","63c487fa9db90581d57dc017","C3","batch3","","2541.2000000011176","stim/no_48_1_w.png","j","pattern_response","true","j","pattern_28","2541.2000000011176","true","57","","","","","","","","","","","","","","","","","","",""
"","","","","","html-keyboard-response","163","366220","0.0-2.0-7.0-0.28","63c487fa9db90581d57dc017","C3","batch3","","null","<p class=block-text>Trial 68 out of 78</p>","null","pattern_show_trial_num","","","","","","","","","","","","","","","","","","","","","","","","",""
"","","","","","image-keyboard-response","164","367889","0.0-2.0-7.0-1.28","63c487fa9db90581d57dc017","C3","batch3","","1666.5","stim/yes_48_dia_w1_w.png","f","pattern_response","true","f","pattern_69","1666.5","true","58","","","","","","","","","","","","","","","","","","",""
"","","","","","html-keyboard-response","165","369199","0.0-2.0-7.0-0.29","63c487fa9db90581d57dc017","C3","batch3","","null","<p class=block-text>Trial 69 out of 78</p>","null","pattern_show_trial_num","","","","","","","","","","","","","","","","","","","","","","","","",""
"","","","","","image-keyboard-response","166","373490","0.0-2.0-7.0-1.29","63c487fa9db90581d57dc017","C3","batch3","","4286.39999999851","stim/no_62_1_w.png","j","pattern_response","true","j","pattern_36","4286.39999999851","true","59","","","","","","","","","","","","","","","","","","",""
"","","","","","html-keyboard-response","167","374799","0.0-2.0-7.0-0.30","63c487fa9db90581d57dc017","C3","batch3","","null","<p class=block-text>Trial 70 out of 78</p>","null","pattern_show_trial_num","","","","","","","","","","","","","","","","","","","","","","","","",""
"","","","","","image-keyboard-response","168","376075","0.0-2.0-7.0-1.30","63c487fa9db90581d57dc017","C3","batch3","","1271.5","stim/yes_22_ver_w1.png","f","pattern_response","true","f","pattern_47","1271.5","true","60","","","","","","","","","","","","","","","","","","",""
"","","","","","html-keyboard-response","169","377393","0.0-2.0-7.0-0.31","63c487fa9db90581d57dc017","C3","batch3","","null","<p class=block-text>Trial 71 out of 78</p>","null","pattern_show_trial_num","","","","","","","","","","","","","","","","","","","","","","","","",""
"","","","","","image-keyboard-response","170","380808","0.0-2.0-7.0-1.31","63c487fa9db90581d57dc017","C3","batch3","","3412","stim/no_65_1_b.png","j","pattern_response","true","j","pattern_38","3412","true","61","","","","","","","","","","","","","","","","","","",""
"","","","","","html-keyboard-response","171","382132","0.0-2.0-7.0-0.32","63c487fa9db90581d57dc017","C3","batch3","","null","<p class=block-text>Trial 72 out of 78</p>","null","pattern_show_trial_num","","","","","","","","","","","","","","","","","","","","","","","","",""
"","","","","","image-keyboard-response","172","385786","0.0-2.0-7.0-1.32","63c487fa9db90581d57dc017","C3","batch3","","3649.7999999988824","stim/no_50_1.png","j","pattern_response","true","j","pattern_30","3649.7999999988824","true","62","","","","","","","","","","","","","","","","","","",""
"","","","","","html-keyboard-response","173","387091","0.0-2.0-7.0-0.33","63c487fa9db90581d57dc017","C3","batch3","","null","<p class=block-text>Trial 73 out of 78</p>","null","pattern_show_trial_num","","","","","","","","","","","","","","","","","","","","","","","","",""
"","","","","","image-keyboard-response","174","388196","0.0-2.0-7.0-1.33","63c487fa9db90581d57dc017","C3","batch3","","1099.2000000011176","stim/yes_25_hor_b1_b.png","f","pattern_response","true","f","pattern_49","1099.2000000011176","true","63","","","","","","","","","","","","","","","","","","",""
"","","","","","html-keyboard-response","175","389515","0.0-2.0-7.0-0.34","63c487fa9db90581d57dc017","C3","batch3","","null","<p class=block-text>Trial 74 out of 78</p>","null","pattern_show_trial_num","","","","","","","","","","","","","","","","","","","","","","","","",""
"","","","","","image-keyboard-response","176","391136","0.0-2.0-7.0-1.34","63c487fa9db90581d57dc017","C3","batch3","","1616.699999999255","stim/no_20_1_w.png","j","pattern_response","true","j","pattern_06","1616.699999999255","true","64","","","","","","","","","","","","","","","","","","",""
"","","","","","html-keyboard-response","177","392457","0.0-2.0-7.0-0.35","63c487fa9db90581d57dc017","C3","batch3","","null","<p class=block-text>Trial 75 out of 78</p>","null","pattern_show_trial_num","","","","","","","","","","","","","","","","","","","","","","","","",""
"","","","","","image-keyboard-response","178","393922","0.0-2.0-7.0-1.35","63c487fa9db90581d57dc017","C3","batch3","","1460.800000000745","stim/yes_31_hor_b1.png","f","pattern_response","true","f","pattern_55","1460.800000000745","true","65","","","","","","","","","","","","","","","","","","",""
"","","","","","html-keyboard-response","179","395246","0.0-2.0-7.0-0.36","63c487fa9db90581d57dc017","C3","batch3","","null","<p class=block-text>Trial 76 out of 78</p>","null","pattern_show_trial_num","","","","","","","","","","","","","","","","","","","","","","","","",""
"","","","","","image-keyboard-response","180","397791","0.0-2.0-7.0-1.36","63c487fa9db90581d57dc017","C3","batch3","","2541.5999999996275","stim/no_44_1.png","j","pattern_response","true","j","pattern_24","2541.5999999996275","true","66","","","","","","","","","","","","","","","","","","",""
"","","","","","html-keyboard-response","181","399099","0.0-2.0-7.0-0.37","63c487fa9db90581d57dc017","C3","batch3","","null","<p class=block-text>Trial 77 out of 78</p>","null","pattern_show_trial_num","","","","","","","","","","","","","","","","","","","","","","","","",""
"","","","","","image-keyboard-response","182","400347","0.0-2.0-7.0-1.37","63c487fa9db90581d57dc017","C3","batch3","","1245.199999999255","stim/no_13_2_b.png","j","pattern_response","true","j","pattern_02","1245.199999999255","true","67","","","","","","","","","","","","","","","","","","",""
"","","","","","html-keyboard-response","183","401655","0.0-2.0-7.0-0.38","63c487fa9db90581d57dc017","C3","batch3","","null","<p class=block-text>Trial 78 out of 78</p>","null","pattern_show_trial_num","","","","","","","","","","","","","","","","","","","","","","","","",""
"","","","","","image-keyboard-response","184","402857","0.0-2.0-7.0-1.38","63c487fa9db90581d57dc017","C3","batch3","","1196.4000000003725","stim/no_26_1_w.png","j","pattern_response","true","j","pattern_10","1196.4000000003725","true","68","","","","","","","","","","","","","","","","","","",""
"","","","","","html-button-response","185","407935","0.0-2.0-8.0","63c487fa9db90581d57dc017","C3","batch3","","4571.5","<p class = block-text>This concludes the 4-in-a-row detection game.Thank you for your responses!<br>
            You responded correctly on 87% of the trials.<br>
            When you are ready, press ""Continue"" button to continue </p>","0","","","","","","","","","","","","","","","","","","","","","","","","","",""
"true","","","","","fullscreen","186","410872","0.0-3.0-0.0","63c487fa9db90581d57dc017","C3","batch3","","","","","","","","","","","","","","","","","","","","","","","","","","","","","",""
"","","","","","instructions","187","496271","0.0-3.0-1.0-0.0-0.0","63c487fa9db90581d57dc017","C3","batch3","[{""page_index"":0,""viewing_time"":3877.800000000745},{""page_index"":1,""viewing_time"":7079.5},{""page_index"":2,""viewing_time"":17719.400000000373},{""page_index"":3,""viewing_time"":30775.5},{""page_index"":4,""viewing_time"":10633.099999999627},{""page_index"":5,""viewing_time"":13951.099999999627},{""page_index"":6,""viewing_time"":1360.0999999996275}]","85397","","","tol-instructions","","","","","","","","","","","","","","","","","","","","","","","","",""
"","","","","","html-button-response","188","497319","0.0-3.0-1.0-1.0-0.0","63c487fa9db90581d57dc017","C3","batch3","","1046.0999999996275","<p class=block-text> Let's answer a few questions <br>","0","tol_enter_quiz","","","","","","","","","","","","","","","","","","","","","","","","",""
"","","","","","html-button-response","189","502022","0.0-3.0-1.0-1.0-1.0","63c487fa9db90581d57dc017","C3","batch3","","4702.0999999996275","<p class = block-text>True or False: You can only move the ball on top of a peg. <br></p>","0","tol_quiz","true","","","","","","","","","","","","","","","","","","","","","","","",""
"","","","","","html-button-response","190","502943","0.0-3.0-1.0-1.0-2.0","63c487fa9db90581d57dc017","C3","batch3","","918.6999999992549","<p class = block-text>Correct! You can only move the ball on top of a peg.</p>","0","tol_quiz_feedback","","","","","","","","","","","","","","","","","","","","","","","","",""
"","","","","","html-button-response","191","507374","0.0-3.0-1.0-1.0-3.0","63c487fa9db90581d57dc017","C3","batch3","","4430.5999999996275","<p class = block-text>True or False: You should try to match your board with the target board with fewest moves possible. <br></p>","0","tol_quiz","true","","","","","","","","","","","","","","","","","","","","","","","",""
"","","","","","html-button-response","192","508143","0.0-3.0-1.0-1.0-4.0","63c487fa9db90581d57dc017","C3","batch3","","766.4000000003725","<p class = block-text>Correct! </p>","0","tol_quiz_feedback","","","","","","","","","","","","","","","","","","","","","","","","",""
"","","","","","html-button-response","193","509622","0.0-3.0-2.0","63c487fa9db90581d57dc017","C3","batch3","","1477.2000000011176","<p class=block-text> Now that you've understood the game, let's practice a few easier examples before we start!<br> <br>","0","","","","","","","","","","","","","","","","","","","","","","","","","",""
"","","","","","single-stim-button","194","517075","0.0-3.0-3.0-0.0","63c487fa9db90581d57dc017","C3","batch3","","7450","","","tol_practice","","","","","","","","","tol_peg_2","7450","7450","0","[[1,2,0],[0,0],[0]]","1","[[1,2,0],[0,0],[3]]","practice","7450","","","","","","","",""
"","","","","","single-stim-button","195","518767","0.0-3.0-3.0-1.0","63c487fa9db90581d57dc017","C3","batch3","","1691","","","tol_practice","","","","","","","","","tol_peg_3","1691","1691","0","[[1,2,0],[0,0],[3]]","1","[[1,2,0],[0,0],[3]]","practice","1691","","","","","","","",""
"","","","","","poldrack-single-stim","196","519769","0.0-3.0-4.0","63c487fa9db90581d57dc017","C3","batch3","","-1","","","tol_feedback","true","","","","","","","","","1000","1000","500","","","","","","-1","none","true","","0","","",""
"","","","","","single-stim-button","197","528047","0.0-3.0-5.0-0.0","63c487fa9db90581d57dc017","C3","batch3","","8277","","","tol_practice","","","","","","","","","tol_peg_1","8277","8277","0","[[1,0,0],[3,0],[0]]","2","[[0,0,0],[3,1],[2]]","practice","8277","","","","","","","",""
"","","","","","single-stim-button","198","529823","0.0-3.0-5.0-1.0","63c487fa9db90581d57dc017","C3","batch3","","1774","","","tol_practice","","","","","","","","","tol_peg_2","1774","1774","0","[[1,0,0],[3,2],[0]]","2","[[0,0,0],[3,1],[2]]","practice","1774","","","","","","","",""
"","","","","","single-stim-button","199","534647","0.0-3.0-5.1-0.1","63c487fa9db90581d57dc017","C3","batch3","","4823","","","tol_practice","","","","","","","","","tol_peg_1","4823","4823","0","[[0,0,0],[3,2],[0]]","3","[[0,0,0],[3,1],[2]]","practice","4823","","","","","","","",""
"","","","","","single-stim-button","200","538936","0.0-3.0-5.1-1.1","63c487fa9db90581d57dc017","C3","batch3","","4287","","","tol_practice","","","","","","","","","tol_peg_3","4287","4287","0","[[0,0,0],[3,2],[1]]","3","[[0,0,0],[3,1],[2]]","practice","4287","","","","","","","",""
"","","","","","single-stim-button","201","543118","0.0-3.0-5.2-0.2","63c487fa9db90581d57dc017","C3","batch3","","4180","","","tol_practice","","","","","","","","","tol_peg_2","4180","4180","0","[[0,0,0],[3,0],[1]]","4","[[0,0,0],[3,1],[2]]","practice","4180","","","","","","","",""
"","","","","","single-stim-button","202","543838","0.0-3.0-5.2-1.2","63c487fa9db90581d57dc017","C3","batch3","","718","","","tol_practice","","","","","","","","","tol_peg_2","718","718","0","[[0,0,0],[3,2],[1]]","4","[[0,0,0],[3,1],[2]]","practice","718","","","","","","","",""
"","","","","","single-stim-button","203","544758","0.0-3.0-5.3-0.3","63c487fa9db90581d57dc017","C3","batch3","","918","","","tol_practice","","","","","","","","","tol_peg_2","918","918","0","[[0,0,0],[3,0],[1]]","5","[[0,0,0],[3,1],[2]]","practice","918","","","","","","","",""
"","","","","","single-stim-button","204","549767","0.0-3.0-5.3-1.3","63c487fa9db90581d57dc017","C3","batch3","","5008","","","tol_practice","","","","","","","","","tol_peg_1","5008","5008","0","[[2,0,0],[3,0],[1]]","5","[[0,0,0],[3,1],[2]]","practice","5008","","","","","","","",""
"","","","","","single-stim-button","205","550037","0.0-3.0-5.4-0.4","63c487fa9db90581d57dc017","C3","batch3","","269","","","tol_practice","","","","","","","","","tol_peg_1","269","269","0","[[0,0,0],[3,0],[1]]","6","[[0,0,0],[3,1],[2]]","practice","269","","","","","","","",""
"","","","","","single-stim-button","206","550958","0.0-3.0-5.4-1.4","63c487fa9db90581d57dc017","C3","batch3","","919","","","tol_practice","","","","","","","","","tol_peg_1","919","919","0","[[2,0,0],[3,0],[1]]","6","[[0,0,0],[3,1],[2]]","practice","919","","","","","","","",""
"","","","","","single-stim-button","207","551966","0.0-3.0-5.5-0.5","63c487fa9db90581d57dc017","C3","batch3","","1006","","","tol_practice","","","","","","","","","tol_peg_2","1006","1006","0","[[2,0,0],[0,0],[1]]","7","[[0,0,0],[3,1],[2]]","practice","1006","","","","","","","",""
"","","","","","single-stim-button","208","553958","0.0-3.0-5.5-1.5","63c487fa9db90581d57dc017","C3","batch3","","1991","","","tol_practice","","","","","","","","","tol_peg_1","1991","1991","0","[[2,3,0],[0,0],[1]]","7","[[0,0,0],[3,1],[2]]","practice","1991","","","","","","","",""
"","","","","","single-stim-button","209","555374","0.0-3.0-5.6-0.6","63c487fa9db90581d57dc017","C3","batch3","","1414","","","tol_practice","","","","","","","","","tol_peg_1","1414","1414","0","[[2,0,0],[0,0],[1]]","8","[[0,0,0],[3,1],[2]]","practice","1414","","","","","","","",""
"","","","","","single-stim-button","210","557206","0.0-3.0-5.6-1.6","63c487fa9db90581d57dc017","C3","batch3","","1830","","","tol_practice","","","","","","","","","tol_peg_2","1830","1830","0","[[2,0,0],[3,0],[1]]","8","[[0,0,0],[3,1],[2]]","practice","1830","","","","","","","",""
"","","","","","single-stim-button","211","557926","0.0-3.0-5.7-0.7","63c487fa9db90581d57dc017","C3","batch3","","718","","","tol_practice","","","","","","","","","tol_peg_3","718","718","0","[[2,0,0],[3,0],[0]]","9","[[0,0,0],[3,1],[2]]","practice","718","","","","","","","",""
"","","","","","single-stim-button","212","559942","0.0-3.0-5.7-1.7","63c487fa9db90581d57dc017","C3","batch3","","2014","","","tol_practice","","","","","","","","","tol_peg_2","2014","2014","0","[[2,0,0],[3,1],[0]]","9","[[0,0,0],[3,1],[2]]","practice","2014","","","","","","","",""
"","","","","","single-stim-button","213","560765","0.0-3.0-5.8-0.8","63c487fa9db90581d57dc017","C3","batch3","","822","","","tol_practice","","","","","","","","","tol_peg_1","822","822","0","[[0,0,0],[3,1],[0]]","10","[[0,0,0],[3,1],[2]]","practice","822","","","","","","","",""
"","","","","","single-stim-button","214","561885","0.0-3.0-5.8-1.8","63c487fa9db90581d57dc017","C3","batch3","","1119","","","tol_practice","","","","","","","","","tol_peg_3","1119","1119","0","[[0,0,0],[3,1],[2]]","10","[[0,0,0],[3,1],[2]]","practice","1119","","","","","","","",""
"","","","","","poldrack-single-stim","215","562887","0.0-3.0-6.0","63c487fa9db90581d57dc017","C3","batch3","","-1","","","tol_feedback","true","","","","","","","","","1000","1000","500","","","","","","-1","none","true","","0","","",""
"","","","","","single-stim-button","216","571262","0.0-3.0-7.0-0.0","63c487fa9db90581d57dc017","C3","batch3","","8373","","","tol_practice","","","","","","","","","tol_peg_2","8373","8373","0","[[1,2,0],[0,0],[0]]","11","[[1,0,0],[2,0],[3]]","practice","8373","","","","","","","",""
"","","","","","single-stim-button","217","573197","0.0-3.0-7.0-1.0","63c487fa9db90581d57dc017","C3","batch3","","1935","","","tol_practice","","","","","","","","","tol_peg_3","1935","1935","0","[[1,2,0],[0,0],[3]]","11","[[1,0,0],[2,0],[3]]","practice","1935","","","","","","","",""
"","","","","","single-stim-button","218","575293","0.0-3.0-7.1-0.1","63c487fa9db90581d57dc017","C3","batch3","","2095","","","tol_practice","","","","","","","","","tol_peg_1","2095","2095","0","[[1,0,0],[0,0],[3]]","12","[[1,0,0],[2,0],[3]]","practice","2095","","","","","","","",""
"","","","","","single-stim-button","219","576109","0.0-3.0-7.1-1.1","63c487fa9db90581d57dc017","C3","batch3","","814","","","tol_practice","","","","","","","","","tol_peg_2","814","814","0","[[1,0,0],[2,0],[3]]","12","[[1,0,0],[2,0],[3]]","practice","814","","","","","","","",""
"","","","","","poldrack-single-stim","220","577112","0.0-3.0-8.0","63c487fa9db90581d57dc017","C3","batch3","","-1","","","tol_feedback","true","","","","","","","","","1000","1000","500","","","","","","-1","none","true","","0","","",""
"","","","","","html-button-response","221","580789","0.0-3.0-9.0","63c487fa9db90581d57dc017","C3","batch3","","3675.5999999996275","<div class = centerbox><p class = center-block-text>Great job! You are done with practice trials<br>You are about to start official trials.<br> <br> Problem <strong>1</strong> out of 25 problems</p></div>","0","tol_instruction","","","","","","","","","","","","","","","","","","","","","","","","",""
"","","","","","single-stim-button","222","587269","0.0-3.0-10.0-0.0","63c487fa9db90581d57dc017","C3","batch3","","5475","","","tol_tohand","","","","","","","","","tol_peg_1","5475","5475","0","[[1,0,0],[3,0],[0]]","1","[[1,3,0],[2,0],[0]]","0","0","","","","","","3","",""
"","","","","","single-stim-button","223","588246","0.0-3.0-10.0-1.0","63c487fa9db90581d57dc017","C3","batch3","","975","","","tol_toboard","","","","","","","","","tol_peg_3","975","975","0","[[1,0,0],[3,0],[2]]","1","[[1,3,0],[2,0],[0]]","0","0","","","","","","3","",""
"","","","","","single-stim-button","224","590061","0.0-3.0-10.1-0.1","63c487fa9db90581d57dc017","C3","batch3","","1814","","","tol_tohand","","","","","","","","","tol_peg_2","1814","1814","0","[[1,0,0],[0,0],[2]]","2","[[1,3,0],[2,0],[0]]","0","0","","","","","","3","",""
"","","","","","single-stim-button","225","590949","0.0-3.0-10.1-1.1","63c487fa9db90581d57dc017","C3","batch3","","887","","","tol_toboard","","","","","","","","","tol_peg_1","887","887","0","[[1,3,0],[0,0],[2]]","2","[[1,3,0],[2,0],[0]]","0","0","","","","","","3","",""
"","","","","","single-stim-button","226","591814","0.0-3.0-10.2-0.2","63c487fa9db90581d57dc017","C3","batch3","","863","","","tol_tohand","","","","","","","","","tol_peg_3","863","863","0","[[1,3,0],[0,0],[0]]","3","[[1,3,0],[2,0],[0]]","0","0","","","","","","3","",""
"","","","","","single-stim-button","227","592718","0.0-3.0-10.2-1.2","63c487fa9db90581d57dc017","C3","batch3","","903","","","tol_toboard","","","","","","","","","tol_peg_2","903","903","0","[[1,3,0],[2,0],[0]]","3","[[1,3,0],[2,0],[0]]","0","0","","","","","","3","",""
"","","","","","poldrack-single-stim","228","593733","0.0-3.0-11.0","63c487fa9db90581d57dc017","C3","batch3","","-1","","","tol_feedback","true","","","","","","","","","1000","1000","500","","","","","","-1","none","true","5475","8152","","",""
"","","","","","html-button-response","229","594501","0.0-3.0-12.0","63c487fa9db90581d57dc017","C3","batch3","","766.6999999992549","<div class = centerbox><p class = center-block-text>problem <strong>2</strong> out of 25 problems</p></div>","0","tol_trial_num","","","","","","","","","","","","","","","","","","","","","","","","",""
"","","","","","single-stim-button","230","602022","0.0-3.0-13.0-0.0","63c487fa9db90581d57dc017","C3","batch3","","7519","","","tol_tohand","","","","","","","","","tol_peg_1","7519","7519","0","[[1,0,0],[3,0],[0]]","1","[[2,1,3],[0,0],[0]]","1","0","","","","","","5","",""
"","","","","","single-stim-button","231","605470","0.0-3.0-13.0-1.0","63c487fa9db90581d57dc017","C3","batch3","","3446","","","tol_toboard","","","","","","","","","tol_peg_3","3446","3446","0","[[1,0,0],[3,0],[2]]","1","[[2,1,3],[0,0],[0]]","1","0","","","","","","5","",""
"","","","","","single-stim-button","232","606669","0.0-3.0-13.1-0.1","63c487fa9db90581d57dc017","C3","batch3","","1198","","","tol_tohand","","","","","","","","","tol_peg_1","1198","1198","0","[[0,0,0],[3,0],[2]]","2","[[2,1,3],[0,0],[0]]","1","0","","","","","","5","",""
"","","","","","single-stim-button","233","607925","0.0-3.0-13.1-1.1","63c487fa9db90581d57dc017","C3","batch3","","1255","","","tol_toboard","","","","","","","","","tol_peg_2","1255","1255","0","[[0,0,0],[3,1],[2]]","2","[[2,1,3],[0,0],[0]]","1","0","","","","","","5","",""
"","","","","","single-stim-button","234","608702","0.0-3.0-13.2-0.2","63c487fa9db90581d57dc017","C3","batch3","","775","","","tol_tohand","","","","","","","","","tol_peg_3","775","775","0","[[0,0,0],[3,1],[0]]","3","[[2,1,3],[0,0],[0]]","1","0","","","","","","5","",""
"","","","","","single-stim-button","235","609710","0.0-3.0-13.2-1.2","63c487fa9db90581d57dc017","C3","batch3","","1007","","","tol_toboard","","","","","","","","","tol_peg_1","1007","1007","0","[[2,0,0],[3,1],[0]]","3","[[2,1,3],[0,0],[0]]","1","0","","","","","","5","",""
"","","","","","single-stim-button","236","613757","0.0-3.0-13.3-0.3","63c487fa9db90581d57dc017","C3","batch3","","4046","","","tol_tohand","","","","","","","","","tol_peg_2","4046","4046","0","[[2,0,0],[3,0],[0]]","4","[[2,1,3],[0,0],[0]]","1","0","","","","","","5","",""
"","","","","","single-stim-button","237","614678","0.0-3.0-13.3-1.3","63c487fa9db90581d57dc017","C3","batch3","","919","","","tol_toboard","","","","","","","","","tol_peg_1","919","919","0","[[2,1,0],[3,0],[0]]","4","[[2,1,3],[0,0],[0]]","1","0","","","","","","5","",""
"","","","","","single-stim-button","238","616335","0.0-3.0-13.4-0.4","63c487fa9db90581d57dc017","C3","batch3","","1656","","","tol_tohand","","","","","","","","","tol_peg_2","1656","1656","0","[[2,1,0],[0,0],[0]]","5","[[2,1,3],[0,0],[0]]","1","0","","","","","","5","",""
"","","","","","single-stim-button","239","616534","0.0-3.0-13.4-1.4","63c487fa9db90581d57dc017","C3","batch3","","197","","","tol_toboard","","","","","","","","","tol_peg_2","197","197","0","[[2,1,0],[3,0],[0]]","5","[[2,1,3],[0,0],[0]]","1","0","","","","","","5","",""
"","","","","","single-stim-button","240","617205","0.0-3.0-13.5-0.5","63c487fa9db90581d57dc017","C3","batch3","","670","","","tol_tohand","","","","","","","","","tol_peg_1","670","670","0","[[2,0,0],[3,0],[0]]","6","[[2,1,3],[0,0],[0]]","1","0","","","","","","5","",""
"","","","","","single-stim-button","241","618710","0.0-3.0-13.5-1.5","63c487fa9db90581d57dc017","C3","batch3","","1504","","","tol_toboard","","","","","","","","","tol_peg_2","1504","1504","0","[[2,0,0],[3,1],[0]]","6","[[2,1,3],[0,0],[0]]","1","0","","","","","","5","",""
"","","","","","single-stim-button","242","620254","0.0-3.0-13.6-0.6","63c487fa9db90581d57dc017","C3","batch3","","1544","","","tol_tohand","","","","","","","","","tol_peg_2","1544","1544","0","[[2,0,0],[3,0],[0]]","7","[[2,1,3],[0,0],[0]]","1","0","","","","","","5","",""
"","","","","","single-stim-button","243","620495","0.0-3.0-13.6-1.6","63c487fa9db90581d57dc017","C3","batch3","","240","","","tol_toboard","","","","","","","","","tol_peg_2","240","240","0","[[2,0,0],[3,1],[0]]","7","[[2,1,3],[0,0],[0]]","1","0","","","","","","5","",""
"","","","","","single-stim-button","244","620998","0.0-3.0-13.7-0.7","63c487fa9db90581d57dc017","C3","batch3","","501","","","tol_tohand","","","","","","","","","tol_peg_2","501","501","0","[[2,0,0],[3,0],[0]]","8","[[2,1,3],[0,0],[0]]","1","0","","","","","","5","",""
"","","","","","single-stim-button","245","621765","0.0-3.0-13.7-1.7","63c487fa9db90581d57dc017","C3","batch3","","766","","","tol_toboard","","","","","","","","","tol_peg_1","766","766","0","[[2,1,0],[3,0],[0]]","8","[[2,1,3],[0,0],[0]]","1","0","","","","","","5","",""
"","","","","","single-stim-button","246","622670","0.0-3.0-13.8-0.8","63c487fa9db90581d57dc017","C3","batch3","","904","","","tol_tohand","","","","","","","","","tol_peg_2","904","904","0","[[2,1,0],[0,0],[0]]","9","[[2,1,3],[0,0],[0]]","1","0","","","","","","5","",""
"","","","","","single-stim-button","247","623606","0.0-3.0-13.8-1.8","63c487fa9db90581d57dc017","C3","batch3","","935","","","tol_toboard","","","","","","","","","tol_peg_1","935","935","0","[[2,1,3],[0,0],[0]]","9","[[2,1,3],[0,0],[0]]","1","0","","","","","","5","",""
"","","","","","poldrack-single-stim","248","624620","0.0-3.0-14.0","63c487fa9db90581d57dc017","C3","batch3","","-1","","","tol_feedback","true","","","","","","","","","1000","1000","500","","","","","","-1","none","true","7519","18813","","",""
"","","","","","html-button-response","249","625445","0.0-3.0-15.0","63c487fa9db90581d57dc017","C3","batch3","","823.9000000003725","<div class = centerbox><p class = center-block-text>problem <strong>3</strong> out of 25 problems</p></div>","0","tol_trial_num","","","","","","","","","","","","","","","","","","","","","","","","",""
"","","","","","single-stim-button","250","633165","0.0-3.0-16.0-0.0","63c487fa9db90581d57dc017","C3","batch3","","7719","","","tol_tohand","","","","","","","","","tol_peg_1","7719","7719","0","[[2,0,0],[0,0],[1]]","1","[[1,2,0],[3,0],[0]]","2","0","","","","","","4","",""
"","","","","","single-stim-button","251","634341","0.0-3.0-16.0-1.0","63c487fa9db90581d57dc017","C3","batch3","","1175","","","tol_toboard","","","","","","","","","tol_peg_2","1175","1175","0","[[2,0,0],[3,0],[1]]","1","[[1,2,0],[3,0],[0]]","2","0","","","","","","4","",""
"","","","","","single-stim-button","252","636781","0.0-3.0-16.1-0.1","63c487fa9db90581d57dc017","C3","batch3","","2439","","","tol_tohand","","","","","","","","","tol_peg_1","2439","2439","0","[[0,0,0],[3,0],[1]]","2","[[1,2,0],[3,0],[0]]","2","0","","","","","","4","",""
"","","","","","single-stim-button","253","637669","0.0-3.0-16.1-1.1","63c487fa9db90581d57dc017","C3","batch3","","886","","","tol_toboard","","","","","","","","","tol_peg_2","886","886","0","[[0,0,0],[3,2],[1]]","2","[[1,2,0],[3,0],[0]]","2","0","","","","","","4","",""
"","","","","","single-stim-button","254","639670","0.0-3.0-16.2-0.2","63c487fa9db90581d57dc017","C3","batch3","","2000","","","tol_tohand","","","","","","","","","tol_peg_3","2000","2000","0","[[0,0,0],[3,2],[0]]","3","[[1,2,0],[3,0],[0]]","2","0","","","","","","4","",""
"","","","","","single-stim-button","255","640414","0.0-3.0-16.2-1.2","63c487fa9db90581d57dc017","C3","batch3","","743","","","tol_toboard","","","","","","","","","tol_peg_1","743","743","0","[[1,0,0],[3,2],[0]]","3","[[1,2,0],[3,0],[0]]","2","0","","","","","","4","",""
"","","","","","single-stim-button","256","641933","0.0-3.0-16.3-0.3","63c487fa9db90581d57dc017","C3","batch3","","1519","","","tol_tohand","","","","","","","","","tol_peg_2","1519","1519","0","[[1,0,0],[3,0],[0]]","4","[[1,2,0],[3,0],[0]]","2","0","","","","","","4","",""
"","","","","","single-stim-button","257","642589","0.0-3.0-16.3-1.3","63c487fa9db90581d57dc017","C3","batch3","","655","","","tol_toboard","","","","","","","","","tol_peg_1","655","655","0","[[1,2,0],[3,0],[0]]","4","[[1,2,0],[3,0],[0]]","2","0","","","","","","4","",""
"","","","","","poldrack-single-stim","258","643604","0.0-3.0-17.0","63c487fa9db90581d57dc017","C3","batch3","","-1","","","tol_feedback","true","","","","","","","","","1000","1000","500","","","","","","-1","none","true","7719","13677","","",""
"","","","","","html-button-response","259","646069","0.0-3.0-18.0","63c487fa9db90581d57dc017","C3","batch3","","2462.5","<div class = centerbox><p class = center-block-text>problem <strong>4</strong> out of 25 problems</p></div>","0","tol_trial_num","","","","","","","","","","","","","","","","","","","","","","","","",""
"","","","","","single-stim-button","260","656550","0.0-3.0-19.0-0.0","63c487fa9db90581d57dc017","C3","batch3","","10479","","","tol_tohand","","","","","","","","","tol_peg_2","10479","10479","0","[[3,0,0],[2,0],[0]]","1","[[3,0,0],[1,0],[2]]","3","0","","","","","","3","",""
"","","","","","single-stim-button","261","657357","0.0-3.0-19.0-1.0","63c487fa9db90581d57dc017","C3","batch3","","806","","","tol_toboard","","","","","","","","","tol_peg_1","806","806","0","[[3,1,0],[2,0],[0]]","1","[[3,0,0],[1,0],[2]]","3","0","","","","","","3","",""
"","","","","","single-stim-button","262","658013","0.0-3.0-19.1-0.1","63c487fa9db90581d57dc017","C3","batch3","","655","","","tol_tohand","","","","","","","","","tol_peg_2","655","655","0","[[3,1,0],[0,0],[0]]","2","[[3,0,0],[1,0],[2]]","3","0","","","","","","3","",""
"","","","","","single-stim-button","263","658934","0.0-3.0-19.1-1.1","63c487fa9db90581d57dc017","C3","batch3","","919","","","tol_toboard","","","","","","","","","tol_peg_3","919","919","0","[[3,1,0],[0,0],[2]]","2","[[3,0,0],[1,0],[2]]","3","0","","","","","","3","",""
"","","","","","single-stim-button","264","660805","0.0-3.0-19.2-0.2","63c487fa9db90581d57dc017","C3","batch3","","1870","","","tol_tohand","","","","","","","","","tol_peg_1","1870","1870","0","[[3,0,0],[0,0],[2]]","3","[[3,0,0],[1,0],[2]]","3","0","","","","","","3","",""
"","","","","","single-stim-button","265","661485","0.0-3.0-19.2-1.2","63c487fa9db90581d57dc017","C3","batch3","","679","","","tol_toboard","","","","","","","","","tol_peg_2","679","679","0","[[3,0,0],[1,0],[2]]","3","[[3,0,0],[1,0],[2]]","3","0","","","","","","3","",""
"","","","","","poldrack-single-stim","266","662488","0.0-3.0-20.0","63c487fa9db90581d57dc017","C3","batch3","","-1","","","tol_feedback","true","","","","","","","","","1000","1000","500","","","","","","-1","none","true","10479","13004","","",""
"","","","","","html-button-response","267","663669","0.0-3.0-21.0","63c487fa9db90581d57dc017","C3","batch3","","1179.0999999996275","<div class = centerbox><p class = center-block-text>problem <strong>5</strong> out of 25 problems</p></div>","0","tol_trial_num","","","","","","","","","","","","","","","","","","","","","","","","",""
"","","","","","single-stim-button","268","670837","0.0-3.0-22.0-0.0","63c487fa9db90581d57dc017","C3","batch3","","7166","","","tol_tohand","","","","","","","","","tol_peg_1","7166","7166","0","[[0,0,0],[2,0],[3]]","1","[[0,0,0],[1,2],[3]]","4","0","","","","","","7","",""
"","","","","","single-stim-button","269","672437","0.0-3.0-22.0-1.0","63c487fa9db90581d57dc017","C3","batch3","","1598","","","tol_toboard","","","","","","","","","tol_peg_2","1598","1598","0","[[0,0,0],[2,1],[3]]","1","[[0,0,0],[1,2],[3]]","4","0","","","","","","7","",""
"","","","","","single-stim-button","270","673479","0.0-3.0-22.1-0.1","63c487fa9db90581d57dc017","C3","batch3","","1041","","","tol_tohand","","","","","","","","","tol_peg_3","1041","1041","0","[[0,0,0],[2,1],[0]]","2","[[0,0,0],[1,2],[3]]","4","0","","","","","","7","",""
"","","","","","single-stim-button","271","674669","0.0-3.0-22.1-1.1","63c487fa9db90581d57dc017","C3","batch3","","1189","","","tol_toboard","","","","","","","","","tol_peg_1","1189","1189","0","[[3,0,0],[2,1],[0]]","2","[[0,0,0],[1,2],[3]]","4","0","","","","","","7","",""
"","","","","","single-stim-button","272","675588","0.0-3.0-22.2-0.2","63c487fa9db90581d57dc017","C3","batch3","","919","","","tol_tohand","","","","","","","","","tol_peg_2","919","919","0","[[3,0,0],[2,0],[0]]","3","[[0,0,0],[1,2],[3]]","4","0","","","","","","7","",""
"","","","","","single-stim-button","273","676308","0.0-3.0-22.2-1.2","63c487fa9db90581d57dc017","C3","batch3","","719","","","tol_toboard","","","","","","","","","tol_peg_3","719","719","0","[[3,0,0],[2,0],[1]]","3","[[0,0,0],[1,2],[3]]","4","0","","","","","","7","",""
"","","","","","single-stim-button","274","677188","0.0-3.0-22.3-0.3","63c487fa9db90581d57dc017","C3","batch3","","879","","","tol_tohand","","","","","","","","","tol_peg_2","879","879","0","[[3,0,0],[0,0],[1]]","4","[[0,0,0],[1,2],[3]]","4","0","","","","","","7","",""
"","","","","","single-stim-button","275","678125","0.0-3.0-22.3-1.3","63c487fa9db90581d57dc017","C3","batch3","","935","","","tol_toboard","","","","","","","","","tol_peg_1","935","935","0","[[3,2,0],[0,0],[1]]","4","[[0,0,0],[1,2],[3]]","4","0","","","","","","7","",""
"","","","","","single-stim-button","276","680876","0.0-3.0-22.4-0.4","63c487fa9db90581d57dc017","C3","batch3","","2751","","","tol_tohand","","","","","","","","","tol_peg_3","2751","2751","0","[[3,2,0],[0,0],[0]]","5","[[0,0,0],[1,2],[3]]","4","0","","","","","","7","",""
"","","","","","single-stim-button","277","681126","0.0-3.0-22.4-1.4","63c487fa9db90581d57dc017","C3","batch3","","248","","","tol_toboard","","","","","","","","","tol_peg_3","248","248","0","[[3,2,0],[0,0],[1]]","5","[[0,0,0],[1,2],[3]]","4","0","","","","","","7","",""
"","","","","","single-stim-button","278","682054","0.0-3.0-22.5-0.5","63c487fa9db90581d57dc017","C3","batch3","","927","","","tol_tohand","","","","","","","","","tol_peg_3","927","927","0","[[3,2,0],[0,0],[0]]","6","[[0,0,0],[1,2],[3]]","4","0","","","","","","7","",""
"","","","","","single-stim-button","279","682381","0.0-3.0-22.5-1.5","63c487fa9db90581d57dc017","C3","batch3","","326","","","tol_toboard","","","","","","","","","tol_peg_2","326","326","0","[[3,2,0],[1,0],[0]]","6","[[0,0,0],[1,2],[3]]","4","0","","","","","","7","",""
"","","","","","single-stim-button","280","683877","0.0-3.0-22.6-0.6","63c487fa9db90581d57dc017","C3","batch3","","1495","","","tol_tohand","","","","","","","","","tol_peg_1","1495","1495","0","[[3,0,0],[1,0],[0]]","7","[[0,0,0],[1,2],[3]]","4","0","","","","","","7","",""
"","","","","","single-stim-button","281","684597","0.0-3.0-22.6-1.6","63c487fa9db90581d57dc017","C3","batch3","","718","","","tol_toboard","","","","","","","","","tol_peg_2","718","718","0","[[3,0,0],[1,2],[0]]","7","[[0,0,0],[1,2],[3]]","4","0","","","","","","7","",""
"","","","","","single-stim-button","282","685157","0.0-3.0-22.7-0.7","63c487fa9db90581d57dc017","C3","batch3","","559","","","tol_tohand","","","","","","","","","tol_peg_1","559","559","0","[[0,0,0],[1,2],[0]]","8","[[0,0,0],[1,2],[3]]","4","0","","","","","","7","",""
"","","","","","single-stim-button","283","686101","0.0-3.0-22.7-1.7","63c487fa9db90581d57dc017","C3","batch3","","943","","","tol_toboard","","","","","","","","","tol_peg_3","943","943","0","[[0,0,0],[1,2],[3]]","8","[[0,0,0],[1,2],[3]]","4","0","","","","","","7","",""
"","","","","","poldrack-single-stim","284","687113","0.0-3.0-23.0","63c487fa9db90581d57dc017","C3","batch3","","-1","","","tol_feedback","true","","","","","","","","","1000","1000","500","","","","","","-1","none","true","7166","15737","","",""
"","","","","","html-button-response","285","688732","0.0-3.0-24.0","63c487fa9db90581d57dc017","C3","batch3","","1617.8999999985099","<div class = centerbox><p class = center-block-text>problem <strong>6</strong> out of 25 problems</p></div>","0","tol_trial_num","","","","","","","","","","","","","","","","","","","","","","","","",""
"","","","","","single-stim-button","286","694357","0.0-3.0-25.0-0.0","63c487fa9db90581d57dc017","C3","batch3","","5623","","","tol_tohand","","","","","","","","","tol_peg_2","5623","5623","0","[[0,0,0],[1,0],[3]]","1","[[1,0,0],[2,3],[0]]","5","0","","","","","","6","",""
"","","","","","single-stim-button","287","695957","0.0-3.0-25.0-1.0","63c487fa9db90581d57dc017","C3","batch3","","1599","","","tol_toboard","","","","","","","","","tol_peg_1","1599","1599","0","[[2,0,0],[1,0],[3]]","1","[[1,0,0],[2,3],[0]]","5","0","","","","","","6","",""
"","","","","","single-stim-button","288","698412","0.0-3.0-25.1-0.1","63c487fa9db90581d57dc017","C3","batch3","","2454","","","tol_tohand","","","","","","","","","tol_peg_3","2454","2454","0","[[2,0,0],[1,0],[0]]","2","[[1,0,0],[2,3],[0]]","5","0","","","","","","6","",""
"","","","","","single-stim-button","289","701589","0.0-3.0-25.1-1.1","63c487fa9db90581d57dc017","C3","batch3","","3176","","","tol_toboard","","","","","","","","","tol_peg_1","3176","3176","0","[[2,3,0],[1,0],[0]]","2","[[1,0,0],[2,3],[0]]","5","0","","","","","","6","",""
"","","","","","single-stim-button","290","702573","0.0-3.0-25.2-0.2","63c487fa9db90581d57dc017","C3","batch3","","983","","","tol_tohand","","","","","","","","","tol_peg_2","983","983","0","[[2,3,0],[0,0],[0]]","3","[[1,0,0],[2,3],[0]]","5","0","","","","","","6","",""
"","","","","","single-stim-button","291","703429","0.0-3.0-25.2-1.2","63c487fa9db90581d57dc017","C3","batch3","","855","","","tol_toboard","","","","","","","","","tol_peg_3","855","855","0","[[2,3,0],[0,0],[1]]","3","[[1,0,0],[2,3],[0]]","5","0","","","","","","6","",""
"","","","","","single-stim-button","292","705677","0.0-3.0-25.3-0.3","63c487fa9db90581d57dc017","C3","batch3","","2246","","","tol_tohand","","","","","","","","","tol_peg_1","2246","2246","0","[[2,0,0],[0,0],[1]]","4","[[1,0,0],[2,3],[0]]","5","0","","","","","","6","",""
"","","","","","single-stim-button","293","707254","0.0-3.0-25.3-1.3","63c487fa9db90581d57dc017","C3","batch3","","1576","","","tol_toboard","","","","","","","","","tol_peg_2","1576","1576","0","[[2,0,0],[3,0],[1]]","4","[[1,0,0],[2,3],[0]]","5","0","","","","","","6","",""
"","","","","","single-stim-button","294","709476","0.0-3.0-25.4-0.4","63c487fa9db90581d57dc017","C3","batch3","","2221","","","tol_tohand","","","","","","","","","tol_peg_1","2221","2221","0","[[0,0,0],[3,0],[1]]","5","[[1,0,0],[2,3],[0]]","5","0","","","","","","6","",""
"","","","","","single-stim-button","295","710164","0.0-3.0-25.4-1.4","63c487fa9db90581d57dc017","C3","batch3","","687","","","tol_toboard","","","","","","","","","tol_peg_2","687","687","0","[[0,0,0],[3,2],[1]]","5","[[1,0,0],[2,3],[0]]","5","0","","","","","","6","",""
"","","","","","single-stim-button","296","710861","0.0-3.0-25.5-0.5","63c487fa9db90581d57dc017","C3","batch3","","695","","","tol_tohand","","","","","","","","","tol_peg_3","695","695","0","[[0,0,0],[3,2],[0]]","6","[[1,0,0],[2,3],[0]]","5","0","","","","","","6","",""
"","","","","","single-stim-button","297","712084","0.0-3.0-25.5-1.5","63c487fa9db90581d57dc017","C3","batch3","","1223","","","tol_toboard","","","","","","","","","tol_peg_1","1223","1223","0","[[1,0,0],[3,2],[0]]","6","[[1,0,0],[2,3],[0]]","5","0","","","","","","6","",""
"","","","","","single-stim-button","298","712828","0.0-3.0-25.6-0.6","63c487fa9db90581d57dc017","C3","batch3","","743","","","tol_tohand","","","","","","","","","tol_peg_2","743","743","0","[[1,0,0],[3,0],[0]]","7","[[1,0,0],[2,3],[0]]","5","0","","","","","","6","",""
"","","","","","single-stim-button","299","713844","0.0-3.0-25.6-1.6","63c487fa9db90581d57dc017","C3","batch3","","1015","","","tol_toboard","","","","","","","","","tol_peg_3","1015","1015","0","[[1,0,0],[3,0],[2]]","7","[[1,0,0],[2,3],[0]]","5","0","","","","","","6","",""
"","","","","","single-stim-button","300","714764","0.0-3.0-25.7-0.7","63c487fa9db90581d57dc017","C3","batch3","","919","","","tol_tohand","","","","","","","","","tol_peg_2","919","919","0","[[1,0,0],[0,0],[2]]","8","[[1,0,0],[2,3],[0]]","5","0","","","","","","6","",""
"","","","","","single-stim-button","301","715429","0.0-3.0-25.7-1.7","63c487fa9db90581d57dc017","C3","batch3","","663","","","tol_toboard","","","","","","","","","tol_peg_1","663","663","0","[[1,3,0],[0,0],[2]]","8","[[1,0,0],[2,3],[0]]","5","0","","","","","","6","",""
"","","","","","single-stim-button","302","716940","0.0-3.0-25.8-0.8","63c487fa9db90581d57dc017","C3","batch3","","1511","","","tol_tohand","","","","","","","","","tol_peg_3","1511","1511","0","[[1,3,0],[0,0],[0]]","9","[[1,0,0],[2,3],[0]]","5","0","","","","","","6","",""
"","","","","","single-stim-button","303","718388","0.0-3.0-25.8-1.8","63c487fa9db90581d57dc017","C3","batch3","","1447","","","tol_toboard","","","","","","","","","tol_peg_2","1447","1447","0","[[1,3,0],[2,0],[0]]","9","[[1,0,0],[2,3],[0]]","5","0","","","","","","6","",""
"","","","","","single-stim-button","304","719933","0.0-3.0-25.9-0.9","63c487fa9db90581d57dc017","C3","batch3","","1543","","","tol_tohand","","","","","","","","","tol_peg_1","1543","1543","0","[[1,0,0],[2,0],[0]]","10","[[1,0,0],[2,3],[0]]","5","0","","","","","","6","",""
"","","","","","single-stim-button","305","720484","0.0-3.0-25.9-1.9","63c487fa9db90581d57dc017","C3","batch3","","550","","","tol_toboard","","","","","","","","","tol_peg_2","550","550","0","[[1,0,0],[2,3],[0]]","10","[[1,0,0],[2,3],[0]]","5","0","","","","","","6","",""
"","","","","","poldrack-single-stim","306","721503","0.0-3.0-26.0","63c487fa9db90581d57dc017","C3","batch3","","-1","","","tol_feedback","true","","","","","","","","","1000","1000","500","","","","","","-1","none","true","5623","18938","","",""
"","","","","","html-button-response","307","722701","0.0-3.0-27.0","63c487fa9db90581d57dc017","C3","batch3","","1196.0999999996275","<div class = centerbox><p class = center-block-text>problem <strong>7</strong> out of 25 problems</p></div>","0","tol_trial_num","","","","","","","","","","","","","","","","","","","","","","","","",""
"","","","","","single-stim-button","308","729589","0.0-3.0-28.0-0.0","63c487fa9db90581d57dc017","C3","batch3","","6886","","","tol_tohand","","","","","","","","","tol_peg_1","6886","6886","0","[[2,0,0],[0,0],[3]]","1","[[1,2,0],[3,0],[0]]","6","0","","","","","","5","",""
"","","","","","single-stim-button","309","730364","0.0-3.0-28.0-1.0","63c487fa9db90581d57dc017","C3","batch3","","774","","","tol_toboard","","","","","","","","","tol_peg_2","774","774","0","[[2,0,0],[1,0],[3]]","1","[[1,2,0],[3,0],[0]]","6","0","","","","","","5","",""
"","","","","","single-stim-button","310","731092","0.0-3.0-28.1-0.1","63c487fa9db90581d57dc017","C3","batch3","","726","","","tol_tohand","","","","","","","","","tol_peg_1","726","726","0","[[0,0,0],[1,0],[3]]","2","[[1,2,0],[3,0],[0]]","6","0","","","","","","5","",""
"","","","","","single-stim-button","311","734773","0.0-3.0-28.1-1.1","63c487fa9db90581d57dc017","C3","batch3","","3678","","","tol_toboard","","","","","","","","","tol_peg_2","3678","3678","0","[[0,0,0],[1,2],[3]]","2","[[1,2,0],[3,0],[0]]","6","0","","","","","","5","",""
"","","","","","single-stim-button","312","736132","0.0-3.0-28.2-0.2","63c487fa9db90581d57dc017","C3","batch3","","1359","","","tol_tohand","","","","","","","","","tol_peg_3","1359","1359","0","[[0,0,0],[1,2],[0]]","3","[[1,2,0],[3,0],[0]]","6","0","","","","","","5","",""
"","","","","","single-stim-button","313","737436","0.0-3.0-28.2-1.2","63c487fa9db90581d57dc017","C3","batch3","","1303","","","tol_toboard","","","","","","","","","tol_peg_1","1303","1303","0","[[3,0,0],[1,2],[0]]","3","[[1,2,0],[3,0],[0]]","6","0","","","","","","5","",""
"","","","","","single-stim-button","314","741124","0.0-3.0-28.3-0.3","63c487fa9db90581d57dc017","C3","batch3","","3686","","","tol_tohand","","","","","","","","","tol_peg_2","3686","3686","0","[[3,0,0],[1,0],[0]]","4","[[1,2,0],[3,0],[0]]","6","0","","","","","","5","",""
"","","","","","single-stim-button","315","742533","0.0-3.0-28.3-1.3","63c487fa9db90581d57dc017","C3","batch3","","1407","","","tol_toboard","","","","","","","","","tol_peg_3","1407","1407","0","[[3,0,0],[1,0],[2]]","4","[[1,2,0],[3,0],[0]]","6","0","","","","","","5","",""
"","","","","","single-stim-button","316","743820","0.0-3.0-28.4-0.4","63c487fa9db90581d57dc017","C3","batch3","","1285","","","tol_tohand","","","","","","","","","tol_peg_1","1285","1285","0","[[0,0,0],[1,0],[2]]","5","[[1,2,0],[3,0],[0]]","6","0","","","","","","5","",""
"","","","","","single-stim-button","317","747964","0.0-3.0-28.4-1.4","63c487fa9db90581d57dc017","C3","batch3","","4143","","","tol_toboard","","","","","","","","","tol_peg_2","4143","4143","0","[[0,0,0],[1,3],[2]]","5","[[1,2,0],[3,0],[0]]","6","0","","","","","","5","",""
"","","","","","single-stim-button","318","749164","0.0-3.0-28.5-0.5","63c487fa9db90581d57dc017","C3","batch3","","1198","","","tol_tohand","","","","","","","","","tol_peg_2","1198","1198","0","[[0,0,0],[1,0],[2]]","6","[[1,2,0],[3,0],[0]]","6","0","","","","","","5","",""
"","","","","","single-stim-button","319","750052","0.0-3.0-28.5-1.5","63c487fa9db90581d57dc017","C3","batch3","","887","","","tol_toboard","","","","","","","","","tol_peg_1","887","887","0","[[3,0,0],[1,0],[2]]","6","[[1,2,0],[3,0],[0]]","6","0","","","","","","5","",""
"","","","","","single-stim-button","320","751068","0.0-3.0-28.6-0.6","63c487fa9db90581d57dc017","C3","batch3","","1014","","","tol_tohand","","","","","","","","","tol_peg_3","1014","1014","0","[[3,0,0],[1,0],[0]]","7","[[1,2,0],[3,0],[0]]","6","0","","","","","","5","",""
"","","","","","single-stim-button","321","752020","0.0-3.0-28.6-1.6","63c487fa9db90581d57dc017","C3","batch3","","951","","","tol_toboard","","","","","","","","","tol_peg_1","951","951","0","[[3,2,0],[1,0],[0]]","7","[[1,2,0],[3,0],[0]]","6","0","","","","","","5","",""
"","","","","","single-stim-button","322","752788","0.0-3.0-28.7-0.7","63c487fa9db90581d57dc017","C3","batch3","","767","","","tol_tohand","","","","","","","","","tol_peg_2","767","767","0","[[3,2,0],[0,0],[0]]","8","[[1,2,0],[3,0],[0]]","6","0","","","","","","5","",""
"","","","","","single-stim-button","323","753572","0.0-3.0-28.7-1.7","63c487fa9db90581d57dc017","C3","batch3","","783","","","tol_toboard","","","","","","","","","tol_peg_3","783","783","0","[[3,2,0],[0,0],[1]]","8","[[1,2,0],[3,0],[0]]","6","0","","","","","","5","",""
"","","","","","single-stim-button","324","755020","0.0-3.0-28.8-0.8","63c487fa9db90581d57dc017","C3","batch3","","1446","","","tol_tohand","","","","","","","","","tol_peg_1","1446","1446","0","[[3,0,0],[0,0],[1]]","9","[[1,2,0],[3,0],[0]]","6","0","","","","","","5","",""
"","","","","","single-stim-button","325","755669","0.0-3.0-28.8-1.8","63c487fa9db90581d57dc017","C3","batch3","","647","","","tol_toboard","","","","","","","","","tol_peg_2","647","647","0","[[3,0,0],[2,0],[1]]","9","[[1,2,0],[3,0],[0]]","6","0","","","","","","5","",""
"","","","","","single-stim-button","326","756148","0.0-3.0-28.9-0.9","63c487fa9db90581d57dc017","C3","batch3","","478","","","tol_tohand","","","","","","","","","tol_peg_1","478","478","0","[[0,0,0],[2,0],[1]]","10","[[1,2,0],[3,0],[0]]","6","0","","","","","","5","",""
"","","","","","single-stim-button","327","756540","0.0-3.0-28.9-1.9","63c487fa9db90581d57dc017","C3","batch3","","391","","","tol_toboard","","","","","","","","","tol_peg_2","391","391","0","[[0,0,0],[2,3],[1]]","10","[[1,2,0],[3,0],[0]]","6","0","","","","","","5","",""
"","","","","","single-stim-button","328","757020","0.0-3.0-28.10-0.10","63c487fa9db90581d57dc017","C3","batch3","","478","","","tol_tohand","","","","","","","","","tol_peg_3","478","478","0","[[0,0,0],[2,3],[0]]","11","[[1,2,0],[3,0],[0]]","6","0","","","","","","5","",""
"","","","","","single-stim-button","329","757940","0.0-3.0-28.10-1.10","63c487fa9db90581d57dc017","C3","batch3","","918","","","tol_toboard","","","","","","","","","tol_peg_1","918","918","0","[[1,0,0],[2,3],[0]]","11","[[1,2,0],[3,0],[0]]","6","0","","","","","","5","",""
"","","","","","single-stim-button","330","758716","0.0-3.0-28.11-0.11","63c487fa9db90581d57dc017","C3","batch3","","774","","","tol_tohand","","","","","","","","","tol_peg_2","774","774","0","[[1,0,0],[2,0],[0]]","12","[[1,2,0],[3,0],[0]]","6","0","","","","","","5","",""
"","","","","","single-stim-button","331","759316","0.0-3.0-28.11-1.11","63c487fa9db90581d57dc017","C3","batch3","","598","","","tol_toboard","","","","","","","","","tol_peg_3","598","598","0","[[1,0,0],[2,0],[3]]","12","[[1,2,0],[3,0],[0]]","6","0","","","","","","5","",""
"","","","","","single-stim-button","332","759716","0.0-3.0-28.12-0.12","63c487fa9db90581d57dc017","C3","batch3","","399","","","tol_tohand","","","","","","","","","tol_peg_2","399","399","0","[[1,0,0],[0,0],[3]]","13","[[1,2,0],[3,0],[0]]","6","0","","","","","","5","",""
"","","","","","single-stim-button","333","760196","0.0-3.0-28.12-1.12","63c487fa9db90581d57dc017","C3","batch3","","478","","","tol_toboard","","","","","","","","","tol_peg_1","478","478","0","[[1,2,0],[0,0],[3]]","13","[[1,2,0],[3,0],[0]]","6","0","","","","","","5","",""
"","","","","","single-stim-button","334","761972","0.0-3.0-28.13-0.13","63c487fa9db90581d57dc017","C3","batch3","","1774","","","tol_tohand","","","","","","","","","tol_peg_3","1774","1774","0","[[1,2,0],[0,0],[0]]","14","[[1,2,0],[3,0],[0]]","6","0","","","","","","5","",""
"","","","","","single-stim-button","335","762661","0.0-3.0-28.13-1.13","63c487fa9db90581d57dc017","C3","batch3","","686","","","tol_toboard","","","","","","","","","tol_peg_2","686","686","0","[[1,2,0],[3,0],[0]]","14","[[1,2,0],[3,0],[0]]","6","0","","","","","","5","",""
"","","","","","poldrack-single-stim","336","763665","0.0-3.0-29.0","63c487fa9db90581d57dc017","C3","batch3","","-1","","","tol_feedback","true","","","","","","","","","1000","1000","500","","","","","","-1","none","true","6886","22270","","",""
"","","","","","html-button-response","337","765076","0.0-3.0-30.0","63c487fa9db90581d57dc017","C3","batch3","","1406.800000000745","<div class = centerbox><p class = center-block-text>problem <strong>8</strong> out of 25 problems</p></div>","0","tol_trial_num","","","","","","","","","","","","","","","","","","","","","","","","",""
"","","","","","single-stim-button","338","771396","0.0-3.0-31.0-0.0","63c487fa9db90581d57dc017","C3","batch3","","6319","","","tol_tohand","","","","","","","","","tol_peg_3","6319","6319","0","[[0,0,0],[2,3],[0]]","1","[[1,2,0],[3,0],[0]]","7","0","","","","","","4","",""
"","","","","","single-stim-button","339","772292","0.0-3.0-31.0-1.0","63c487fa9db90581d57dc017","C3","batch3","","894","","","tol_toboard","","","","","","","","","tol_peg_1","894","894","0","[[1,0,0],[2,3],[0]]","1","[[1,2,0],[3,0],[0]]","7","0","","","","","","4","",""
"","","","","","single-stim-button","340","773716","0.0-3.0-31.1-0.1","63c487fa9db90581d57dc017","C3","batch3","","1422","","","tol_tohand","","","","","","","","","tol_peg_2","1422","1422","0","[[1,0,0],[2,0],[0]]","2","[[1,2,0],[3,0],[0]]","7","0","","","","","","4","",""
"","","","","","single-stim-button","341","774612","0.0-3.0-31.1-1.1","63c487fa9db90581d57dc017","C3","batch3","","895","","","tol_toboard","","","","","","","","","tol_peg_3","895","895","0","[[1,0,0],[2,0],[3]]","2","[[1,2,0],[3,0],[0]]","7","0","","","","","","4","",""
"","","","","","single-stim-button","342","775300","0.0-3.0-31.2-0.2","63c487fa9db90581d57dc017","C3","batch3","","687","","","tol_tohand","","","","","","","","","tol_peg_2","687","687","0","[[1,0,0],[0,0],[3]]","3","[[1,2,0],[3,0],[0]]","7","0","","","","","","4","",""
"","","","","","single-stim-button","343","776036","0.0-3.0-31.2-1.2","63c487fa9db90581d57dc017","C3","batch3","","735","","","tol_toboard","","","","","","","","","tol_peg_1","735","735","0","[[1,2,0],[0,0],[3]]","3","[[1,2,0],[3,0],[0]]","7","0","","","","","","4","",""
"","","","","","single-stim-button","344","776781","0.0-3.0-31.3-0.3","63c487fa9db90581d57dc017","C3","batch3","","744","","","tol_tohand","","","","","","","","","tol_peg_3","744","744","0","[[1,2,0],[0,0],[0]]","4","[[1,2,0],[3,0],[0]]","7","0","","","","","","4","",""
"","","","","","single-stim-button","345","777300","0.0-3.0-31.3-1.3","63c487fa9db90581d57dc017","C3","batch3","","518","","","tol_toboard","","","","","","","","","tol_peg_2","518","518","0","[[1,2,0],[3,0],[0]]","4","[[1,2,0],[3,0],[0]]","7","0","","","","","","4","",""
"","","","","","poldrack-single-stim","346","778306","0.0-3.0-32.0","63c487fa9db90581d57dc017","C3","batch3","","-1","","","tol_feedback","true","","","","","","","","","1000","1000","500","","","","","","-1","none","true","6319","9172","","",""
"","","","","","html-button-response","347","780507","0.0-3.0-33.0","63c487fa9db90581d57dc017","C3","batch3","","2198.4000000003725","<div class = centerbox><p class = center-block-text>problem <strong>9</strong> out of 25 problems</p></div>","0","tol_trial_num","","","","","","","","","","","","","","","","","","","","","","","","",""
