"success","timeout","failed_images","failed_audio","failed_video","trial_type","trial_index","time_elapsed","internal_node_id","subject_id","study_id","session_id","task","rt","stimulus","response","item","answer","correct","spm_correct","spm_rt","view_history","mouse_click","stim_duration","block_duration","timing_post_trial","current_position","tol_num_moves_made","tol_target","tol_problem_id","tol_rt","key_press","possible_responses","tol_correct","preplanning","tol_rt_per_trial","tol_min_moves","fiar_detect_rt","fiar_detect_correct","total_correct_fiar_detect","post_trial_gap","choices"
"true","false","[]","[]","[]","preload","0","1593","0.0-0.0","63cb23389133d3f76db2336a","F1","batch6","","","","","","","","","","","","","","","","","","","","","","","","","","","","","",""
"true","","","","","fullscreen","1","3853","0.0-1.0-0.0","63cb23389133d3f76db2336a","F1","batch6","","","","","","","","","","","","","","","","","","","","","","","","","","","","","",""
"true","","","","","fullscreen","2","6973","0.0-2.0-0.0","63cb23389133d3f76db2336a","F1","batch6","spm_fullscreen","","","","","","","","","","","","","","","","","","","","","","","","","","","","",""
"","","","","","html-button-response","3","15118","0.0-2.0-1.0","63cb23389133d3f76db2336a","F1","batch6","","8143.0999999940395","<p class = block-text><b>Instructions</b> <br>This is a widely used intelligence test in research. <br>In this test, a figure with a missing piece will be presented.<br>Below the figure are alternative pieces to complete the figure, only one of which is correct.<br> Different figures might involve different principles for obtaining the missing piece<br>Your job is to select the most logical piece to complete the figure.</p>","0","","","","","","","","","","","","","","","","","","","","","","","","","",""
"","","","","","html-keyboard-response","4","15923","0.0-2.0-2.0-0.0","63cb23389133d3f76db2336a","F1","batch6","spm_show_trial_num","null","<p class=block-text>Trial 1 out of 60</p>","null","","","","","","","","","","","","","","","","","","","","","","","","","",""
"","","","","","image-button-response","5","19211","0.0-2.0-2.0-1.0","63cb23389133d3f76db2336a","F1","batch6","spm_respsonse","3283.9000000059605","img/question_1_1.jpeg","3","mat_01","4","1","1","3283.9000000059605","","","","","","","","","","","","","","","","","","","","",""
"","","","","","html-keyboard-response","6","20275","0.0-2.0-2.0-0.1","63cb23389133d3f76db2336a","F1","batch6","spm_show_trial_num","null","<p class=block-text>Trial 2 out of 60</p>","null","","","","","","","","","","","","","","","","","","","","","","","","","",""
"","","","","","image-button-response","7","22977","0.0-2.0-2.0-1.1","63cb23389133d3f76db2336a","F1","batch6","spm_respsonse","2699.4000000059605","img/question_1_2.jpeg","4","mat_02","5","1","1","2699.4000000059605","","","","","","","","","","","","","","","","","","","","",""
"","","","","","html-keyboard-response","8","24044","0.0-2.0-2.0-0.2","63cb23389133d3f76db2336a","F1","batch6","spm_show_trial_num","null","<p class=block-text>Trial 3 out of 60</p>","null","","","","","","","","","","","","","","","","","","","","","","","","","",""
"","","","","","image-button-response","9","26996","0.0-2.0-2.0-1.2","63cb23389133d3f76db2336a","F1","batch6","spm_respsonse","2949.899999976158","img/question_1_3.jpeg","0","mat_03","1","1","1","2949.899999976158","","","","","","","","","","","","","","","","","","","","",""
"","","","","","html-keyboard-response","10","28061","0.0-2.0-2.0-0.3","63cb23389133d3f76db2336a","F1","batch6","spm_show_trial_num","null","<p class=block-text>Trial 4 out of 60</p>","null","","","","","","","","","","","","","","","","","","","","","","","","","",""
"","","","","","image-button-response","11","30226","0.0-2.0-2.0-1.3","63cb23389133d3f76db2336a","F1","batch6","spm_respsonse","2163.7999999821186","img/question_1_4.jpeg","1","mat_04","2","1","1","2163.7999999821186","","","","","","","","","","","","","","","","","","","","",""
"","","","","","html-keyboard-response","12","31291","0.0-2.0-2.0-0.4","63cb23389133d3f76db2336a","F1","batch6","spm_show_trial_num","null","<p class=block-text>Trial 5 out of 60</p>","null","","","","","","","","","","","","","","","","","","","","","","","","","",""
"","","","","","image-button-response","13","33328","0.0-2.0-2.0-1.4","63cb23389133d3f76db2336a","F1","batch6","spm_respsonse","2034.6000000238419","img/question_1_5.jpeg","5","mat_05","6","1","1","2034.6000000238419","","","","","","","","","","","","","","","","","","","","",""
"","","","","","html-keyboard-response","14","34395","0.0-2.0-2.0-0.5","63cb23389133d3f76db2336a","F1","batch6","spm_show_trial_num","null","<p class=block-text>Trial 6 out of 60</p>","null","","","","","","","","","","","","","","","","","","","","","","","","","",""
"","","","","","image-button-response","15","36882","0.0-2.0-2.0-1.5","63cb23389133d3f76db2336a","F1","batch6","spm_respsonse","2484.800000011921","img/question_1_6.jpeg","2","mat_06","3","1","1","2484.800000011921","","","","","","","","","","","","","","","","","","","","",""
"","","","","","html-keyboard-response","16","37940","0.0-2.0-2.0-0.6","63cb23389133d3f76db2336a","F1","batch6","spm_show_trial_num","null","<p class=block-text>Trial 7 out of 60</p>","null","","","","","","","","","","","","","","","","","","","","","","","","","",""
"","","","","","image-button-response","17","41245","0.0-2.0-2.0-1.6","63cb23389133d3f76db2336a","F1","batch6","spm_respsonse","3302.9000000059605","img/question_1_7.jpeg","5","mat_07","6","1","1","3302.9000000059605","","","","","","","","","","","","","","","","","","","","",""
"","","","","","html-keyboard-response","18","42311","0.0-2.0-2.0-0.7","63cb23389133d3f76db2336a","F1","batch6","spm_show_trial_num","null","<p class=block-text>Trial 8 out of 60</p>","null","","","","","","","","","","","","","","","","","","","","","","","","","",""
"","","","","","image-button-response","19","46660","0.0-2.0-2.0-1.7","63cb23389133d3f76db2336a","F1","batch6","spm_respsonse","4347.9000000059605","img/question_1_8.jpeg","1","mat_08","2","1","1","4347.9000000059605","","","","","","","","","","","","","","","","","","","","",""
"","","","","","html-keyboard-response","20","47723","0.0-2.0-2.0-0.8","63cb23389133d3f76db2336a","F1","batch6","spm_show_trial_num","null","<p class=block-text>Trial 9 out of 60</p>","null","","","","","","","","","","","","","","","","","","","","","","","","","",""
"","","","","","image-button-response","21","50560","0.0-2.0-2.0-1.8","63cb23389133d3f76db2336a","F1","batch6","spm_respsonse","2834.4000000059605","img/question_1_9.jpeg","0","mat_09","1","1","1","2834.4000000059605","","","","","","","","","","","","","","","","","","","","",""
"","","","","","html-keyboard-response","22","51627","0.0-2.0-2.0-0.9","63cb23389133d3f76db2336a","F1","batch6","spm_show_trial_num","null","<p class=block-text>Trial 10 out of 60</p>","null","","","","","","","","","","","","","","","","","","","","","","","","","",""
"","","","","","image-button-response","23","54596","0.0-2.0-2.0-1.9","63cb23389133d3f76db2336a","F1","batch6","spm_respsonse","2966.899999976158","img/question_1_10.jpeg","2","mat_10","3","1","1","2966.899999976158","","","","","","","","","","","","","","","","","","","","",""
"","","","","","html-keyboard-response","24","55659","0.0-2.0-2.0-0.10","63cb23389133d3f76db2336a","F1","batch6","spm_show_trial_num","null","<p class=block-text>Trial 11 out of 60</p>","null","","","","","","","","","","","","","","","","","","","","","","","","","",""
"","","","","","image-button-response","25","64736","0.0-2.0-2.0-1.10","63cb23389133d3f76db2336a","F1","batch6","spm_respsonse","9074.5","img/question_1_11.jpeg","3","mat_11","4","1","1","9074.5","","","","","","","","","","","","","","","","","","","","",""
"","","","","","html-keyboard-response","26","65794","0.0-2.0-2.0-0.11","63cb23389133d3f76db2336a","F1","batch6","spm_show_trial_num","null","<p class=block-text>Trial 12 out of 60</p>","null","","","","","","","","","","","","","","","","","","","","","","","","","",""
"","","","","","image-button-response","27","72625","0.0-2.0-2.0-1.11","63cb23389133d3f76db2336a","F1","batch6","spm_respsonse","6828.4000000059605","img/question_1_12.jpeg","0","mat_12","5","0","0","6828.4000000059605","","","","","","","","","","","","","","","","","","","","",""
"","","","","","html-keyboard-response","28","73690","0.0-2.0-2.0-0.12","63cb23389133d3f76db2336a","F1","batch6","spm_show_trial_num","null","<p class=block-text>Trial 13 out of 60</p>","null","","","","","","","","","","","","","","","","","","","","","","","","","",""
"","","","","","image-button-response","29","75565","0.0-2.0-2.0-1.12","63cb23389133d3f76db2336a","F1","batch6","spm_respsonse","1872.300000011921","img/question_2_1.jpeg","1","mat_13","2","1","1","1872.300000011921","","","","","","","","","","","","","","","","","","","","",""
"","","","","","html-keyboard-response","30","76634","0.0-2.0-2.0-0.13","63cb23389133d3f76db2336a","F1","batch6","spm_show_trial_num","null","<p class=block-text>Trial 14 out of 60</p>","null","","","","","","","","","","","","","","","","","","","","","","","","","",""
"","","","","","image-button-response","31","80461","0.0-2.0-2.0-1.13","63cb23389133d3f76db2336a","F1","batch6","spm_respsonse","3824.9000000059605","img/question_2_2.jpeg","2","mat_14","6","0","0","3824.9000000059605","","","","","","","","","","","","","","","","","","","","",""
"","","","","","html-keyboard-response","32","81530","0.0-2.0-2.0-0.14","63cb23389133d3f76db2336a","F1","batch6","spm_show_trial_num","null","<p class=block-text>Trial 15 out of 60</p>","null","","","","","","","","","","","","","","","","","","","","","","","","","",""
"","","","","","image-button-response","33","83996","0.0-2.0-2.0-1.14","63cb23389133d3f76db2336a","F1","batch6","spm_respsonse","2464.4000000059605","img/question_2_3.jpeg","0","mat_15","1","1","1","2464.4000000059605","","","","","","","","","","","","","","","","","","","","",""
"","","","","","html-keyboard-response","34","85063","0.0-2.0-2.0-0.15","63cb23389133d3f76db2336a","F1","batch6","spm_show_trial_num","null","<p class=block-text>Trial 16 out of 60</p>","null","","","","","","","","","","","","","","","","","","","","","","","","","",""
"","","","","","image-button-response","35","87520","0.0-2.0-2.0-1.15","63cb23389133d3f76db2336a","F1","batch6","spm_respsonse","2454.4000000059605","img/question_2_4.jpeg","1","mat_16","2","1","1","2454.4000000059605","","","","","","","","","","","","","","","","","","","","",""
"","","","","","html-keyboard-response","36","88586","0.0-2.0-2.0-0.16","63cb23389133d3f76db2336a","F1","batch6","spm_show_trial_num","null","<p class=block-text>Trial 17 out of 60</p>","null","","","","","","","","","","","","","","","","","","","","","","","","","",""
"","","","","","image-button-response","37","91678","0.0-2.0-2.0-1.16","63cb23389133d3f76db2336a","F1","batch6","spm_respsonse","3089.5999999940395","img/question_2_5.jpeg","0","mat_17","1","1","1","3089.5999999940395","","","","","","","","","","","","","","","","","","","","",""
"","","","","","html-keyboard-response","38","92738","0.0-2.0-2.0-0.17","63cb23389133d3f76db2336a","F1","batch6","spm_show_trial_num","null","<p class=block-text>Trial 18 out of 60</p>","null","","","","","","","","","","","","","","","","","","","","","","","","","",""
"","","","","","image-button-response","39","95799","0.0-2.0-2.0-1.17","63cb23389133d3f76db2336a","F1","batch6","spm_respsonse","3058.0999999940395","img/question_2_6.jpeg","2","mat_18","3","1","1","3058.0999999940395","","","","","","","","","","","","","","","","","","","","",""
"","","","","","html-keyboard-response","40","96862","0.0-2.0-2.0-0.18","63cb23389133d3f76db2336a","F1","batch6","spm_show_trial_num","null","<p class=block-text>Trial 19 out of 60</p>","null","","","","","","","","","","","","","","","","","","","","","","","","","",""
"","","","","","image-button-response","41","99777","0.0-2.0-2.0-1.18","63cb23389133d3f76db2336a","F1","batch6","spm_respsonse","2912.199999988079","img/question_2_7.jpeg","4","mat_19","5","1","1","2912.199999988079","","","","","","","","","","","","","","","","","","","","",""
"","","","","","html-keyboard-response","42","100841","0.0-2.0-2.0-0.19","63cb23389133d3f76db2336a","F1","batch6","spm_show_trial_num","null","<p class=block-text>Trial 20 out of 60</p>","null","","","","","","","","","","","","","","","","","","","","","","","","","",""
"","","","","","image-button-response","43","105204","0.0-2.0-2.0-1.19","63cb23389133d3f76db2336a","F1","batch6","spm_respsonse","4361.300000011921","img/question_2_8.jpeg","5","mat_20","6","1","1","4361.300000011921","","","","","","","","","","","","","","","","","","","","",""
"","","","","","html-keyboard-response","44","106259","0.0-2.0-2.0-0.20","63cb23389133d3f76db2336a","F1","batch6","spm_show_trial_num","null","<p class=block-text>Trial 21 out of 60</p>","null","","","","","","","","","","","","","","","","","","","","","","","","","",""
"","","","","","image-button-response","45","109299","0.0-2.0-2.0-1.20","63cb23389133d3f76db2336a","F1","batch6","spm_respsonse","3037.800000011921","img/question_2_9.jpeg","3","mat_21","4","1","1","3037.800000011921","","","","","","","","","","","","","","","","","","","","",""
"","","","","","html-keyboard-response","46","110364","0.0-2.0-2.0-0.21","63cb23389133d3f76db2336a","F1","batch6","spm_show_trial_num","null","<p class=block-text>Trial 22 out of 60</p>","null","","","","","","","","","","","","","","","","","","","","","","","","","",""
"","","","","","image-button-response","47","113259","0.0-2.0-2.0-1.21","63cb23389133d3f76db2336a","F1","batch6","spm_respsonse","2893.2999999821186","img/question_2_10.jpeg","2","mat_22","3","1","1","2893.2999999821186","","","","","","","","","","","","","","","","","","","","",""
"","","","","","html-keyboard-response","48","114326","0.0-2.0-2.0-0.22","63cb23389133d3f76db2336a","F1","batch6","spm_show_trial_num","null","<p class=block-text>Trial 23 out of 60</p>","null","","","","","","","","","","","","","","","","","","","","","","","","","",""
"","","","","","image-button-response","49","117926","0.0-2.0-2.0-1.22","63cb23389133d3f76db2336a","F1","batch6","spm_respsonse","3597.7999999821186","img/question_2_11.jpeg","3","mat_23","4","1","1","3597.7999999821186","","","","","","","","","","","","","","","","","","","","",""
"","","","","","html-keyboard-response","50","118984","0.0-2.0-2.0-0.23","63cb23389133d3f76db2336a","F1","batch6","spm_show_trial_num","null","<p class=block-text>Trial 24 out of 60</p>","null","","","","","","","","","","","","","","","","","","","","","","","","","",""
"","","","","","image-button-response","51","124329","0.0-2.0-2.0-1.23","63cb23389133d3f76db2336a","F1","batch6","spm_respsonse","5342.9000000059605","img/question_2_12.jpeg","4","mat_24","5","1","1","5342.9000000059605","","","","","","","","","","","","","","","","","","","","",""
"","","","","","html-button-response","52","126730","0.0-2.0-3.0","63cb23389133d3f76db2336a","F1","batch6","attention_check","2144.800000011921","<p class = block-text>Attention check: Please choose 1<br></p>","0","","","true","","","","","","","","","","","","","","","","","","","","","","",""
"","","","","","html-keyboard-response","53","127537","0.0-2.0-4.0-0.0","63cb23389133d3f76db2336a","F1","batch6","spm_show_trial_num","null","<p class=block-text>Trial 25 out of 60</p>","null","","","","","","","","","","","","","","","","","","","","","","","","","",""
"","","","","","image-button-response","54","130435","0.0-2.0-4.0-1.0","63cb23389133d3f76db2336a","F1","batch6","spm_respsonse","2893.5999999940395","img/question_3_1.jpeg","7","mat_25","8","1","1","2893.5999999940395","","","","","","","","","","","","","","","","","","","","",""
"","","","","","html-keyboard-response","55","131503","0.0-2.0-4.0-0.1","63cb23389133d3f76db2336a","F1","batch6","spm_show_trial_num","null","<p class=block-text>Trial 26 out of 60</p>","null","","","","","","","","","","","","","","","","","","","","","","","","","",""
"","","","","","image-button-response","56","135279","0.0-2.0-4.0-1.1","63cb23389133d3f76db2336a","F1","batch6","spm_respsonse","3772.100000023842","img/question_3_2.jpeg","2","mat_26","2","0","0","3772.100000023842","","","","","","","","","","","","","","","","","","","","",""
"","","","","","html-keyboard-response","57","136343","0.0-2.0-4.0-0.2","63cb23389133d3f76db2336a","F1","batch6","spm_show_trial_num","null","<p class=block-text>Trial 27 out of 60</p>","null","","","","","","","","","","","","","","","","","","","","","","","","","",""
"","","","","","image-button-response","58","140454","0.0-2.0-4.0-1.2","63cb23389133d3f76db2336a","F1","batch6","spm_respsonse","4108.5999999940395","img/question_3_3.jpeg","2","mat_27","3","1","1","4108.5999999940395","","","","","","","","","","","","","","","","","","","","",""
"","","","","","html-keyboard-response","59","141520","0.0-2.0-4.0-0.3","63cb23389133d3f76db2336a","F1","batch6","spm_show_trial_num","null","<p class=block-text>Trial 28 out of 60</p>","null","","","","","","","","","","","","","","","","","","","","","","","","","",""
"","","","","","image-button-response","60","145810","0.0-2.0-4.0-1.3","63cb23389133d3f76db2336a","F1","batch6","spm_respsonse","4286.700000017881","img/question_3_4.jpeg","7","mat_28","8","1","1","4286.700000017881","","","","","","","","","","","","","","","","","","","","",""
"","","","","","html-keyboard-response","61","146878","0.0-2.0-4.0-0.4","63cb23389133d3f76db2336a","F1","batch6","spm_show_trial_num","null","<p class=block-text>Trial 29 out of 60</p>","null","","","","","","","","","","","","","","","","","","","","","","","","","",""
"","","","","","image-button-response","62","151244","0.0-2.0-4.0-1.4","63cb23389133d3f76db2336a","F1","batch6","spm_respsonse","4363","img/question_3_5.jpeg","6","mat_29","7","1","1","4363","","","","","","","","","","","","","","","","","","","","",""
"","","","","","html-keyboard-response","63","152311","0.0-2.0-4.0-0.5","63cb23389133d3f76db2336a","F1","batch6","spm_show_trial_num","null","<p class=block-text>Trial 30 out of 60</p>","null","","","","","","","","","","","","","","","","","","","","","","","","","",""
"","","","","","image-button-response","64","155529","0.0-2.0-4.0-1.5","63cb23389133d3f76db2336a","F1","batch6","spm_respsonse","3215.300000011921","img/question_3_6.jpeg","3","mat_30","4","1","1","3215.300000011921","","","","","","","","","","","","","","","","","","","","",""
"","","","","","html-keyboard-response","65","156598","0.0-2.0-4.0-0.6","63cb23389133d3f76db2336a","F1","batch6","spm_show_trial_num","null","<p class=block-text>Trial 31 out of 60</p>","null","","","","","","","","","","","","","","","","","","","","","","","","","",""
"","","","","","image-button-response","66","161184","0.0-2.0-4.0-1.6","63cb23389133d3f76db2336a","F1","batch6","spm_respsonse","4582.300000011921","img/question_3_7.jpeg","4","mat_31","5","1","1","4582.300000011921","","","","","","","","","","","","","","","","","","","","",""
"","","","","","html-keyboard-response","67","162246","0.0-2.0-4.0-0.7","63cb23389133d3f76db2336a","F1","batch6","spm_show_trial_num","null","<p class=block-text>Trial 32 out of 60</p>","null","","","","","","","","","","","","","","","","","","","","","","","","","",""
"","","","","","image-button-response","68","173304","0.0-2.0-4.0-1.7","63cb23389133d3f76db2336a","F1","batch6","spm_respsonse","11056.09999999404","img/question_3_8.jpeg","0","mat_32","1","1","1","11056.09999999404","","","","","","","","","","","","","","","","","","","","",""
"","","","","","html-keyboard-response","69","174374","0.0-2.0-4.0-0.8","63cb23389133d3f76db2336a","F1","batch6","spm_show_trial_num","null","<p class=block-text>Trial 33 out of 60</p>","null","","","","","","","","","","","","","","","","","","","","","","","","","",""
"","","","","","image-button-response","70","179678","0.0-2.0-4.0-1.8","63cb23389133d3f76db2336a","F1","batch6","spm_respsonse","5302.300000011921","img/question_3_9.jpeg","6","mat_33","7","1","1","5302.300000011921","","","","","","","","","","","","","","","","","","","","",""
"","","","","","html-keyboard-response","71","180738","0.0-2.0-4.0-0.9","63cb23389133d3f76db2336a","F1","batch6","spm_show_trial_num","null","<p class=block-text>Trial 34 out of 60</p>","null","","","","","","","","","","","","","","","","","","","","","","","","","",""
"","","","","","image-button-response","72","186819","0.0-2.0-4.0-1.9","63cb23389133d3f76db2336a","F1","batch6","spm_respsonse","6078.5999999940395","img/question_3_10.jpeg","7","mat_34","6","0","0","6078.5999999940395","","","","","","","","","","","","","","","","","","","","",""
"","","","","","html-keyboard-response","73","187883","0.0-2.0-4.0-0.10","63cb23389133d3f76db2336a","F1","batch6","spm_show_trial_num","null","<p class=block-text>Trial 35 out of 60</p>","null","","","","","","","","","","","","","","","","","","","","","","","","","",""
"","","","","","image-button-response","74","198698","0.0-2.0-4.0-1.10","63cb23389133d3f76db2336a","F1","batch6","spm_respsonse","10813.699999988079","img/question_3_11.jpeg","0","mat_35","1","1","1","10813.699999988079","","","","","","","","","","","","","","","","","","","","",""
"","","","","","html-keyboard-response","75","199765","0.0-2.0-4.0-0.11","63cb23389133d3f76db2336a","F1","batch6","spm_show_trial_num","null","<p class=block-text>Trial 36 out of 60</p>","null","","","","","","","","","","","","","","","","","","","","","","","","","",""
"","","","","","image-button-response","76","225053","0.0-2.0-4.0-1.11","63cb23389133d3f76db2336a","F1","batch6","spm_respsonse","25286.5","img/question_3_12.jpeg","1","mat_36","2","1","1","25286.5","","","","","","","","","","","","","","","","","","","","",""
"","","","","","html-keyboard-response","77","226106","0.0-2.0-4.0-0.12","63cb23389133d3f76db2336a","F1","batch6","spm_show_trial_num","null","<p class=block-text>Trial 37 out of 60</p>","null","","","","","","","","","","","","","","","","","","","","","","","","","",""
"","","","","","image-button-response","78","228547","0.0-2.0-4.0-1.12","63cb23389133d3f76db2336a","F1","batch6","spm_respsonse","2439.800000011921","img/question_4_1.jpeg","2","mat_37","3","1","1","2439.800000011921","","","","","","","","","","","","","","","","","","","","",""
"","","","","","html-keyboard-response","79","229612","0.0-2.0-4.0-0.13","63cb23389133d3f76db2336a","F1","batch6","spm_show_trial_num","null","<p class=block-text>Trial 38 out of 60</p>","null","","","","","","","","","","","","","","","","","","","","","","","","","",""
"","","","","","image-button-response","80","232527","0.0-2.0-4.0-1.13","63cb23389133d3f76db2336a","F1","batch6","spm_respsonse","2912.7000000178814","img/question_4_2.jpeg","3","mat_38","4","1","1","2912.7000000178814","","","","","","","","","","","","","","","","","","","","",""
"","","","","","html-keyboard-response","81","233587","0.0-2.0-4.0-0.14","63cb23389133d3f76db2336a","F1","batch6","spm_show_trial_num","null","<p class=block-text>Trial 39 out of 60</p>","null","","","","","","","","","","","","","","","","","","","","","","","","","",""
"","","","","","image-button-response","82","237310","0.0-2.0-4.0-1.14","63cb23389133d3f76db2336a","F1","batch6","spm_respsonse","3720.5999999940395","img/question_4_3.jpeg","2","mat_39","3","1","1","3720.5999999940395","","","","","","","","","","","","","","","","","","","","",""
"","","","","","html-keyboard-response","83","238378","0.0-2.0-4.0-0.15","63cb23389133d3f76db2336a","F1","batch6","spm_show_trial_num","null","<p class=block-text>Trial 40 out of 60</p>","null","","","","","","","","","","","","","","","","","","","","","","","","","",""
"","","","","","image-button-response","84","243427","0.0-2.0-4.0-1.15","63cb23389133d3f76db2336a","F1","batch6","spm_respsonse","5045.300000011921","img/question_4_4.jpeg","6","mat_40","7","1","1","5045.300000011921","","","","","","","","","","","","","","","","","","","","",""
"","","","","","html-keyboard-response","85","244488","0.0-2.0-4.0-0.16","63cb23389133d3f76db2336a","F1","batch6","spm_show_trial_num","null","<p class=block-text>Trial 41 out of 60</p>","null","","","","","","","","","","","","","","","","","","","","","","","","","",""
"","","","","","image-button-response","86","248878","0.0-2.0-4.0-1.16","63cb23389133d3f76db2336a","F1","batch6","spm_respsonse","4387.9000000059605","img/question_4_5.jpeg","7","mat_41","8","1","1","4387.9000000059605","","","","","","","","","","","","","","","","","","","","",""
"","","","","","html-keyboard-response","87","249945","0.0-2.0-4.0-0.17","63cb23389133d3f76db2336a","F1","batch6","spm_show_trial_num","null","<p class=block-text>Trial 42 out of 60</p>","null","","","","","","","","","","","","","","","","","","","","","","","","","",""
"","","","","","image-button-response","88","257347","0.0-2.0-4.0-1.17","63cb23389133d3f76db2336a","F1","batch6","spm_respsonse","7399.9000000059605","img/question_4_6.jpeg","5","mat_42","6","1","1","7399.9000000059605","","","","","","","","","","","","","","","","","","","","",""
"","","","","","html-keyboard-response","89","258411","0.0-2.0-4.0-0.18","63cb23389133d3f76db2336a","F1","batch6","spm_show_trial_num","null","<p class=block-text>Trial 43 out of 60</p>","null","","","","","","","","","","","","","","","","","","","","","","","","","",""
"","","","","","image-button-response","90","272828","0.0-2.0-4.0-1.18","63cb23389133d3f76db2336a","F1","batch6","spm_respsonse","14414.300000011921","img/question_4_7.jpeg","7","mat_43","5","0","0","14414.300000011921","","","","","","","","","","","","","","","","","","","","",""
"","","","","","html-keyboard-response","91","273893","0.0-2.0-4.0-0.19","63cb23389133d3f76db2336a","F1","batch6","spm_show_trial_num","null","<p class=block-text>Trial 44 out of 60</p>","null","","","","","","","","","","","","","","","","","","","","","","","","","",""
"","","","","","image-button-response","92","277238","0.0-2.0-4.0-1.19","63cb23389133d3f76db2336a","F1","batch6","spm_respsonse","3343.0999999940395","img/question_4_8.jpeg","3","mat_44","4","1","1","3343.0999999940395","","","","","","","","","","","","","","","","","","","","",""
"","","","","","html-keyboard-response","93","278305","0.0-2.0-4.0-0.20","63cb23389133d3f76db2336a","F1","batch6","spm_show_trial_num","null","<p class=block-text>Trial 45 out of 60</p>","null","","","","","","","","","","","","","","","","","","","","","","","","","",""
"","","","","","image-button-response","94","287076","0.0-2.0-4.0-1.20","63cb23389133d3f76db2336a","F1","batch6","spm_respsonse","8768.59999999404","img/question_4_9.jpeg","0","mat_45","1","1","1","8768.59999999404","","","","","","","","","","","","","","","","","","","","",""
"","","","","","html-keyboard-response","95","288145","0.0-2.0-4.0-0.21","63cb23389133d3f76db2336a","F1","batch6","spm_show_trial_num","null","<p class=block-text>Trial 46 out of 60</p>","null","","","","","","","","","","","","","","","","","","","","","","","","","",""
"","","","","","image-button-response","96","302872","0.0-2.0-4.0-1.21","63cb23389133d3f76db2336a","F1","batch6","spm_respsonse","14725.09999999404","img/question_4_10.jpeg","1","mat_46","2","1","1","14725.09999999404","","","","","","","","","","","","","","","","","","","","",""
"","","","","","html-keyboard-response","97","303936","0.0-2.0-4.0-0.22","63cb23389133d3f76db2336a","F1","batch6","spm_show_trial_num","null","<p class=block-text>Trial 47 out of 60</p>","null","","","","","","","","","","","","","","","","","","","","","","","","","",""
"","","","","","image-button-response","98","322086","0.0-2.0-4.0-1.22","63cb23389133d3f76db2336a","F1","batch6","spm_respsonse","18148.69999998808","img/question_4_11.jpeg","4","mat_47","5","1","1","18148.69999998808","","","","","","","","","","","","","","","","","","","","",""
"","","","","","html-keyboard-response","99","323152","0.0-2.0-4.0-0.23","63cb23389133d3f76db2336a","F1","batch6","spm_show_trial_num","null","<p class=block-text>Trial 48 out of 60</p>","null","","","","","","","","","","","","","","","","","","","","","","","","","",""
"","","","","","image-button-response","100","346369","0.0-2.0-4.0-1.23","63cb23389133d3f76db2336a","F1","batch6","spm_respsonse","23215.20000001788","img/question_4_12.jpeg","4","mat_48","6","0","0","23215.20000001788","","","","","","","","","","","","","","","","","","","","",""
"","","","","","html-keyboard-response","101","347428","0.0-2.0-4.0-0.24","63cb23389133d3f76db2336a","F1","batch6","spm_show_trial_num","null","<p class=block-text>Trial 49 out of 60</p>","null","","","","","","","","","","","","","","","","","","","","","","","","","",""
"","","","","","image-button-response","102","363893","0.0-2.0-4.0-1.24","63cb23389133d3f76db2336a","F1","batch6","spm_respsonse","16463.30000001192","img/question_5_1.jpeg","6","mat_49","7","1","1","16463.30000001192","","","","","","","","","","","","","","","","","","","","",""
"","","","","","html-keyboard-response","103","364958","0.0-2.0-4.0-0.25","63cb23389133d3f76db2336a","F1","batch6","spm_show_trial_num","null","<p class=block-text>Trial 50 out of 60</p>","null","","","","","","","","","","","","","","","","","","","","","","","","","",""
"","","","","","image-button-response","104","375144","0.0-2.0-4.0-1.25","63cb23389133d3f76db2336a","F1","batch6","spm_respsonse","10184.600000023842","img/question_5_2.jpeg","7","mat_50","6","0","0","10184.600000023842","","","","","","","","","","","","","","","","","","","","",""
"","","","","","html-keyboard-response","105","376205","0.0-2.0-4.0-0.26","63cb23389133d3f76db2336a","F1","batch6","spm_show_trial_num","null","<p class=block-text>Trial 51 out of 60</p>","null","","","","","","","","","","","","","","","","","","","","","","","","","",""
"","","","","","image-button-response","106","384664","0.0-2.0-4.0-1.26","63cb23389133d3f76db2336a","F1","batch6","spm_respsonse","8456.799999982119","img/question_5_3.jpeg","7","mat_51","8","1","1","8456.799999982119","","","","","","","","","","","","","","","","","","","","",""
"","","","","","html-keyboard-response","107","385732","0.0-2.0-4.0-0.27","63cb23389133d3f76db2336a","F1","batch6","spm_show_trial_num","null","<p class=block-text>Trial 52 out of 60</p>","null","","","","","","","","","","","","","","","","","","","","","","","","","",""
"","","","","","image-button-response","108","393321","0.0-2.0-4.0-1.27","63cb23389133d3f76db2336a","F1","batch6","spm_respsonse","7586.699999988079","img/question_5_4.jpeg","7","mat_52","2","0","0","7586.699999988079","","","","","","","","","","","","","","","","","","","","",""
"","","","","","html-keyboard-response","109","394388","0.0-2.0-4.0-0.28","63cb23389133d3f76db2336a","F1","batch6","spm_show_trial_num","null","<p class=block-text>Trial 53 out of 60</p>","null","","","","","","","","","","","","","","","","","","","","","","","","","",""
"","","","","","image-button-response","110","415834","0.0-2.0-4.0-1.28","63cb23389133d3f76db2336a","F1","batch6","spm_respsonse","21443.69999998808","img/question_5_5.jpeg","0","mat_53","1","1","1","21443.69999998808","","","","","","","","","","","","","","","","","","","","",""
"","","","","","html-keyboard-response","111","416897","0.0-2.0-4.0-0.29","63cb23389133d3f76db2336a","F1","batch6","spm_show_trial_num","null","<p class=block-text>Trial 54 out of 60</p>","null","","","","","","","","","","","","","","","","","","","","","","","","","",""
"","","","","","image-button-response","112","427551","0.0-2.0-4.0-1.29","63cb23389133d3f76db2336a","F1","batch6","spm_respsonse","10650.899999976158","img/question_5_6.jpeg","4","mat_54","5","1","1","10650.899999976158","","","","","","","","","","","","","","","","","","","","",""
"","","","","","html-keyboard-response","113","428620","0.0-2.0-4.0-0.30","63cb23389133d3f76db2336a","F1","batch6","spm_show_trial_num","null","<p class=block-text>Trial 55 out of 60</p>","null","","","","","","","","","","","","","","","","","","","","","","","","","",""
"","","","","","image-button-response","114","447680","0.0-2.0-4.0-1.30","63cb23389133d3f76db2336a","F1","batch6","spm_respsonse","19057.20000001788","img/question_5_7.jpeg","2","mat_55","1","0","0","19057.20000001788","","","","","","","","","","","","","","","","","","","","",""
"","","","","","html-keyboard-response","115","448744","0.0-2.0-4.0-0.31","63cb23389133d3f76db2336a","F1","batch6","spm_show_trial_num","null","<p class=block-text>Trial 56 out of 60</p>","null","","","","","","","","","","","","","","","","","","","","","","","","","",""
"","","","","","image-button-response","116","462559","0.0-2.0-4.0-1.31","63cb23389133d3f76db2336a","F1","batch6","spm_respsonse","13813.09999999404","img/question_5_8.jpeg","7","mat_56","6","0","0","13813.09999999404","","","","","","","","","","","","","","","","","","","","",""
"","","","","","html-keyboard-response","117","463615","0.0-2.0-4.0-0.32","63cb23389133d3f76db2336a","F1","batch6","spm_show_trial_num","null","<p class=block-text>Trial 57 out of 60</p>","null","","","","","","","","","","","","","","","","","","","","","","","","","",""
"","","","","","image-button-response","118","474812","0.0-2.0-4.0-1.32","63cb23389133d3f76db2336a","F1","batch6","spm_respsonse","11194.90000000596","img/question_5_9.jpeg","0","mat_57","3","0","0","11194.90000000596","","","","","","","","","","","","","","","","","","","","",""
"","","","","","html-keyboard-response","119","475878","0.0-2.0-4.0-0.33","63cb23389133d3f76db2336a","F1","batch6","spm_show_trial_num","null","<p class=block-text>Trial 58 out of 60</p>","null","","","","","","","","","","","","","","","","","","","","","","","","","",""
"","","","","","image-button-response","120","488960","0.0-2.0-4.0-1.33","63cb23389133d3f76db2336a","F1","batch6","spm_respsonse","13080.600000023842","img/question_5_10.jpeg","5","mat_58","2","0","0","13080.600000023842","","","","","","","","","","","","","","","","","","","","",""
"","","","","","html-keyboard-response","121","490024","0.0-2.0-4.0-0.34","63cb23389133d3f76db2336a","F1","batch6","spm_show_trial_num","null","<p class=block-text>Trial 59 out of 60</p>","null","","","","","","","","","","","","","","","","","","","","","","","","","",""
"","","","","","image-button-response","122","530928","0.0-2.0-4.0-1.34","63cb23389133d3f76db2336a","F1","batch6","spm_respsonse","40902.80000001192","img/question_5_11.jpeg","6","mat_59","4","0","0","40902.80000001192","","","","","","","","","","","","","","","","","","","","",""
"","","","","","html-keyboard-response","123","531991","0.0-2.0-4.0-0.35","63cb23389133d3f76db2336a","F1","batch6","spm_show_trial_num","null","<p class=block-text>Trial 60 out of 60</p>","null","","","","","","","","","","","","","","","","","","","","","","","","","",""
"","","","","","image-button-response","124","539565","0.0-2.0-4.0-1.35","63cb23389133d3f76db2336a","F1","batch6","spm_respsonse","7572.0999999940395","img/question_5_12.jpeg","4","mat_60","5","1","1","7572.0999999940395","","","","","","","","","","","","","","","","","","","","",""
"","","","","","html-button-response","125","541023","0.0-2.0-5.0","63cb23389133d3f76db2336a","F1","batch6","spm_goodbye","1200.9000000059605","<p class= block-text>This concludes the Standard Progressive Matrix game. Thank you for your responses!<br> When you are ready, click the button continue</p>","0","","","","","","","","","","","","","","","","","","","","","","","","","",""
"true","","","","","fullscreen","126","544102","0.0-3.0-0.0","63cb23389133d3f76db2336a","F1","batch6","","","","","","","","","","","","","","","","","","","","","","","","","","","","","",""
"","","","","","instructions","127","565112","0.0-3.0-1.0-0.0-0.0","63cb23389133d3f76db2336a","F1","batch6","tol-instructions","21009.20000001788","","","","","","","","[{""page_index"":0,""viewing_time"":4058.4000000059605},{""page_index"":1,""viewing_time"":2609.7000000178814},{""page_index"":2,""viewing_time"":1245},{""page_index"":3,""viewing_time"":5384.5999999940395},{""page_index"":4,""viewing_time"":2958.5},{""page_index"":5,""viewing_time"":3521.7999999821186},{""page_index"":6,""viewing_time"":1230.7000000178814}]","","","","","","","","","","","","","","","","","","","",""
"","","","","","html-button-response","128","566161","0.0-3.0-1.0-1.0-0.0","63cb23389133d3f76db2336a","F1","batch6","tol_enter_quiz","1048.4000000059605","<p class=block-text> Let's answer a few questions <br>","0","","","","","","","","","","","","","","","","","","","","","","","","","",""
"","","","","","html-button-response","129","569072","0.0-3.0-1.0-1.0-1.0","63cb23389133d3f76db2336a","F1","batch6","tol_quiz","2909","<p class = block-text>True or False: You can only move the ball on top of a peg. <br></p>","0","","","true","","","","","","","","","","","","","","","","","","","","","","",""
"","","","","","html-button-response","130","569945","0.0-3.0-1.0-1.0-2.0","63cb23389133d3f76db2336a","F1","batch6","tol_quiz_feedback","870.1999999880791","<p class = block-text>Correct! You can only move the ball on top of a peg.</p>","0","","","","","","","","","","","","","","","","","","","","","","","","","",""
"","","","","","html-button-response","131","572179","0.0-3.0-1.0-1.0-3.0","63cb23389133d3f76db2336a","F1","batch6","tol_quiz","2233.199999988079","<p class = block-text>True or False: You should try to match your board with the target board with fewest moves possible. <br></p>","0","","","true","","","","","","","","","","","","","","","","","","","","","","",""
"","","","","","html-button-response","132","572671","0.0-3.0-1.0-1.0-4.0","63cb23389133d3f76db2336a","F1","batch6","tol_quiz_feedback","490.7000000178814","<p class = block-text>Correct! </p>","0","","","","","","","","","","","","","","","","","","","","","","","","","",""
"","","","","","html-button-response","133","573736","0.0-3.0-2.0","63cb23389133d3f76db2336a","F1","batch6","","1061.9000000059605","<p class=block-text> Now that you've understood the game, let's practice a few easier examples before we start!<br> <br>","0","","","","","","","","","","","","","","","","","","","","","","","","","",""
"","","","","","single-stim-button","134","575945","0.0-3.0-3.0-0.0","63cb23389133d3f76db2336a","F1","batch6","tol_practice","2207","","","","","","","","","tol_peg_2","2207","2207","0","[[1,2,0],[0,0],[0]]","1","[[1,2,0],[0,0],[3]]","practice","2207","","","","","","","","","","",""
"","","","","","single-stim-button","135","578313","0.0-3.0-3.0-1.0","63cb23389133d3f76db2336a","F1","batch6","tol_practice","2366","","","","","","","","","tol_peg_3","2366","2366","0","[[1,2,0],[0,0],[3]]","1","[[1,2,0],[0,0],[3]]","practice","2366","","","","","","","","","","",""
"","","","","","poldrack-single-stim","136","579318","0.0-3.0-4.0","63cb23389133d3f76db2336a","F1","batch6","tol_feedback","-1","","","","","true","","","","","1000","1000","500","","","","","","-1","none","true","","0","","","","","",""
"","","","","","single-stim-button","137","582315","0.0-3.0-5.0-0.0","63cb23389133d3f76db2336a","F1","batch6","tol_practice","2996","","","","","","","","","tol_peg_1","2996","2996","0","[[1,0,0],[3,0],[0]]","2","[[0,0,0],[3,1],[2]]","practice","2996","","","","","","","","","","",""
"","","","","","single-stim-button","138","582979","0.0-3.0-5.0-1.0","63cb23389133d3f76db2336a","F1","batch6","tol_practice","662","","","","","","","","","tol_peg_3","662","662","0","[[1,0,0],[3,0],[2]]","2","[[0,0,0],[3,1],[2]]","practice","662","","","","","","","","","","",""
"","","","","","single-stim-button","139","584265","0.0-3.0-5.1-0.1","63cb23389133d3f76db2336a","F1","batch6","tol_practice","1286","","","","","","","","","tol_peg_1","1286","1286","0","[[0,0,0],[3,0],[2]]","3","[[0,0,0],[3,1],[2]]","practice","1286","","","","","","","","","","",""
"","","","","","single-stim-button","140","585001","0.0-3.0-5.1-1.1","63cb23389133d3f76db2336a","F1","batch6","tol_practice","734","","","","","","","","","tol_peg_2","734","734","0","[[0,0,0],[3,1],[2]]","3","[[0,0,0],[3,1],[2]]","practice","734","","","","","","","","","","",""
"","","","","","poldrack-single-stim","141","586013","0.0-3.0-6.0","63cb23389133d3f76db2336a","F1","batch6","tol_feedback","-1","","","","","true","","","","","1000","1000","500","","","","","","-1","none","true","","0","","","","","",""
"","","","","","single-stim-button","142","587746","0.0-3.0-7.0-0.0","63cb23389133d3f76db2336a","F1","batch6","tol_practice","1733","","","","","","","","","tol_peg_2","1733","1733","0","[[1,2,0],[0,0],[0]]","4","[[1,0,0],[2,0],[3]]","practice","1733","","","","","","","","","","",""
"","","","","","single-stim-button","143","588856","0.0-3.0-7.0-1.0","63cb23389133d3f76db2336a","F1","batch6","tol_practice","1108","","","","","","","","","tol_peg_3","1108","1108","0","[[1,2,0],[0,0],[3]]","4","[[1,0,0],[2,0],[3]]","practice","1108","","","","","","","","","","",""
"","","","","","single-stim-button","144","589772","0.0-3.0-7.1-0.1","63cb23389133d3f76db2336a","F1","batch6","tol_practice","914","","","","","","","","","tol_peg_1","914","914","0","[[1,0,0],[0,0],[3]]","5","[[1,0,0],[2,0],[3]]","practice","914","","","","","","","","","","",""
"","","","","","single-stim-button","145","590930","0.0-3.0-7.1-1.1","63cb23389133d3f76db2336a","F1","batch6","tol_practice","1156","","","","","","","","","tol_peg_2","1156","1156","0","[[1,0,0],[2,0],[3]]","5","[[1,0,0],[2,0],[3]]","practice","1156","","","","","","","","","","",""
"","","","","","poldrack-single-stim","146","591940","0.0-3.0-8.0","63cb23389133d3f76db2336a","F1","batch6","tol_feedback","-1","","","","","true","","","","","1000","1000","500","","","","","","-1","none","true","","0","","","","","",""
"","","","","","html-button-response","147","593236","0.0-3.0-9.0","63cb23389133d3f76db2336a","F1","batch6","tol_instruction","1294.5","<div class = centerbox><p class = center-block-text>Great job! You are done with practice trials<br>You are about to start official trials.<br> <br> Problem <strong>1</strong> out of 25 problems</p></div>","0","","","","","","","","","","","","","","","","","","","","","","","","","",""
"","","","","","single-stim-button","148","597331","0.0-3.0-10.0-0.0","63cb23389133d3f76db2336a","F1","batch6","tol_tohand","3086","","","","","","","","","tol_peg_1","3086","3086","0","[[1,0,0],[3,0],[0]]","1","[[1,3,0],[2,0],[0]]","0","0","","","","","","3","","","","",""
"","","","","","single-stim-button","149","598920","0.0-3.0-10.0-1.0","63cb23389133d3f76db2336a","F1","batch6","tol_toboard","1589","","","","","","","","","tol_peg_3","1589","1589","0","[[1,0,0],[3,0],[2]]","1","[[1,3,0],[2,0],[0]]","0","0","","","","","","3","","","","",""
"","","","","","single-stim-button","150","599565","0.0-3.0-10.1-0.1","63cb23389133d3f76db2336a","F1","batch6","tol_tohand","643","","","","","","","","","tol_peg_2","643","643","0","[[1,0,0],[0,0],[2]]","2","[[1,3,0],[2,0],[0]]","0","0","","","","","","3","","","","",""
"","","","","","single-stim-button","151","600571","0.0-3.0-10.1-1.1","63cb23389133d3f76db2336a","F1","batch6","tol_toboard","1006","","","","","","","","","tol_peg_1","1006","1006","0","[[1,3,0],[0,0],[2]]","2","[[1,3,0],[2,0],[0]]","0","0","","","","","","3","","","","",""
"","","","","","single-stim-button","152","601396","0.0-3.0-10.2-0.2","63cb23389133d3f76db2336a","F1","batch6","tol_tohand","823","","","","","","","","","tol_peg_3","823","823","0","[[1,3,0],[0,0],[0]]","3","[[1,3,0],[2,0],[0]]","0","0","","","","","","3","","","","",""
"","","","","","single-stim-button","153","602495","0.0-3.0-10.2-1.2","63cb23389133d3f76db2336a","F1","batch6","tol_toboard","1099","","","","","","","","","tol_peg_2","1099","1099","0","[[1,3,0],[2,0],[0]]","3","[[1,3,0],[2,0],[0]]","0","0","","","","","","3","","","","",""
"","","","","","poldrack-single-stim","154","603508","0.0-3.0-11.0","63cb23389133d3f76db2336a","F1","batch6","tol_feedback","-1","","","","","true","","","","","1000","1000","500","","","","","","-1","none","true","3086","4552","","","","","",""
"","","","","","html-button-response","155","604680","0.0-3.0-12.0","63cb23389133d3f76db2336a","F1","batch6","tol_trial_num","1170.5999999940395","<div class = centerbox><p class = center-block-text>problem <strong>2</strong> out of 25 problems</p></div>","0","","","","","","","","","","","","","","","","","","","","","","","","","",""
"","","","","","single-stim-button","156","606996","0.0-3.0-13.0-0.0","63cb23389133d3f76db2336a","F1","batch6","tol_tohand","2314","","","","","","","","","tol_peg_1","2314","2314","0","[[1,0,0],[3,0],[0]]","1","[[2,1,3],[0,0],[0]]","1","0","","","","","","5","","","","",""
"","","","","","single-stim-button","157","610817","0.0-3.0-13.0-1.0","63cb23389133d3f76db2336a","F1","batch6","tol_toboard","3820","","","","","","","","","tol_peg_3","3820","3820","0","[[1,0,0],[3,0],[2]]","1","[[2,1,3],[0,0],[0]]","1","0","","","","","","5","","","","",""
"","","","","","single-stim-button","158","611655","0.0-3.0-13.1-0.1","63cb23389133d3f76db2336a","F1","batch6","tol_tohand","837","","","","","","","","","tol_peg_1","837","837","0","[[0,0,0],[3,0],[2]]","2","[[2,1,3],[0,0],[0]]","1","0","","","","","","5","","","","",""
"","","","","","single-stim-button","159","614552","0.0-3.0-13.1-1.1","63cb23389133d3f76db2336a","F1","batch6","tol_toboard","2895","","","","","","","","","tol_peg_2","2895","2895","0","[[0,0,0],[3,1],[2]]","2","[[2,1,3],[0,0],[0]]","1","0","","","","","","5","","","","",""
"","","","","","single-stim-button","160","615395","0.0-3.0-13.2-0.2","63cb23389133d3f76db2336a","F1","batch6","tol_tohand","841","","","","","","","","","tol_peg_3","841","841","0","[[0,0,0],[3,1],[0]]","3","[[2,1,3],[0,0],[0]]","1","0","","","","","","5","","","","",""
"","","","","","single-stim-button","161","616113","0.0-3.0-13.2-1.2","63cb23389133d3f76db2336a","F1","batch6","tol_toboard","717","","","","","","","","","tol_peg_1","717","717","0","[[2,0,0],[3,1],[0]]","3","[[2,1,3],[0,0],[0]]","1","0","","","","","","5","","","","",""
"","","","","","single-stim-button","162","616695","0.0-3.0-13.3-0.3","63cb23389133d3f76db2336a","F1","batch6","tol_tohand","581","","","","","","","","","tol_peg_2","581","581","0","[[2,0,0],[3,0],[0]]","4","[[2,1,3],[0,0],[0]]","1","0","","","","","","5","","","","",""
"","","","","","single-stim-button","163","619050","0.0-3.0-13.3-1.3","63cb23389133d3f76db2336a","F1","batch6","tol_toboard","2355","","","","","","","","","tol_peg_1","2355","2355","0","[[2,1,0],[3,0],[0]]","4","[[2,1,3],[0,0],[0]]","1","0","","","","","","5","","","","",""
"","","","","","single-stim-button","164","619711","0.0-3.0-13.4-0.4","63cb23389133d3f76db2336a","F1","batch6","tol_tohand","660","","","","","","","","","tol_peg_2","660","660","0","[[2,1,0],[0,0],[0]]","5","[[2,1,3],[0,0],[0]]","1","0","","","","","","5","","","","",""
"","","","","","single-stim-button","165","620344","0.0-3.0-13.4-1.4","63cb23389133d3f76db2336a","F1","batch6","tol_toboard","633","","","","","","","","","tol_peg_1","633","633","0","[[2,1,3],[0,0],[0]]","5","[[2,1,3],[0,0],[0]]","1","0","","","","","","5","","","","",""
"","","","","","poldrack-single-stim","166","621355","0.0-3.0-14.0","63cb23389133d3f76db2336a","F1","batch6","tol_feedback","-1","","","","","true","","","","","1000","1000","500","","","","","","-1","none","true","2314","5233","","","","","",""
"","","","","","html-button-response","167","622215","0.0-3.0-15.0","63cb23389133d3f76db2336a","F1","batch6","tol_trial_num","858.5999999940395","<div class = centerbox><p class = center-block-text>problem <strong>3</strong> out of 25 problems</p></div>","0","","","","","","","","","","","","","","","","","","","","","","","","","",""
"","","","","","single-stim-button","168","626115","0.0-3.0-16.0-0.0","63cb23389133d3f76db2336a","F1","batch6","tol_tohand","3899","","","","","","","","","tol_peg_1","3899","3899","0","[[2,0,0],[0,0],[1]]","1","[[1,2,0],[3,0],[0]]","2","0","","","","","","4","","","","",""
"","","","","","single-stim-button","169","631746","0.0-3.0-16.0-1.0","63cb23389133d3f76db2336a","F1","batch6","tol_toboard","5631","","","","","","","","","tol_peg_2","5631","5631","0","[[2,0,0],[3,0],[1]]","1","[[1,2,0],[3,0],[0]]","2","0","","","","","","4","","","","",""
"","","","","","single-stim-button","170","633255","0.0-3.0-16.1-0.1","63cb23389133d3f76db2336a","F1","batch6","tol_tohand","1508","","","","","","","","","tol_peg_1","1508","1508","0","[[0,0,0],[3,0],[1]]","2","[[1,2,0],[3,0],[0]]","2","0","","","","","","4","","","","",""
"","","","","","single-stim-button","171","634413","0.0-3.0-16.1-1.1","63cb23389133d3f76db2336a","F1","batch6","tol_toboard","1157","","","","","","","","","tol_peg_2","1157","1157","0","[[0,0,0],[3,2],[1]]","2","[[1,2,0],[3,0],[0]]","2","0","","","","","","4","","","","",""
"","","","","","single-stim-button","172","635206","0.0-3.0-16.2-0.2","63cb23389133d3f76db2336a","F1","batch6","tol_tohand","791","","","","","","","","","tol_peg_3","791","791","0","[[0,0,0],[3,2],[0]]","3","[[1,2,0],[3,0],[0]]","2","0","","","","","","4","","","","",""
"","","","","","single-stim-button","173","636436","0.0-3.0-16.2-1.2","63cb23389133d3f76db2336a","F1","batch6","tol_toboard","1228","","","","","","","","","tol_peg_1","1228","1228","0","[[1,0,0],[3,2],[0]]","3","[[1,2,0],[3,0],[0]]","2","0","","","","","","4","","","","",""
"","","","","","single-stim-button","174","637065","0.0-3.0-16.3-0.3","63cb23389133d3f76db2336a","F1","batch6","tol_tohand","628","","","","","","","","","tol_peg_2","628","628","0","[[1,0,0],[3,0],[0]]","4","[[1,2,0],[3,0],[0]]","2","0","","","","","","4","","","","",""
"","","","","","single-stim-button","175","637949","0.0-3.0-16.3-1.3","63cb23389133d3f76db2336a","F1","batch6","tol_toboard","883","","","","","","","","","tol_peg_1","883","883","0","[[1,2,0],[3,0],[0]]","4","[[1,2,0],[3,0],[0]]","2","0","","","","","","4","","","","",""
"","","","","","poldrack-single-stim","176","638961","0.0-3.0-17.0","63cb23389133d3f76db2336a","F1","batch6","tol_feedback","-1","","","","","true","","","","","1000","1000","500","","","","","","-1","none","true","3899","6826","","","","","",""
"","","","","","html-button-response","177","640428","0.0-3.0-18.0","63cb23389133d3f76db2336a","F1","batch6","tol_trial_num","1465.4000000059605","<div class = centerbox><p class = center-block-text>problem <strong>4</strong> out of 25 problems</p></div>","0","","","","","","","","","","","","","","","","","","","","","","","","","",""
"","","","","","single-stim-button","178","644235","0.0-3.0-19.0-0.0","63cb23389133d3f76db2336a","F1","batch6","tol_tohand","3806","","","","","","","","","tol_peg_2","3806","3806","0","[[3,0,0],[2,0],[0]]","1","[[3,0,0],[1,0],[2]]","3","0","","","","","","3","","","","",""
"","","","","","single-stim-button","179","645886","0.0-3.0-19.0-1.0","63cb23389133d3f76db2336a","F1","batch6","tol_toboard","1650","","","","","","","","","tol_peg_1","1650","1650","0","[[3,1,0],[2,0],[0]]","1","[[3,0,0],[1,0],[2]]","3","0","","","","","","3","","","","",""
"","","","","","single-stim-button","180","646395","0.0-3.0-19.1-0.1","63cb23389133d3f76db2336a","F1","batch6","tol_tohand","508","","","","","","","","","tol_peg_2","508","508","0","[[3,1,0],[0,0],[0]]","2","[[3,0,0],[1,0],[2]]","3","0","","","","","","3","","","","",""
"","","","","","single-stim-button","181","646862","0.0-3.0-19.1-1.1","63cb23389133d3f76db2336a","F1","batch6","tol_toboard","465","","","","","","","","","tol_peg_3","465","465","0","[[3,1,0],[0,0],[2]]","2","[[3,0,0],[1,0],[2]]","3","0","","","","","","3","","","","",""
"","","","","","single-stim-button","182","647645","0.0-3.0-19.2-0.2","63cb23389133d3f76db2336a","F1","batch6","tol_tohand","782","","","","","","","","","tol_peg_1","782","782","0","[[3,0,0],[0,0],[2]]","3","[[3,0,0],[1,0],[2]]","3","0","","","","","","3","","","","",""
"","","","","","single-stim-button","183","648300","0.0-3.0-19.2-1.2","63cb23389133d3f76db2336a","F1","batch6","tol_toboard","655","","","","","","","","","tol_peg_2","655","655","0","[[3,0,0],[1,0],[2]]","3","[[3,0,0],[1,0],[2]]","3","0","","","","","","3","","","","",""
"","","","","","poldrack-single-stim","184","649305","0.0-3.0-20.0","63cb23389133d3f76db2336a","F1","batch6","tol_feedback","-1","","","","","true","","","","","1000","1000","500","","","","","","-1","none","true","3806","5096","","","","","",""
"","","","","","html-button-response","185","650115","0.0-3.0-21.0","63cb23389133d3f76db2336a","F1","batch6","tol_trial_num","808.7000000178814","<div class = centerbox><p class = center-block-text>problem <strong>5</strong> out of 25 problems</p></div>","0","","","","","","","","","","","","","","","","","","","","","","","","","",""
"","","","","","single-stim-button","186","654164","0.0-3.0-22.0-0.0","63cb23389133d3f76db2336a","F1","batch6","tol_tohand","4049","","","","","","","","","tol_peg_3","4049","4049","0","[[1,0,0],[2,0],[0]]","1","[[0,0,0],[1,2],[3]]","4","0","","","","","","7","","","","",""
"","","","","","single-stim-button","187","655754","0.0-3.0-22.0-1.0","63cb23389133d3f76db2336a","F1","batch6","tol_toboard","1589","","","","","","","","","tol_peg_1","1589","1589","0","[[1,3,0],[2,0],[0]]","1","[[0,0,0],[1,2],[3]]","4","0","","","","","","7","","","","",""
"","","","","","single-stim-button","188","656250","0.0-3.0-22.1-0.1","63cb23389133d3f76db2336a","F1","batch6","tol_tohand","495","","","","","","","","","tol_peg_2","495","495","0","[[1,3,0],[0,0],[0]]","2","[[0,0,0],[1,2],[3]]","4","0","","","","","","7","","","","",""
"","","","","","single-stim-button","189","657694","0.0-3.0-22.1-1.1","63cb23389133d3f76db2336a","F1","batch6","tol_toboard","1444","","","","","","","","","tol_peg_3","1444","1444","0","[[1,3,0],[0,0],[2]]","2","[[0,0,0],[1,2],[3]]","4","0","","","","","","7","","","","",""
"","","","","","single-stim-button","190","658484","0.0-3.0-22.2-0.2","63cb23389133d3f76db2336a","F1","batch6","tol_tohand","789","","","","","","","","","tol_peg_1","789","789","0","[[1,0,0],[0,0],[2]]","3","[[0,0,0],[1,2],[3]]","4","0","","","","","","7","","","","",""
"","","","","","single-stim-button","191","661278","0.0-3.0-22.2-1.2","63cb23389133d3f76db2336a","F1","batch6","tol_toboard","2792","","","","","","","","","tol_peg_2","2792","2792","0","[[1,0,0],[3,0],[2]]","3","[[0,0,0],[1,2],[3]]","4","0","","","","","","7","","","","",""
"","","","","","single-stim-button","192","661799","0.0-3.0-22.3-0.3","63cb23389133d3f76db2336a","F1","batch6","tol_tohand","521","","","","","","","","","tol_peg_1","521","521","0","[[0,0,0],[3,0],[2]]","4","[[0,0,0],[1,2],[3]]","4","0","","","","","","7","","","","",""
"","","","","","single-stim-button","193","666213","0.0-3.0-22.3-1.3","63cb23389133d3f76db2336a","F1","batch6","tol_toboard","4413","","","","","","","","","tol_peg_2","4413","4413","0","[[0,0,0],[3,1],[2]]","4","[[0,0,0],[1,2],[3]]","4","0","","","","","","7","","","","",""
"","","","","","single-stim-button","194","666779","0.0-3.0-22.4-0.4","63cb23389133d3f76db2336a","F1","batch6","tol_tohand","564","","","","","","","","","tol_peg_3","564","564","0","[[0,0,0],[3,1],[0]]","5","[[0,0,0],[1,2],[3]]","4","0","","","","","","7","","","","",""
"","","","","","single-stim-button","195","667380","0.0-3.0-22.4-1.4","63cb23389133d3f76db2336a","F1","batch6","tol_toboard","599","","","","","","","","","tol_peg_1","599","599","0","[[2,0,0],[3,1],[0]]","5","[[0,0,0],[1,2],[3]]","4","0","","","","","","7","","","","",""
"","","","","","single-stim-button","196","667964","0.0-3.0-22.5-0.5","63cb23389133d3f76db2336a","F1","batch6","tol_tohand","584","","","","","","","","","tol_peg_2","584","584","0","[[2,0,0],[3,0],[0]]","6","[[0,0,0],[1,2],[3]]","4","0","","","","","","7","","","","",""
"","","","","","single-stim-button","197","671912","0.0-3.0-22.5-1.5","63cb23389133d3f76db2336a","F1","batch6","tol_toboard","3947","","","","","","","","","tol_peg_3","3947","3947","0","[[2,0,0],[3,0],[1]]","6","[[0,0,0],[1,2],[3]]","4","0","","","","","","7","","","","",""
"","","","","","single-stim-button","198","672378","0.0-3.0-22.6-0.6","63cb23389133d3f76db2336a","F1","batch6","tol_tohand","465","","","","","","","","","tol_peg_2","465","465","0","[[2,0,0],[0,0],[1]]","7","[[0,0,0],[1,2],[3]]","4","0","","","","","","7","","","","",""
"","","","","","single-stim-button","199","672961","0.0-3.0-22.6-1.6","63cb23389133d3f76db2336a","F1","batch6","tol_toboard","582","","","","","","","","","tol_peg_1","582","582","0","[[2,3,0],[0,0],[1]]","7","[[0,0,0],[1,2],[3]]","4","0","","","","","","7","","","","",""
"","","","","","single-stim-button","200","674011","0.0-3.0-22.7-0.7","63cb23389133d3f76db2336a","F1","batch6","tol_tohand","1049","","","","","","","","","tol_peg_3","1049","1049","0","[[2,3,0],[0,0],[0]]","8","[[0,0,0],[1,2],[3]]","4","0","","","","","","7","","","","",""
"","","","","","single-stim-button","201","674429","0.0-3.0-22.7-1.7","63cb23389133d3f76db2336a","F1","batch6","tol_toboard","417","","","","","","","","","tol_peg_2","417","417","0","[[2,3,0],[1,0],[0]]","8","[[0,0,0],[1,2],[3]]","4","0","","","","","","7","","","","",""
"","","","","","single-stim-button","202","675105","0.0-3.0-22.8-0.8","63cb23389133d3f76db2336a","F1","batch6","tol_tohand","674","","","","","","","","","tol_peg_1","674","674","0","[[2,0,0],[1,0],[0]]","9","[[0,0,0],[1,2],[3]]","4","0","","","","","","7","","","","",""
"","","","","","single-stim-button","203","675868","0.0-3.0-22.8-1.8","63cb23389133d3f76db2336a","F1","batch6","tol_toboard","762","","","","","","","","","tol_peg_3","762","762","0","[[2,0,0],[1,0],[3]]","9","[[0,0,0],[1,2],[3]]","4","0","","","","","","7","","","","",""
"","","","","","single-stim-button","204","676501","0.0-3.0-22.9-0.9","63cb23389133d3f76db2336a","F1","batch6","tol_tohand","631","","","","","","","","","tol_peg_1","631","631","0","[[0,0,0],[1,0],[3]]","10","[[0,0,0],[1,2],[3]]","4","0","","","","","","7","","","","",""
"","","","","","single-stim-button","205","677281","0.0-3.0-22.9-1.9","63cb23389133d3f76db2336a","F1","batch6","tol_toboard","779","","","","","","","","","tol_peg_2","779","779","0","[[0,0,0],[1,2],[3]]","10","[[0,0,0],[1,2],[3]]","4","0","","","","","","7","","","","",""
"","","","","","poldrack-single-stim","206","678285","0.0-3.0-23.0","63cb23389133d3f76db2336a","F1","batch6","tol_feedback","-1","","","","","true","","","","","1000","1000","500","","","","","","-1","none","true","4049","9821","","","","","",""
"","","","","","html-button-response","207","679213","0.0-3.0-24.0","63cb23389133d3f76db2336a","F1","batch6","tol_trial_num","927.5","<div class = centerbox><p class = center-block-text>problem <strong>6</strong> out of 25 problems</p></div>","0","","","","","","","","","","","","","","","","","","","","","","","","","",""
"","","","","","single-stim-button","208","682845","0.0-3.0-25.0-0.0","63cb23389133d3f76db2336a","F1","batch6","tol_tohand","3631","","","","","","","","","tol_peg_2","3631","3631","0","[[0,0,0],[1,0],[3]]","1","[[1,0,0],[2,3],[0]]","5","0","","","","","","6","","","","",""
"","","","","","single-stim-button","209","686549","0.0-3.0-25.0-1.0","63cb23389133d3f76db2336a","F1","batch6","tol_toboard","3702","","","","","","","","","tol_peg_2","3702","3702","0","[[0,0,0],[1,2],[3]]","1","[[1,0,0],[2,3],[0]]","5","0","","","","","","6","","","","",""
"","","","","","single-stim-button","210","688145","0.0-3.0-25.1-0.1","63cb23389133d3f76db2336a","F1","batch6","tol_tohand","1596","","","","","","","","","tol_peg_3","1596","1596","0","[[0,0,0],[1,2],[0]]","2","[[1,0,0],[2,3],[0]]","5","0","","","","","","6","","","","",""
"","","","","","single-stim-button","211","693418","0.0-3.0-25.1-1.1","63cb23389133d3f76db2336a","F1","batch6","tol_toboard","5272","","","","","","","","","tol_peg_3","5272","5272","0","[[0,0,0],[1,2],[3]]","2","[[1,0,0],[2,3],[0]]","5","0","","","","","","6","","","","",""
"","","","","","single-stim-button","212","694005","0.0-3.0-25.2-0.2","63cb23389133d3f76db2336a","F1","batch6","tol_tohand","585","","","","","","","","","tol_peg_2","585","585","0","[[0,0,0],[1,0],[3]]","3","[[1,0,0],[2,3],[0]]","5","0","","","","","","6","","","","",""
"","","","","","single-stim-button","213","694604","0.0-3.0-25.2-1.2","63cb23389133d3f76db2336a","F1","batch6","tol_toboard","598","","","","","","","","","tol_peg_1","598","598","0","[[2,0,0],[1,0],[3]]","3","[[1,0,0],[2,3],[0]]","5","0","","","","","","6","","","","",""
"","","","","","single-stim-button","214","695312","0.0-3.0-25.3-0.3","63cb23389133d3f76db2336a","F1","batch6","tol_tohand","707","","","","","","","","","tol_peg_2","707","707","0","[[2,0,0],[0,0],[3]]","4","[[1,0,0],[2,3],[0]]","5","0","","","","","","6","","","","",""
"","","","","","single-stim-button","215","696134","0.0-3.0-25.3-1.3","63cb23389133d3f76db2336a","F1","batch6","tol_toboard","822","","","","","","","","","tol_peg_1","822","822","0","[[2,1,0],[0,0],[3]]","4","[[1,0,0],[2,3],[0]]","5","0","","","","","","6","","","","",""
"","","","","","single-stim-button","216","696963","0.0-3.0-25.4-0.4","63cb23389133d3f76db2336a","F1","batch6","tol_tohand","827","","","","","","","","","tol_peg_3","827","827","0","[[2,1,0],[0,0],[0]]","5","[[1,0,0],[2,3],[0]]","5","0","","","","","","6","","","","",""
"","","","","","single-stim-button","217","697483","0.0-3.0-25.4-1.4","63cb23389133d3f76db2336a","F1","batch6","tol_toboard","520","","","","","","","","","tol_peg_2","520","520","0","[[2,1,0],[3,0],[0]]","5","[[1,0,0],[2,3],[0]]","5","0","","","","","","6","","","","",""
"","","","","","single-stim-button","218","698160","0.0-3.0-25.5-0.5","63cb23389133d3f76db2336a","F1","batch6","tol_tohand","676","","","","","","","","","tol_peg_1","676","676","0","[[2,0,0],[3,0],[0]]","6","[[1,0,0],[2,3],[0]]","5","0","","","","","","6","","","","",""
"","","","","","single-stim-button","219","699013","0.0-3.0-25.5-1.5","63cb23389133d3f76db2336a","F1","batch6","tol_toboard","852","","","","","","","","","tol_peg_3","852","852","0","[[2,0,0],[3,0],[1]]","6","[[1,0,0],[2,3],[0]]","5","0","","","","","","6","","","","",""
"","","","","","single-stim-button","220","699688","0.0-3.0-25.6-0.6","63cb23389133d3f76db2336a","F1","batch6","tol_tohand","674","","","","","","","","","tol_peg_1","674","674","0","[[0,0,0],[3,0],[1]]","7","[[1,0,0],[2,3],[0]]","5","0","","","","","","6","","","","",""
"","","","","","single-stim-button","221","700395","0.0-3.0-25.6-1.6","63cb23389133d3f76db2336a","F1","batch6","tol_toboard","706","","","","","","","","","tol_peg_2","706","706","0","[[0,0,0],[3,2],[1]]","7","[[1,0,0],[2,3],[0]]","5","0","","","","","","6","","","","",""
"","","","","","single-stim-button","222","701203","0.0-3.0-25.7-0.7","63cb23389133d3f76db2336a","F1","batch6","tol_tohand","807","","","","","","","","","tol_peg_3","807","807","0","[[0,0,0],[3,2],[0]]","8","[[1,0,0],[2,3],[0]]","5","0","","","","","","6","","","","",""
"","","","","","single-stim-button","223","702062","0.0-3.0-25.7-1.7","63cb23389133d3f76db2336a","F1","batch6","tol_toboard","858","","","","","","","","","tol_peg_1","858","858","0","[[1,0,0],[3,2],[0]]","8","[[1,0,0],[2,3],[0]]","5","0","","","","","","6","","","","",""
"","","","","","single-stim-button","224","702778","0.0-3.0-25.8-0.8","63cb23389133d3f76db2336a","F1","batch6","tol_tohand","715","","","","","","","","","tol_peg_2","715","715","0","[[1,0,0],[3,0],[0]]","9","[[1,0,0],[2,3],[0]]","5","0","","","","","","6","","","","",""
"","","","","","single-stim-button","225","703498","0.0-3.0-25.8-1.8","63cb23389133d3f76db2336a","F1","batch6","tol_toboard","719","","","","","","","","","tol_peg_3","719","719","0","[[1,0,0],[3,0],[2]]","9","[[1,0,0],[2,3],[0]]","5","0","","","","","","6","","","","",""
"","","","","","single-stim-button","226","704012","0.0-3.0-25.9-0.9","63cb23389133d3f76db2336a","F1","batch6","tol_tohand","514","","","","","","","","","tol_peg_2","514","514","0","[[1,0,0],[0,0],[2]]","10","[[1,0,0],[2,3],[0]]","5","0","","","","","","6","","","","",""
"","","","","","single-stim-button","227","704548","0.0-3.0-25.9-1.9","63cb23389133d3f76db2336a","F1","batch6","tol_toboard","535","","","","","","","","","tol_peg_1","535","535","0","[[1,3,0],[0,0],[2]]","10","[[1,0,0],[2,3],[0]]","5","0","","","","","","6","","","","",""
"","","","","","single-stim-button","228","705149","0.0-3.0-25.10-0.10","63cb23389133d3f76db2336a","F1","batch6","tol_tohand","599","","","","","","","","","tol_peg_3","599","599","0","[[1,3,0],[0,0],[0]]","11","[[1,0,0],[2,3],[0]]","5","0","","","","","","6","","","","",""
"","","","","","single-stim-button","229","705662","0.0-3.0-25.10-1.10","63cb23389133d3f76db2336a","F1","batch6","tol_toboard","512","","","","","","","","","tol_peg_2","512","512","0","[[1,3,0],[2,0],[0]]","11","[[1,0,0],[2,3],[0]]","5","0","","","","","","6","","","","",""
"","","","","","single-stim-button","230","706168","0.0-3.0-25.11-0.11","63cb23389133d3f76db2336a","F1","batch6","tol_tohand","506","","","","","","","","","tol_peg_1","506","506","0","[[1,0,0],[2,0],[0]]","12","[[1,0,0],[2,3],[0]]","5","0","","","","","","6","","","","",""
"","","","","","single-stim-button","231","706798","0.0-3.0-25.11-1.11","63cb23389133d3f76db2336a","F1","batch6","tol_toboard","629","","","","","","","","","tol_peg_2","629","629","0","[[1,0,0],[2,3],[0]]","12","[[1,0,0],[2,3],[0]]","5","0","","","","","","6","","","","",""
"","","","","","poldrack-single-stim","232","707805","0.0-3.0-26.0","63cb23389133d3f76db2336a","F1","batch6","tol_feedback","-1","","","","","true","","","","","1000","1000","500","","","","","","-1","none","true","3631","11837","","","","","",""
"","","","","","html-button-response","233","708345","0.0-3.0-27.0","63cb23389133d3f76db2336a","F1","batch6","tol_trial_num","539.6000000238419","<div class = centerbox><p class = center-block-text>problem <strong>7</strong> out of 25 problems</p></div>","0","","","","","","","","","","","","","","","","","","","","","","","","","",""
"","","","","","single-stim-button","234","711463","0.0-3.0-28.0-0.0","63cb23389133d3f76db2336a","F1","batch6","tol_tohand","3117","","","","","","","","","tol_peg_3","3117","3117","0","[[2,1,0],[0,0],[0]]","1","[[1,2,0],[3,0],[0]]","6","0","","","","","","5","","","","",""
"","","","","","single-stim-button","235","712603","0.0-3.0-28.0-1.0","63cb23389133d3f76db2336a","F1","batch6","tol_toboard","1139","","","","","","","","","tol_peg_2","1139","1139","0","[[2,1,0],[3,0],[0]]","1","[[1,2,0],[3,0],[0]]","6","0","","","","","","5","","","","",""
"","","","","","single-stim-button","236","713596","0.0-3.0-28.1-0.1","63cb23389133d3f76db2336a","F1","batch6","tol_tohand","991","","","","","","","","","tol_peg_1","991","991","0","[[2,0,0],[3,0],[0]]","2","[[1,2,0],[3,0],[0]]","6","0","","","","","","5","","","","",""
"","","","","","single-stim-button","237","714448","0.0-3.0-28.1-1.1","63cb23389133d3f76db2336a","F1","batch6","tol_toboard","852","","","","","","","","","tol_peg_2","852","852","0","[[2,0,0],[3,1],[0]]","2","[[1,2,0],[3,0],[0]]","6","0","","","","","","5","","","","",""
"","","","","","single-stim-button","238","714929","0.0-3.0-28.2-0.2","63cb23389133d3f76db2336a","F1","batch6","tol_tohand","479","","","","","","","","","tol_peg_1","479","479","0","[[0,0,0],[3,1],[0]]","3","[[1,2,0],[3,0],[0]]","6","0","","","","","","5","","","","",""
"","","","","","single-stim-button","239","715799","0.0-3.0-28.2-1.2","63cb23389133d3f76db2336a","F1","batch6","tol_toboard","869","","","","","","","","","tol_peg_3","869","869","0","[[0,0,0],[3,1],[2]]","3","[[1,2,0],[3,0],[0]]","6","0","","","","","","5","","","","",""
"","","","","","single-stim-button","240","716233","0.0-3.0-28.3-0.3","63cb23389133d3f76db2336a","F1","batch6","tol_tohand","434","","","","","","","","","tol_peg_2","434","434","0","[[0,0,0],[3,0],[2]]","4","[[1,2,0],[3,0],[0]]","6","0","","","","","","5","","","","",""
"","","","","","single-stim-button","241","717417","0.0-3.0-28.3-1.3","63cb23389133d3f76db2336a","F1","batch6","tol_toboard","1183","","","","","","","","","tol_peg_1","1183","1183","0","[[1,0,0],[3,0],[2]]","4","[[1,2,0],[3,0],[0]]","6","0","","","","","","5","","","","",""
"","","","","","single-stim-button","242","717946","0.0-3.0-28.4-0.4","63cb23389133d3f76db2336a","F1","batch6","tol_tohand","528","","","","","","","","","tol_peg_3","528","528","0","[[1,0,0],[3,0],[0]]","5","[[1,2,0],[3,0],[0]]","6","0","","","","","","5","","","","",""
"","","","","","single-stim-button","243","718428","0.0-3.0-28.4-1.4","63cb23389133d3f76db2336a","F1","batch6","tol_toboard","481","","","","","","","","","tol_peg_1","481","481","0","[[1,2,0],[3,0],[0]]","5","[[1,2,0],[3,0],[0]]","6","0","","","","","","5","","","","",""
"","","","","","poldrack-single-stim","244","719439","0.0-3.0-29.0","63cb23389133d3f76db2336a","F1","batch6","tol_feedback","-1","","","","","true","","","","","1000","1000","500","","","","","","-1","none","true","3117","5549","","","","","",""
"","","","","","html-button-response","245","720135","0.0-3.0-30.0","63cb23389133d3f76db2336a","F1","batch6","tol_trial_num","693.6999999880791","<div class = centerbox><p class = center-block-text>problem <strong>8</strong> out of 25 problems</p></div>","0","","","","","","","","","","","","","","","","","","","","","","","","","",""
"","","","","","single-stim-button","246","723045","0.0-3.0-31.0-0.0","63cb23389133d3f76db2336a","F1","batch6","tol_tohand","2909","","","","","","","","","tol_peg_2","2909","2909","0","[[0,0,0],[2,0],[1]]","1","[[1,2,0],[3,0],[0]]","7","0","","","","","","4","","","","",""
"","","","","","single-stim-button","247","724048","0.0-3.0-31.0-1.0","63cb23389133d3f76db2336a","F1","batch6","tol_toboard","1002","","","","","","","","","tol_peg_2","1002","1002","0","[[0,0,0],[2,3],[1]]","1","[[1,2,0],[3,0],[0]]","7","0","","","","","","4","","","","",""
"","","","","","single-stim-button","248","724829","0.0-3.0-31.1-0.1","63cb23389133d3f76db2336a","F1","batch6","tol_tohand","780","","","","","","","","","tol_peg_3","780","780","0","[[0,0,0],[2,3],[0]]","2","[[1,2,0],[3,0],[0]]","7","0","","","","","","4","","","","",""
"","","","","","single-stim-button","249","725612","0.0-3.0-31.1-1.1","63cb23389133d3f76db2336a","F1","batch6","tol_toboard","782","","","","","","","","","tol_peg_1","782","782","0","[[1,0,0],[2,3],[0]]","2","[[1,2,0],[3,0],[0]]","7","0","","","","","","4","","","","",""
"","","","","","single-stim-button","250","726012","0.0-3.0-31.2-0.2","63cb23389133d3f76db2336a","F1","batch6","tol_tohand","399","","","","","","","","","tol_peg_2","399","399","0","[[1,0,0],[2,0],[0]]","3","[[1,2,0],[3,0],[0]]","7","0","","","","","","4","","","","",""
"","","","","","single-stim-button","251","726434","0.0-3.0-31.2-1.2","63cb23389133d3f76db2336a","F1","batch6","tol_toboard","420","","","","","","","","","tol_peg_3","420","420","0","[[1,0,0],[2,0],[3]]","3","[[1,2,0],[3,0],[0]]","7","0","","","","","","4","","","","",""
"","","","","","single-stim-button","252","726988","0.0-3.0-31.3-0.3","63cb23389133d3f76db2336a","F1","batch6","tol_tohand","553","","","","","","","","","tol_peg_2","553","553","0","[[1,0,0],[0,0],[3]]","4","[[1,2,0],[3,0],[0]]","7","0","","","","","","4","","","","",""
"","","","","","single-stim-button","253","727829","0.0-3.0-31.3-1.3","63cb23389133d3f76db2336a","F1","batch6","tol_toboard","841","","","","","","","","","tol_peg_1","841","841","0","[[1,2,0],[0,0],[3]]","4","[[1,2,0],[3,0],[0]]","7","0","","","","","","4","","","","",""
"","","","","","single-stim-button","254","728339","0.0-3.0-31.4-0.4","63cb23389133d3f76db2336a","F1","batch6","tol_tohand","508","","","","","","","","","tol_peg_3","508","508","0","[[1,2,0],[0,0],[0]]","5","[[1,2,0],[3,0],[0]]","7","0","","","","","","4","","","","",""
"","","","","","single-stim-button","255","728878","0.0-3.0-31.4-1.4","63cb23389133d3f76db2336a","F1","batch6","tol_toboard","539","","","","","","","","","tol_peg_2","539","539","0","[[1,2,0],[3,0],[0]]","5","[[1,2,0],[3,0],[0]]","7","0","","","","","","4","","","","",""
"","","","","","poldrack-single-stim","256","729888","0.0-3.0-32.0","63cb23389133d3f76db2336a","F1","batch6","tol_feedback","-1","","","","","true","","","","","1000","1000","500","","","","","","-1","none","true","2909","5149","","","","","",""
"","","","","","html-button-response","257","731146","0.0-3.0-33.0","63cb23389133d3f76db2336a","F1","batch6","tol_trial_num","1256.300000011921","<div class = centerbox><p class = center-block-text>problem <strong>9</strong> out of 25 problems</p></div>","0","","","","","","","","","","","","","","","","","","","","","","","","","",""
"","","","","","single-stim-button","258","745889","0.0-3.0-34.0-0.0","63cb23389133d3f76db2336a","F1","batch6","tol_tohand","14743","","","","","","","","","tol_peg_1","14743","14743","0","[[3,0,0],[0,0],[1]]","1","[[2,1,0],[3,0],[0]]","8","0","","","","","","6","","","","",""
"","","","","","single-stim-button","259","746533","0.0-3.0-34.0-1.0","63cb23389133d3f76db2336a","F1","batch6","tol_toboard","643","","","","","","","","","tol_peg_2","643","643","0","[[3,0,0],[2,0],[1]]","1","[[2,1,0],[3,0],[0]]","8","0","","","","","","6","","","","",""
"","","","","","single-stim-button","260","747031","0.0-3.0-34.1-0.1","63cb23389133d3f76db2336a","F1","batch6","tol_tohand","497","","","","","","","","","tol_peg_3","497","497","0","[[3,0,0],[2,0],[0]]","2","[[2,1,0],[3,0],[0]]","8","0","","","","","","6","","","","",""
"","","","","","single-stim-button","261","747645","0.0-3.0-34.1-1.1","63cb23389133d3f76db2336a","F1","batch6","tol_toboard","613","","","","","","","","","tol_peg_2","613","613","0","[[3,0,0],[2,1],[0]]","2","[[2,1,0],[3,0],[0]]","8","0","","","","","","6","","","","",""
"","","","","","single-stim-button","262","748213","0.0-3.0-34.2-0.2","63cb23389133d3f76db2336a","F1","batch6","tol_tohand","566","","","","","","","","","tol_peg_1","566","566","0","[[0,0,0],[2,1],[0]]","3","[[2,1,0],[3,0],[0]]","8","0","","","","","","6","","","","",""
"","","","","","single-stim-button","263","748770","0.0-3.0-34.2-1.2","63cb23389133d3f76db2336a","F1","batch6","tol_toboard","556","","","","","","","","","tol_peg_3","556","556","0","[[0,0,0],[2,1],[3]]","3","[[2,1,0],[3,0],[0]]","8","0","","","","","","6","","","","",""
"","","","","","single-stim-button","264","749248","0.0-3.0-34.3-0.3","63cb23389133d3f76db2336a","F1","batch6","tol_tohand","478","","","","","","","","","tol_peg_2","478","478","0","[[0,0,0],[2,0],[3]]","4","[[2,1,0],[3,0],[0]]","8","0","","","","","","6","","","","",""
"","","","","","single-stim-button","265","751111","0.0-3.0-34.3-1.3","63cb23389133d3f76db2336a","F1","batch6","tol_toboard","1862","","","","","","","","","tol_peg_1","1862","1862","0","[[1,0,0],[2,0],[3]]","4","[[2,1,0],[3,0],[0]]","8","0","","","","","","6","","","","",""
"","","","","","single-stim-button","266","751737","0.0-3.0-34.4-0.4","63cb23389133d3f76db2336a","F1","batch6","tol_tohand","624","","","","","","","","","tol_peg_2","624","624","0","[[1,0,0],[0,0],[3]]","5","[[2,1,0],[3,0],[0]]","8","0","","","","","","6","","","","",""
"","","","","","single-stim-button","267","752762","0.0-3.0-34.4-1.4","63cb23389133d3f76db2336a","F1","batch6","tol_toboard","1025","","","","","","","","","tol_peg_1","1025","1025","0","[[1,2,0],[0,0],[3]]","5","[[2,1,0],[3,0],[0]]","8","0","","","","","","6","","","","",""
"","","","","","single-stim-button","268","753481","0.0-3.0-34.5-0.5","63cb23389133d3f76db2336a","F1","batch6","tol_tohand","717","","","","","","","","","tol_peg_3","717","717","0","[[1,2,0],[0,0],[0]]","6","[[2,1,0],[3,0],[0]]","8","0","","","","","","6","","","","",""
"","","","","","single-stim-button","269","754003","0.0-3.0-34.5-1.5","63cb23389133d3f76db2336a","F1","batch6","tol_toboard","522","","","","","","","","","tol_peg_2","522","522","0","[[1,2,0],[3,0],[0]]","6","[[2,1,0],[3,0],[0]]","8","0","","","","","","6","","","","",""
"","","","","","single-stim-button","270","754752","0.0-3.0-34.6-0.6","63cb23389133d3f76db2336a","F1","batch6","tol_tohand","748","","","","","","","","","tol_peg_1","748","748","0","[[1,0,0],[3,0],[0]]","7","[[2,1,0],[3,0],[0]]","8","0","","","","","","6","","","","",""
"","","","","","single-stim-button","271","755802","0.0-3.0-34.6-1.6","63cb23389133d3f76db2336a","F1","batch6","tol_toboard","1050","","","","","","","","","tol_peg_2","1050","1050","0","[[1,0,0],[3,2],[0]]","7","[[2,1,0],[3,0],[0]]","8","0","","","","","","6","","","","",""
"","","","","","single-stim-button","272","757577","0.0-3.0-34.7-0.7","63cb23389133d3f76db2336a","F1","batch6","tol_tohand","1774","","","","","","","","","tol_peg_1","1774","1774","0","[[0,0,0],[3,2],[0]]","8","[[2,1,0],[3,0],[0]]","8","0","","","","","","6","","","","",""
"","","","","","single-stim-button","273","758052","0.0-3.0-34.7-1.7","63cb23389133d3f76db2336a","F1","batch6","tol_toboard","474","","","","","","","","","tol_peg_3","474","474","0","[[0,0,0],[3,2],[1]]","8","[[2,1,0],[3,0],[0]]","8","0","","","","","","6","","","","",""
"","","","","","single-stim-button","274","758864","0.0-3.0-34.8-0.8","63cb23389133d3f76db2336a","F1","batch6","tol_tohand","811","","","","","","","","","tol_peg_2","811","811","0","[[0,0,0],[3,0],[1]]","9","[[2,1,0],[3,0],[0]]","8","0","","","","","","6","","","","",""
"","","","","","single-stim-button","275","759629","0.0-3.0-34.8-1.8","63cb23389133d3f76db2336a","F1","batch6","tol_toboard","764","","","","","","","","","tol_peg_1","764","764","0","[[2,0,0],[3,0],[1]]","9","[[2,1,0],[3,0],[0]]","8","0","","","","","","6","","","","",""
"","","","","","single-stim-button","276","760579","0.0-3.0-34.9-0.9","63cb23389133d3f76db2336a","F1","batch6","tol_tohand","949","","","","","","","","","tol_peg_3","949","949","0","[[2,0,0],[3,0],[0]]","10","[[2,1,0],[3,0],[0]]","8","0","","","","","","6","","","","",""
"","","","","","single-stim-button","277","761145","0.0-3.0-34.9-1.9","63cb23389133d3f76db2336a","F1","batch6","tol_toboard","566","","","","","","","","","tol_peg_1","566","566","0","[[2,1,0],[3,0],[0]]","10","[[2,1,0],[3,0],[0]]","8","0","","","","","","6","","","","",""
"","","","","","poldrack-single-stim","278","762148","0.0-3.0-35.0","63cb23389133d3f76db2336a","F1","batch6","tol_feedback","-1","","","","","true","","","","","1000","1000","500","","","","","","-1","none","true","14743","21907","","","","","",""
"","","","","","html-button-response","279","763262","0.0-3.0-36.0","63cb23389133d3f76db2336a","F1","batch6","tol_trial_num","1113.199999988079","<div class = centerbox><p class = center-block-text>problem <strong>10</strong> out of 25 problems</p></div>","0","","","","","","","","","","","","","","","","","","","","","","","","","",""
"","","","","","single-stim-button","280","766304","0.0-3.0-37.0-0.0","63cb23389133d3f76db2336a","F1","batch6","tol_tohand","3041","","","","","","","","","tol_peg_2","3041","3041","0","[[3,0,0],[0,0],[2]]","1","[[3,0,0],[2,1],[0]]","9","0","","","","","","3","","","","",""
"","","","","","single-stim-button","281","767653","0.0-3.0-37.0-1.0","63cb23389133d3f76db2336a","F1","batch6","tol_toboard","1348","","","","","","","","","tol_peg_1","1348","1348","0","[[3,1,0],[0,0],[2]]","1","[[3,0,0],[2,1],[0]]","9","0","","","","","","3","","","","",""
"","","","","","single-stim-button","282","768447","0.0-3.0-37.1-0.1","63cb23389133d3f76db2336a","F1","batch6","tol_tohand","793","","","","","","","","","tol_peg_3","793","793","0","[[3,1,0],[0,0],[0]]","2","[[3,0,0],[2,1],[0]]","9","0","","","","","","3","","","","",""
"","","","","","single-stim-button","283","769045","0.0-3.0-37.1-1.1","63cb23389133d3f76db2336a","F1","batch6","tol_toboard","597","","","","","","","","","tol_peg_2","597","597","0","[[3,1,0],[2,0],[0]]","2","[[3,0,0],[2,1],[0]]","9","0","","","","","","3","","","","",""
"","","","","","single-stim-button","284","769783","0.0-3.0-37.2-0.2","63cb23389133d3f76db2336a","F1","batch6","tol_tohand","736","","","","","","","","","tol_peg_1","736","736","0","[[3,0,0],[2,0],[0]]","3","[[3,0,0],[2,1],[0]]","9","0","","","","","","3","","","","",""
"","","","","","single-stim-button","285","770128","0.0-3.0-37.2-1.2","63cb23389133d3f76db2336a","F1","batch6","tol_toboard","345","","","","","","","","","tol_peg_2","345","345","0","[[3,0,0],[2,1],[0]]","3","[[3,0,0],[2,1],[0]]","9","0","","","","","","3","","","","",""
"","","","","","poldrack-single-stim","286","771132","0.0-3.0-38.0","63cb23389133d3f76db2336a","F1","batch6","tol_feedback","-1","","","","","true","","","","","1000","1000","500","","","","","","-1","none","true","3041","4570","","","","","",""
"","","","","","html-button-response","287","772033","0.0-3.0-39.0","63cb23389133d3f76db2336a","F1","batch6","tol_trial_num","899.1000000238419","<div class = centerbox><p class = center-block-text>problem <strong>11</strong> out of 25 problems</p></div>","0","","","","","","","","","","","","","","","","","","","","","","","","","",""
"","","","","","single-stim-button","288","774147","0.0-3.0-40.0-0.0","63cb23389133d3f76db2336a","F1","batch6","tol_tohand","2114","","","","","","","","","tol_peg_1","2114","2114","0","[[1,0,0],[3,0],[0]]","1","[[2,0,0],[1,3],[0]]","10","0","","","","","","6","","","","",""
"","","","","","single-stim-button","289","776368","0.0-3.0-40.0-1.0","63cb23389133d3f76db2336a","F1","batch6","tol_toboard","2220","","","","","","","","","tol_peg_3","2220","2220","0","[[1,0,0],[3,0],[2]]","1","[[2,0,0],[1,3],[0]]","10","0","","","","","","6","","","","",""
"","","","","","single-stim-button","290","782651","0.0-3.0-40.1-0.1","63cb23389133d3f76db2336a","F1","batch6","tol_tohand","6282","","","","","","","","","tol_peg_3","6282","6282","0","[[1,0,0],[3,0],[0]]","2","[[2,0,0],[1,3],[0]]","10","0","","","","","","6","","","","",""
"","","","","","single-stim-button","291","784529","0.0-3.0-40.1-1.1","63cb23389133d3f76db2336a","F1","batch6","tol_toboard","1876","","","","","","","","","tol_peg_2","1876","1876","0","[[1,0,0],[3,2],[0]]","2","[[2,0,0],[1,3],[0]]","10","0","","","","","","6","","","","",""
"","","","","","single-stim-button","292","785338","0.0-3.0-40.2-0.2","63cb23389133d3f76db2336a","F1","batch6","tol_tohand","807","","","","","","","","","tol_peg_1","807","807","0","[[0,0,0],[3,2],[0]]","3","[[2,0,0],[1,3],[0]]","10","0","","","","","","6","","","","",""
"","","","","","single-stim-button","293","786462","0.0-3.0-40.2-1.2","63cb23389133d3f76db2336a","F1","batch6","tol_toboard","1124","","","","","","","","","tol_peg_3","1124","1124","0","[[0,0,0],[3,2],[1]]","3","[[2,0,0],[1,3],[0]]","10","0","","","","","","6","","","","",""
"","","","","","single-stim-button","294","787064","0.0-3.0-40.3-0.3","63cb23389133d3f76db2336a","F1","batch6","tol_tohand","601","","","","","","","","","tol_peg_2","601","601","0","[[0,0,0],[3,0],[1]]","4","[[2,0,0],[1,3],[0]]","10","0","","","","","","6","","","","",""
"","","","","","single-stim-button","295","787797","0.0-3.0-40.3-1.3","63cb23389133d3f76db2336a","F1","batch6","tol_toboard","733","","","","","","","","","tol_peg_1","733","733","0","[[2,0,0],[3,0],[1]]","4","[[2,0,0],[1,3],[0]]","10","0","","","","","","6","","","","",""
"","","","","","single-stim-button","296","788517","0.0-3.0-40.4-0.4","63cb23389133d3f76db2336a","F1","batch6","tol_tohand","718","","","","","","","","","tol_peg_2","718","718","0","[[2,0,0],[0,0],[1]]","5","[[2,0,0],[1,3],[0]]","10","0","","","","","","6","","","","",""
"","","","","","single-stim-button","297","789297","0.0-3.0-40.4-1.4","63cb23389133d3f76db2336a","F1","batch6","tol_toboard","779","","","","","","","","","tol_peg_1","779","779","0","[[2,3,0],[0,0],[1]]","5","[[2,0,0],[1,3],[0]]","10","0","","","","","","6","","","","",""
"","","","","","single-stim-button","298","789867","0.0-3.0-40.5-0.5","63cb23389133d3f76db2336a","F1","batch6","tol_tohand","568","","","","","","","","","tol_peg_3","568","568","0","[[2,3,0],[0,0],[0]]","6","[[2,0,0],[1,3],[0]]","10","0","","","","","","6","","","","",""
"","","","","","single-stim-button","299","790228","0.0-3.0-40.5-1.5","63cb23389133d3f76db2336a","F1","batch6","tol_toboard","361","","","","","","","","","tol_peg_2","361","361","0","[[2,3,0],[1,0],[0]]","6","[[2,0,0],[1,3],[0]]","10","0","","","","","","6","","","","",""
"","","","","","single-stim-button","300","790784","0.0-3.0-40.6-0.6","63cb23389133d3f76db2336a","F1","batch6","tol_tohand","554","","","","","","","","","tol_peg_1","554","554","0","[[2,0,0],[1,0],[0]]","7","[[2,0,0],[1,3],[0]]","10","0","","","","","","6","","","","",""
"","","","","","single-stim-button","301","791461","0.0-3.0-40.6-1.6","63cb23389133d3f76db2336a","F1","batch6","tol_toboard","676","","","","","","","","","tol_peg_2","676","676","0","[[2,0,0],[1,3],[0]]","7","[[2,0,0],[1,3],[0]]","10","0","","","","","","6","","","","",""
"","","","","","poldrack-single-stim","302","792462","0.0-3.0-41.0","63cb23389133d3f76db2336a","F1","batch6","tol_feedback","-1","","","","","true","","","","","1000","1000","500","","","","","","-1","none","true","2114","11644","","","","","",""
"","","","","","html-button-response","303","793212","0.0-3.0-42.0","63cb23389133d3f76db2336a","F1","batch6","tol_trial_num","748.6999999880791","<div class = centerbox><p class = center-block-text>problem <strong>12</strong> out of 25 problems</p></div>","0","","","","","","","","","","","","","","","","","","","","","","","","","",""
"","","","","","single-stim-button","304","796467","0.0-3.0-43.0-0.0","63cb23389133d3f76db2336a","F1","batch6","tol_tohand","3253","","","","","","","","","tol_peg_1","3253","3253","0","[[1,0,0],[3,0],[0]]","1","[[2,3,0],[0,0],[1]]","11","0","","","","","","4","","","","",""
"","","","","","single-stim-button","305","797473","0.0-3.0-43.0-1.0","63cb23389133d3f76db2336a","F1","batch6","tol_toboard","1005","","","","","","","","","tol_peg_2","1005","1005","0","[[1,0,0],[3,2],[0]]","1","[[2,3,0],[0,0],[1]]","11","0","","","","","","4","","","","",""
"","","","","","single-stim-button","306","798117","0.0-3.0-43.1-0.1","63cb23389133d3f76db2336a","F1","batch6","tol_tohand","643","","","","","","","","","tol_peg_1","643","643","0","[[0,0,0],[3,2],[0]]","2","[[2,3,0],[0,0],[1]]","11","0","","","","","","4","","","","",""
"","","","","","single-stim-button","307","798853","0.0-3.0-43.1-1.1","63cb23389133d3f76db2336a","F1","batch6","tol_toboard","735","","","","","","","","","tol_peg_3","735","735","0","[[0,0,0],[3,2],[1]]","2","[[2,3,0],[0,0],[1]]","11","0","","","","","","4","","","","",""
"","","","","","single-stim-button","308","799412","0.0-3.0-43.2-0.2","63cb23389133d3f76db2336a","F1","batch6","tol_tohand","558","","","","","","","","","tol_peg_2","558","558","0","[[0,0,0],[3,0],[1]]","3","[[2,3,0],[0,0],[1]]","11","0","","","","","","4","","","","",""
"","","","","","single-stim-button","309","800174","0.0-3.0-43.2-1.2","63cb23389133d3f76db2336a","F1","batch6","tol_toboard","760","","","","","","","","","tol_peg_1","760","760","0","[[2,0,0],[3,0],[1]]","3","[[2,3,0],[0,0],[1]]","11","0","","","","","","4","","","","",""
"","","","","","single-stim-button","310","801061","0.0-3.0-43.3-0.3","63cb23389133d3f76db2336a","F1","batch6","tol_tohand","887","","","","","","","","","tol_peg_2","887","887","0","[[2,0,0],[0,0],[1]]","4","[[2,3,0],[0,0],[1]]","11","0","","","","","","4","","","","",""
"","","","","","single-stim-button","311","801763","0.0-3.0-43.3-1.3","63cb23389133d3f76db2336a","F1","batch6","tol_toboard","701","","","","","","","","","tol_peg_1","701","701","0","[[2,3,0],[0,0],[1]]","4","[[2,3,0],[0,0],[1]]","11","0","","","","","","4","","","","",""
"","","","","","poldrack-single-stim","312","802772","0.0-3.0-44.0","63cb23389133d3f76db2336a","F1","batch6","tol_feedback","-1","","","","","true","","","","","1000","1000","500","","","","","","-1","none","true","3253","5341","","","","","",""
"","","","","","html-button-response","313","803580","0.0-3.0-45.0","63cb23389133d3f76db2336a","F1","batch6","tol_trial_num","807.2999999821186","<div class = centerbox><p class = center-block-text>problem <strong>13</strong> out of 25 problems</p></div>","0","","","","","","","","","","","","","","","","","","","","","","","","","",""
"","","","","","single-stim-button","314","806262","0.0-3.0-46.0-0.0","63cb23389133d3f76db2336a","F1","batch6","tol_tohand","2681","","","","","","","","","tol_peg_1","2681","2681","0","[[1,0,0],[3,0],[0]]","1","[[0,0,0],[2,3],[1]]","12","0","","","","","","4","","","","",""
"","","","","","single-stim-button","315","807086","0.0-3.0-46.0-1.0","63cb23389133d3f76db2336a","F1","batch6","tol_toboard","823","","","","","","","","","tol_peg_2","823","823","0","[[1,0,0],[3,2],[0]]","1","[[0,0,0],[2,3],[1]]","12","0","","","","","","4","","","","",""
"","","","","","single-stim-button","316","807688","0.0-3.0-46.1-0.1","63cb23389133d3f76db2336a","F1","batch6","tol_tohand","600","","","","","","","","","tol_peg_1","600","600","0","[[0,0,0],[3,2],[0]]","2","[[0,0,0],[2,3],[1]]","12","0","","","","","","4","","","","",""
"","","","","","single-stim-button","317","808467","0.0-3.0-46.1-1.1","63cb23389133d3f76db2336a","F1","batch6","tol_toboard","778","","","","","","","","","tol_peg_3","778","778","0","[[0,0,0],[3,2],[1]]","2","[[0,0,0],[2,3],[1]]","12","0","","","","","","4","","","","",""
"","","","","","single-stim-button","318","809053","0.0-3.0-46.2-0.2","63cb23389133d3f76db2336a","F1","batch6","tol_tohand","584","","","","","","","","","tol_peg_2","584","584","0","[[0,0,0],[3,0],[1]]","3","[[0,0,0],[2,3],[1]]","12","0","","","","","","4","","","","",""
"","","","","","single-stim-button","319","809745","0.0-3.0-46.2-1.2","63cb23389133d3f76db2336a","F1","batch6","tol_toboard","691","","","","","","","","","tol_peg_1","691","691","0","[[2,0,0],[3,0],[1]]","3","[[0,0,0],[2,3],[1]]","12","0","","","","","","4","","","","",""
"","","","","","single-stim-button","320","810180","0.0-3.0-46.3-0.3","63cb23389133d3f76db2336a","F1","batch6","tol_tohand","434","","","","","","","","","tol_peg_2","434","434","0","[[2,0,0],[0,0],[1]]","4","[[0,0,0],[2,3],[1]]","12","0","","","","","","4","","","","",""
"","","","","","single-stim-button","321","811497","0.0-3.0-46.3-1.3","63cb23389133d3f76db2336a","F1","batch6","tol_toboard","1317","","","","","","","","","tol_peg_2","1317","1317","0","[[2,0,0],[3,0],[1]]","4","[[0,0,0],[2,3],[1]]","12","0","","","","","","4","","","","",""
"","","","","","single-stim-button","322","812161","0.0-3.0-46.4-0.4","63cb23389133d3f76db2336a","F1","batch6","tol_tohand","662","","","","","","","","","tol_peg_3","662","662","0","[[2,0,0],[3,0],[0]]","5","[[0,0,0],[2,3],[1]]","12","0","","","","","","4","","","","",""
"","","","","","single-stim-button","323","815163","0.0-3.0-46.4-1.4","63cb23389133d3f76db2336a","F1","batch6","tol_toboard","3001","","","","","","","","","tol_peg_1","3001","3001","0","[[2,1,0],[3,0],[0]]","5","[[0,0,0],[2,3],[1]]","12","0","","","","","","4","","","","",""
"","","","","","single-stim-button","324","815878","0.0-3.0-46.5-0.5","63cb23389133d3f76db2336a","F1","batch6","tol_tohand","715","","","","","","","","","tol_peg_2","715","715","0","[[2,1,0],[0,0],[0]]","6","[[0,0,0],[2,3],[1]]","12","0","","","","","","4","","","","",""
"","","","","","single-stim-button","325","816432","0.0-3.0-46.5-1.5","63cb23389133d3f76db2336a","F1","batch6","tol_toboard","552","","","","","","","","","tol_peg_3","552","552","0","[[2,1,0],[0,0],[3]]","6","[[0,0,0],[2,3],[1]]","12","0","","","","","","4","","","","",""
"","","","","","single-stim-button","326","817152","0.0-3.0-46.6-0.6","63cb23389133d3f76db2336a","F1","batch6","tol_tohand","719","","","","","","","","","tol_peg_1","719","719","0","[[2,0,0],[0,0],[3]]","7","[[0,0,0],[2,3],[1]]","12","0","","","","","","4","","","","",""
"","","","","","single-stim-button","327","821051","0.0-3.0-46.6-1.6","63cb23389133d3f76db2336a","F1","batch6","tol_toboard","3899","","","","","","","","","tol_peg_1","3899","3899","0","[[2,1,0],[0,0],[3]]","7","[[0,0,0],[2,3],[1]]","12","0","","","","","","4","","","","",""
"","","","","","single-stim-button","328","821804","0.0-3.0-46.7-0.7","63cb23389133d3f76db2336a","F1","batch6","tol_tohand","751","","","","","","","","","tol_peg_1","751","751","0","[[2,0,0],[0,0],[3]]","8","[[0,0,0],[2,3],[1]]","12","0","","","","","","4","","","","",""
"","","","","","single-stim-button","329","823002","0.0-3.0-46.7-1.7","63cb23389133d3f76db2336a","F1","batch6","tol_toboard","1196","","","","","","","","","tol_peg_2","1196","1196","0","[[2,0,0],[1,0],[3]]","8","[[0,0,0],[2,3],[1]]","12","0","","","","","","4","","","","",""
"","","","","","single-stim-button","330","823782","0.0-3.0-46.8-0.8","63cb23389133d3f76db2336a","F1","batch6","tol_tohand","779","","","","","","","","","tol_peg_1","779","779","0","[[0,0,0],[1,0],[3]]","9","[[0,0,0],[2,3],[1]]","12","0","","","","","","4","","","","",""
"","","","","","single-stim-button","331","824682","0.0-3.0-46.8-1.8","63cb23389133d3f76db2336a","F1","batch6","tol_toboard","899","","","","","","","","","tol_peg_2","899","899","0","[[0,0,0],[1,2],[3]]","9","[[0,0,0],[2,3],[1]]","12","0","","","","","","4","","","","",""
"","","","","","single-stim-button","332","825462","0.0-3.0-46.9-0.9","63cb23389133d3f76db2336a","F1","batch6","tol_tohand","780","","","","","","","","","tol_peg_3","780","780","0","[[0,0,0],[1,2],[0]]","10","[[0,0,0],[2,3],[1]]","12","0","","","","","","4","","","","",""
"","","","","","single-stim-button","333","826181","0.0-3.0-46.9-1.9","63cb23389133d3f76db2336a","F1","batch6","tol_toboard","719","","","","","","","","","tol_peg_1","719","719","0","[[3,0,0],[1,2],[0]]","10","[[0,0,0],[2,3],[1]]","12","0","","","","","","4","","","","",""
"","","","","","single-stim-button","334","827366","0.0-3.0-46.10-0.10","63cb23389133d3f76db2336a","F1","batch6","tol_tohand","1184","","","","","","","","","tol_peg_2","1184","1184","0","[[3,0,0],[1,0],[0]]","11","[[0,0,0],[2,3],[1]]","12","0","","","","","","4","","","","",""
"","","","","","single-stim-button","335","830171","0.0-3.0-46.10-1.10","63cb23389133d3f76db2336a","F1","batch6","tol_toboard","2804","","","","","","","","","tol_peg_2","2804","2804","0","[[3,0,0],[1,2],[0]]","11","[[0,0,0],[2,3],[1]]","12","0","","","","","","4","","","","",""
"","","","","","single-stim-button","336","830894","0.0-3.0-46.11-0.11","63cb23389133d3f76db2336a","F1","batch6","tol_tohand","722","","","","","","","","","tol_peg_2","722","722","0","[[3,0,0],[1,0],[0]]","12","[[0,0,0],[2,3],[1]]","12","0","","","","","","4","","","","",""
"","","","","","single-stim-button","337","831431","0.0-3.0-46.11-1.11","63cb23389133d3f76db2336a","F1","batch6","tol_toboard","536","","","","","","","","","tol_peg_2","536","536","0","[[3,0,0],[1,2],[0]]","12","[[0,0,0],[2,3],[1]]","12","0","","","","","","4","","","","",""
"","","","","","single-stim-button","338","832245","0.0-3.0-46.12-0.12","63cb23389133d3f76db2336a","F1","batch6","tol_tohand","812","","","","","","","","","tol_peg_1","812","812","0","[[0,0,0],[1,2],[0]]","13","[[0,0,0],[2,3],[1]]","12","0","","","","","","4","","","","",""
"","","","","","single-stim-button","339","833501","0.0-3.0-46.12-1.12","63cb23389133d3f76db2336a","F1","batch6","tol_toboard","1256","","","","","","","","","tol_peg_3","1256","1256","0","[[0,0,0],[1,2],[3]]","13","[[0,0,0],[2,3],[1]]","12","0","","","","","","4","","","","",""
"","","","","","single-stim-button","340","834087","0.0-3.0-46.13-0.13","63cb23389133d3f76db2336a","F1","batch6","tol_tohand","584","","","","","","","","","tol_peg_2","584","584","0","[[0,0,0],[1,0],[3]]","14","[[0,0,0],[2,3],[1]]","12","0","","","","","","4","","","","",""
"","","","","","single-stim-button","341","834806","0.0-3.0-46.13-1.13","63cb23389133d3f76db2336a","F1","batch6","tol_toboard","718","","","","","","","","","tol_peg_1","718","718","0","[[2,0,0],[1,0],[3]]","14","[[0,0,0],[2,3],[1]]","12","0","","","","","","4","","","","",""
"","","","","","single-stim-button","342","835228","0.0-3.0-46.14-0.14","63cb23389133d3f76db2336a","F1","batch6","tol_tohand","422","","","","","","","","","tol_peg_2","422","422","0","[[2,0,0],[0,0],[3]]","15","[[0,0,0],[2,3],[1]]","12","0","","","","","","4","","","","",""
"","","","","","single-stim-button","343","835737","0.0-3.0-46.14-1.14","63cb23389133d3f76db2336a","F1","batch6","tol_toboard","508","","","","","","","","","tol_peg_1","508","508","0","[[2,1,0],[0,0],[3]]","15","[[0,0,0],[2,3],[1]]","12","0","","","","","","4","","","","",""
"","","","","","single-stim-button","344","839337","0.0-3.0-46.15-0.15","63cb23389133d3f76db2336a","F1","batch6","tol_tohand","3598","","","","","","","","","tol_peg_1","3598","3598","0","[[2,0,0],[0,0],[3]]","16","[[0,0,0],[2,3],[1]]","12","0","","","","","","4","","","","",""
"","","","","","single-stim-button","345","840462","0.0-3.0-46.15-1.15","63cb23389133d3f76db2336a","F1","batch6","tol_toboard","1124","","","","","","","","","tol_peg_2","1124","1124","0","[[2,0,0],[1,0],[3]]","16","[[0,0,0],[2,3],[1]]","12","0","","","","","","4","","","","",""
"","","","","","single-stim-button","346","841781","0.0-3.0-46.16-0.16","63cb23389133d3f76db2336a","F1","batch6","tol_tohand","1317","","","","","","","","","tol_peg_1","1317","1317","0","[[0,0,0],[1,0],[3]]","17","[[0,0,0],[2,3],[1]]","12","0","","","","","","4","","","","",""
"","","","","","single-stim-button","347","843387","0.0-3.0-46.16-1.16","63cb23389133d3f76db2336a","F1","batch6","tol_toboard","1605","","","","","","","","","tol_peg_2","1605","1605","0","[[0,0,0],[1,2],[3]]","17","[[0,0,0],[2,3],[1]]","12","0","","","","","","4","","","","",""
"","","","","","single-stim-button","348","844229","0.0-3.0-46.17-0.17","63cb23389133d3f76db2336a","F1","batch6","tol_tohand","842","","","","","","","","","tol_peg_3","842","842","0","[[0,0,0],[1,2],[0]]","18","[[0,0,0],[2,3],[1]]","12","0","","","","","","4","","","","",""
"","","","","","single-stim-button","349","845011","0.0-3.0-46.17-1.17","63cb23389133d3f76db2336a","F1","batch6","tol_toboard","781","","","","","","","","","tol_peg_1","781","781","0","[[3,0,0],[1,2],[0]]","18","[[0,0,0],[2,3],[1]]","12","0","","","","","","4","","","","",""
"","","","","","single-stim-button","350","845413","0.0-3.0-46.18-0.18","63cb23389133d3f76db2336a","F1","batch6","tol_tohand","400","","","","","","","","","tol_peg_2","400","400","0","[[3,0,0],[1,0],[0]]","19","[[0,0,0],[2,3],[1]]","12","0","","","","","","4","","","","",""
"","","","","","single-stim-button","351","846836","0.0-3.0-46.18-1.18","63cb23389133d3f76db2336a","F1","batch6","tol_toboard","1423","","","","","","","","","tol_peg_1","1423","1423","0","[[3,2,0],[1,0],[0]]","19","[[0,0,0],[2,3],[1]]","12","0","","","","","","4","","","","",""
"","","","","","single-stim-button","352","847796","0.0-3.0-46.19-0.19","63cb23389133d3f76db2336a","F1","batch6","tol_tohand","960","","","","","","","","","tol_peg_2","960","960","0","[[3,2,0],[0,0],[0]]","20","[[0,0,0],[2,3],[1]]","12","0","","","","","","4","","","","",""
"","","","","","single-stim-button","353","851816","0.0-3.0-46.19-1.19","63cb23389133d3f76db2336a","F1","batch6","tol_toboard","4020","","","","","","","","","tol_peg_3","4020","4020","0","[[3,2,0],[0,0],[1]]","20","[[0,0,0],[2,3],[1]]","12","0","","","","","","4","","","","",""
"","","","","","single-stim-button","354","852779","0.0-3.0-46.20-0.20","63cb23389133d3f76db2336a","F1","batch6","tol_tohand","962","","","","","","","","","tol_peg_1","962","962","0","[[3,0,0],[0,0],[1]]","21","[[0,0,0],[2,3],[1]]","12","0","","","","","","4","","","","",""
