"success","timeout","failed_images","failed_audio","failed_video","trial_type","trial_index","time_elapsed","internal_node_id","subject_id","study_id","session_id","view_history","rt","stimulus","response","task","correct","answer","item","fiar_detect_rt","fiar_detect_correct","total_correct_fiar_detect","post_trial_gap","choices","spm_correct","spm_rt","mouse_click","stim_duration","block_duration","timing_post_trial","current_position","tol_num_moves_made","tol_target","tol_problem_id","tol_rt","key_press","possible_responses","tol_correct","preplanning","tol_rt_per_trial","tol_min_moves"
"true","false","[]","[]","[]","preload","0","2566","0.0-0.0","63cff40ebc71e5fcdcf3f8dc","F1","batch6","","","","","","","","","","","","","","","","","","","","","","","","","","","","","",""
"true","","","","","fullscreen","1","24484","0.0-1.0-0.0","63cff40ebc71e5fcdcf3f8dc","F1","batch6","","","","","","","","","","","","","","","","","","","","","","","","","","","","","",""
"true","","","","","fullscreen","2","39186","0.0-2.0-0.0","63cff40ebc71e5fcdcf3f8dc","F1","batch6","","","","","","","","","","","","","","","","","","","","","","","","","","","","","",""
"","","","","","instructions","3","78473","0.0-2.0-1.0-0.0","63cff40ebc71e5fcdcf3f8dc","F1","batch6","[{""page_index"":0,""viewing_time"":16806.900000095367},{""page_index"":1,""viewing_time"":22478.799999713898}]","39285.90000009537","","","","","","","","","","","","","","","","","","","","","","","","","","","",""
"","","","","","html-button-response","4","81143","0.0-2.0-1.0-1.0-0.0","63cff40ebc71e5fcdcf3f8dc","F1","batch6","","2669.699999809265","<p class=block-text> Let's answer a few questions <br>","0","pattern_enter_quiz","","","","","","","","","","","","","","","","","","","","","","","","",""
"","","","","","html-button-response","5","87518","0.0-2.0-1.0-1.0-1.0","63cff40ebc71e5fcdcf3f8dc","F1","batch6","","6373.599999904633","<p class = block-text>True or False: You will have as much time as you want to make each choice. <br></p>","1","pattern_quiz","true","","","","","","","","","","","","","","","","","","","","","","","",""
"","","","","","html-button-response","6","91470","0.0-2.0-1.0-1.0-2.0","63cff40ebc71e5fcdcf3f8dc","F1","batch6","","3951.300000190735","<p class = block-text>Correct! You should make your choice <strong> as fast as you can</strong>.</p>","0","pattern_quiz_feedback","","","","","","","","","","","","","","","","","","","","","","","","",""
"","","","","","html-button-response","7","98903","0.0-2.0-1.0-1.0-3.0","63cff40ebc71e5fcdcf3f8dc","F1","batch6","","7432","<p class = block-text>True or False: You will look for 4 pieces in black or white color connected in a row either horizontally, vertically or diagonally. <br></p>","0","pattern_quiz","true","","","","","","","","","","","","","","","","","","","","","","","",""
"","","","","","html-button-response","8","100050","0.0-2.0-1.0-1.0-4.0","63cff40ebc71e5fcdcf3f8dc","F1","batch6","","1146.1999998092651","<p class = block-text>Correct! </p>","0","pattern_quiz_feedback","","","","","","","","","","","","","","","","","","","","","","","","",""
"","","","","","html-button-response","9","103553","0.0-2.0-2.0","63cff40ebc71e5fcdcf3f8dc","F1","batch6","","3501.4000000953674","<p class=block-text> Now that you've understood the game, let's do a few practice trials before we start!<br> <br>","0","pattern_enter_practice","","","","","","","","","","","","","","","","","","","","","","","","",""
"","","","","","image-keyboard-response","10","108189","0.0-2.0-3.0-0.0","63cff40ebc71e5fcdcf3f8dc","F1","batch6","","4634.400000095367","stim/prac_no_16_1.png","j","pattern_practice","true","j","","","","","","","","","","","","","","","","","","","","","","",""
"","","","","","html-keyboard-response","11","109217","0.0-2.0-3.0-1.0","63cff40ebc71e5fcdcf3f8dc","F1","batch6","","null","<p style=""font-size:30px;color:green;"">Correct!</p>","null","pattern_feedback","","","","","","","","","","","","","","","","","","","","","","","","",""
"","","","","","image-keyboard-response","12","111447","0.0-2.0-3.0-0.1","63cff40ebc71e5fcdcf3f8dc","F1","batch6","","2229","stim/prac_no_18_1.png","j","pattern_practice","true","j","","","","","","","","","","","","","","","","","","","","","","",""
"","","","","","html-keyboard-response","13","112464","0.0-2.0-3.0-1.1","63cff40ebc71e5fcdcf3f8dc","F1","batch6","","null","<p style=""font-size:30px;color:green;"">Correct!</p>","null","pattern_feedback","","","","","","","","","","","","","","","","","","","","","","","","",""
"","","","","","image-keyboard-response","14","113348","0.0-2.0-3.0-0.2","63cff40ebc71e5fcdcf3f8dc","F1","batch6","","883","stim/prac_yes_20_dia_b1.png","f","pattern_practice","true","f","","","","","","","","","","","","","","","","","","","","","","",""
"","","","","","html-keyboard-response","15","114374","0.0-2.0-3.0-1.2","63cff40ebc71e5fcdcf3f8dc","F1","batch6","","null","<p style=""font-size:30px;color:green;"">Correct!</p>","null","pattern_feedback","","","","","","","","","","","","","","","","","","","","","","","","",""
"","","","","","image-keyboard-response","16","115607","0.0-2.0-3.0-0.3","63cff40ebc71e5fcdcf3f8dc","F1","batch6","","1232.5","stim/prac_yes_16_ver_w1.png","f","pattern_practice","true","f","","","","","","","","","","","","","","","","","","","","","","",""
"","","","","","html-keyboard-response","17","116625","0.0-2.0-3.0-1.3","63cff40ebc71e5fcdcf3f8dc","F1","batch6","","null","<p style=""font-size:30px;color:green;"">Correct!</p>","null","pattern_feedback","","","","","","","","","","","","","","","","","","","","","","","","",""
"","","","","","image-keyboard-response","18","117517","0.0-2.0-3.0-0.4","63cff40ebc71e5fcdcf3f8dc","F1","batch6","","890.5","stim/prac_yes_18_hor_w1.png","f","pattern_practice","true","f","","","","","","","","","","","","","","","","","","","","","","",""
"","","","","","html-keyboard-response","19","118534","0.0-2.0-3.0-1.4","63cff40ebc71e5fcdcf3f8dc","F1","batch6","","null","<p style=""font-size:30px;color:green;"">Correct!</p>","null","pattern_feedback","","","","","","","","","","","","","","","","","","","","","","","","",""
"","","","","","html-button-response","20","145485","0.0-2.0-4.0","63cff40ebc71e5fcdcf3f8dc","F1","batch6","","26950.099999904633","<p class=block-text> Good job! You are done with practice trials!<br>
        You responded correctly on 100% of the trials.<br>
        Press the button below to start official trials. Now you won't see any feedback about your response</p>","0","pattern_enter_official_trials","","","","","","","","","","","","","","","","","","","","","","","","",""
"","","","","","html-keyboard-response","21","146286","0.0-2.0-5.0-0.0","63cff40ebc71e5fcdcf3f8dc","F1","batch6","","null","<p class=block-text>Trial 1 out of 78</p>","null","pattern_show_trial_num","","","","","","","","","","","","","","","","","","","","","","","","",""
"","","","","","image-keyboard-response","22","148522","0.0-2.0-5.0-1.0","63cff40ebc71e5fcdcf3f8dc","F1","batch6","","2235.2000002861023","stim/yes_46_ver_b1_b.png","f","pattern_response","true","f","pattern_68","2235.2000002861023","true","1","","","","","","","","","","","","","","","","","","",""
"","","","","","html-keyboard-response","23","149839","0.0-2.0-5.0-0.1","63cff40ebc71e5fcdcf3f8dc","F1","batch6","","null","<p class=block-text>Trial 2 out of 78</p>","null","pattern_show_trial_num","","","","","","","","","","","","","","","","","","","","","","","","",""
"","","","","","image-keyboard-response","24","151721","0.0-2.0-5.0-1.1","63cff40ebc71e5fcdcf3f8dc","F1","batch6","","1880.4000000953674","stim/yes_44_ver_w1_w.png","f","pattern_response","true","f","pattern_66","1880.4000000953674","true","2","","","","","","","","","","","","","","","","","","",""
"","","","","","html-keyboard-response","25","153029","0.0-2.0-5.0-0.2","63cff40ebc71e5fcdcf3f8dc","F1","batch6","","null","<p class=block-text>Trial 3 out of 78</p>","null","pattern_show_trial_num","","","","","","","","","","","","","","","","","","","","","","","","",""
"","","","","","image-keyboard-response","26","153777","0.0-2.0-5.0-1.2","63cff40ebc71e5fcdcf3f8dc","F1","batch6","","746.5","stim/yes_15_dia_b1u_b.png","f","pattern_response","true","f","pattern_44","746.5","true","3","","","","","","","","","","","","","","","","","","",""
"","","","","","html-keyboard-response","27","155095","0.0-2.0-5.0-0.3","63cff40ebc71e5fcdcf3f8dc","F1","batch6","","null","<p class=block-text>Trial 4 out of 78</p>","null","pattern_show_trial_num","","","","","","","","","","","","","","","","","","","","","","","","",""
"","","","","","image-keyboard-response","28","157991","0.0-2.0-5.0-1.3","63cff40ebc71e5fcdcf3f8dc","F1","batch6","","2895","stim/no_53_1_b.png","j","pattern_response","true","j","pattern_33","2895","true","4","","","","","","","","","","","","","","","","","","",""
"","","","","","html-keyboard-response","29","159313","0.0-2.0-5.0-0.4","63cff40ebc71e5fcdcf3f8dc","F1","batch6","","null","<p class=block-text>Trial 5 out of 78</p>","null","pattern_show_trial_num","","","","","","","","","","","","","","","","","","","","","","","","",""
"","","","","","image-keyboard-response","30","162543","0.0-2.0-5.0-1.4","63cff40ebc71e5fcdcf3f8dc","F1","batch6","","3229.199999809265","stim/yes_51_dia_b1.png","j","pattern_response","false","f","pattern_72","3229.199999809265","false","4","","","","","","","","","","","","","","","","","","",""
"","","","","","html-keyboard-response","31","163864","0.0-2.0-5.0-0.5","63cff40ebc71e5fcdcf3f8dc","F1","batch6","","null","<p class=block-text>Trial 6 out of 78</p>","null","pattern_show_trial_num","","","","","","","","","","","","","","","","","","","","","","","","",""
"","","","","","image-keyboard-response","32","165144","0.0-2.0-5.0-1.5","63cff40ebc71e5fcdcf3f8dc","F1","batch6","","1279.4000000953674","stim/yes_53_ver_b1_b.png","f","pattern_response","true","f","pattern_74","1279.4000000953674","true","5","","","","","","","","","","","","","","","","","","",""
"","","","","","html-keyboard-response","33","166453","0.0-2.0-5.0-0.6","63cff40ebc71e5fcdcf3f8dc","F1","batch6","","null","<p class=block-text>Trial 7 out of 78</p>","null","pattern_show_trial_num","","","","","","","","","","","","","","","","","","","","","","","","",""
"","","","","","image-keyboard-response","34","167716","0.0-2.0-5.0-1.6","63cff40ebc71e5fcdcf3f8dc","F1","batch6","","1262.1999998092651","stim/no_15_1_w.png","j","pattern_response","true","j","pattern_03","1262.1999998092651","true","6","","","","","","","","","","","","","","","","","","",""
"","","","","","html-keyboard-response","35","169035","0.0-2.0-5.0-0.7","63cff40ebc71e5fcdcf3f8dc","F1","batch6","","null","<p class=block-text>Trial 8 out of 78</p>","null","pattern_show_trial_num","","","","","","","","","","","","","","","","","","","","","","","","",""
"","","","","","image-keyboard-response","36","169836","0.0-2.0-5.0-1.7","63cff40ebc71e5fcdcf3f8dc","F1","batch6","","800","stim/yes_39_hor_w1_w.png","f","pattern_response","true","f","pattern_62","800","true","7","","","","","","","","","","","","","","","","","","",""
"","","","","","html-keyboard-response","37","171148","0.0-2.0-5.0-0.8","63cff40ebc71e5fcdcf3f8dc","F1","batch6","","null","<p class=block-text>Trial 9 out of 78</p>","null","pattern_show_trial_num","","","","","","","","","","","","","","","","","","","","","","","","",""
"","","","","","image-keyboard-response","38","172553","0.0-2.0-5.0-1.8","63cff40ebc71e5fcdcf3f8dc","F1","batch6","","1402.6999998092651","stim/no_39_1_w.png","j","pattern_response","true","j","pattern_21","1402.6999998092651","true","8","","","","","","","","","","","","","","","","","","",""
"","","","","","html-keyboard-response","39","173867","0.0-2.0-5.0-0.9","63cff40ebc71e5fcdcf3f8dc","F1","batch6","","null","<p class=block-text>Trial 10 out of 78</p>","null","pattern_show_trial_num","","","","","","","","","","","","","","","","","","","","","","","","",""
"","","","","","image-keyboard-response","40","176798","0.0-2.0-5.0-1.9","63cff40ebc71e5fcdcf3f8dc","F1","batch6","","2930.0999999046326","stim/no_49_2_b.png","j","pattern_response","true","j","pattern_29","2930.0999999046326","true","9","","","","","","","","","","","","","","","","","","",""
"","","","","","html-keyboard-response","41","178109","0.0-2.0-5.0-0.10","63cff40ebc71e5fcdcf3f8dc","F1","batch6","","null","<p class=block-text>Trial 11 out of 78</p>","null","pattern_show_trial_num","","","","","","","","","","","","","","","","","","","","","","","","",""
"","","","","","image-keyboard-response","42","180476","0.0-2.0-5.0-1.10","63cff40ebc71e5fcdcf3f8dc","F1","batch6","","2364.7000002861023","stim/no_58_1_w.png","j","pattern_response","true","j","pattern_35","2364.7000002861023","true","10","","","","","","","","","","","","","","","","","","",""
"","","","","","html-keyboard-response","43","181784","0.0-2.0-5.0-0.11","63cff40ebc71e5fcdcf3f8dc","F1","batch6","","null","<p class=block-text>Trial 12 out of 78</p>","null","pattern_show_trial_num","","","","","","","","","","","","","","","","","","","","","","","","",""
"","","","","","image-keyboard-response","44","182893","0.0-2.0-5.0-1.11","63cff40ebc71e5fcdcf3f8dc","F1","batch6","","1108.0999999046326","stim/no_30_1_b.png","j","pattern_response","true","j","pattern_13","1108.0999999046326","true","11","","","","","","","","","","","","","","","","","","",""
"","","","","","html-keyboard-response","45","184210","0.0-2.0-5.0-0.12","63cff40ebc71e5fcdcf3f8dc","F1","batch6","","null","<p class=block-text>Trial 13 out of 78</p>","null","pattern_show_trial_num","","","","","","","","","","","","","","","","","","","","","","","","",""
"","","","","","image-keyboard-response","46","185338","0.0-2.0-5.0-1.12","63cff40ebc71e5fcdcf3f8dc","F1","batch6","","1126.5999999046326","stim/yes_49_hor_w1_b.png","f","pattern_response","true","f","pattern_70","1126.5999999046326","true","12","","","","","","","","","","","","","","","","","","",""
"","","","","","html-keyboard-response","47","186655","0.0-2.0-5.0-0.13","63cff40ebc71e5fcdcf3f8dc","F1","batch6","","null","<p class=block-text>Trial 14 out of 78</p>","null","pattern_show_trial_num","","","","","","","","","","","","","","","","","","","","","","","","",""
"","","","","","image-keyboard-response","48","189761","0.0-2.0-5.0-1.13","63cff40ebc71e5fcdcf3f8dc","F1","batch6","","3104","stim/no_37_2_w.png","j","pattern_response","true","j","pattern_19","3104","true","13","","","","","","","","","","","","","","","","","","",""
"","","","","","html-keyboard-response","49","191074","0.0-2.0-5.0-0.14","63cff40ebc71e5fcdcf3f8dc","F1","batch6","","null","<p class=block-text>Trial 15 out of 78</p>","null","pattern_show_trial_num","","","","","","","","","","","","","","","","","","","","","","","","",""
"","","","","","image-keyboard-response","50","193759","0.0-2.0-5.0-1.14","63cff40ebc71e5fcdcf3f8dc","F1","batch6","","2684","stim/yes_58_dia_w1_w.png","j","pattern_response","false","f","pattern_76","2684","false","13","","","","","","","","","","","","","","","","","","",""
"","","","","","html-keyboard-response","51","195070","0.0-2.0-5.0-0.15","63cff40ebc71e5fcdcf3f8dc","F1","batch6","","null","<p class=block-text>Trial 16 out of 78</p>","null","pattern_show_trial_num","","","","","","","","","","","","","","","","","","","","","","","","",""
"","","","","","image-keyboard-response","52","195876","0.0-2.0-5.0-1.15","63cff40ebc71e5fcdcf3f8dc","F1","batch6","","805","stim/yes_70_ver_b1.png","f","pattern_response","true","f","pattern_80","805","true","14","","","","","","","","","","","","","","","","","","",""
"","","","","","html-keyboard-response","53","197184","0.0-2.0-5.0-0.16","63cff40ebc71e5fcdcf3f8dc","F1","batch6","","null","<p class=block-text>Trial 17 out of 78</p>","null","pattern_show_trial_num","","","","","","","","","","","","","","","","","","","","","","","","",""
"","","","","","image-keyboard-response","54","199255","0.0-2.0-5.0-1.16","63cff40ebc71e5fcdcf3f8dc","F1","batch6","","2069.0999999046326","stim/no_36_1_b.png","j","pattern_response","true","j","pattern_17","2069.0999999046326","true","15","","","","","","","","","","","","","","","","","","",""
"","","","","","html-keyboard-response","55","200580","0.0-2.0-5.0-0.17","63cff40ebc71e5fcdcf3f8dc","F1","batch6","","null","<p class=block-text>Trial 18 out of 78</p>","null","pattern_show_trial_num","","","","","","","","","","","","","","","","","","","","","","","","",""
"","","","","","image-keyboard-response","56","203075","0.0-2.0-5.0-1.17","63cff40ebc71e5fcdcf3f8dc","F1","batch6","","2493.5999999046326","stim/no_51_1.png","j","pattern_response","true","j","pattern_31","2493.5999999046326","true","16","","","","","","","","","","","","","","","","","","",""
"","","","","","html-keyboard-response","57","204390","0.0-2.0-5.0-0.18","63cff40ebc71e5fcdcf3f8dc","F1","batch6","","null","<p class=block-text>Trial 19 out of 78</p>","null","pattern_show_trial_num","","","","","","","","","","","","","","","","","","","","","","","","",""
"","","","","","image-keyboard-response","58","205788","0.0-2.0-5.0-1.18","63cff40ebc71e5fcdcf3f8dc","F1","batch6","","1396.6000003814697","stim/no_28_2.png","j","pattern_response","true","j","pattern_11","1396.6000003814697","true","17","","","","","","","","","","","","","","","","","","",""
"","","","","","html-keyboard-response","59","207099","0.0-2.0-5.0-0.19","63cff40ebc71e5fcdcf3f8dc","F1","batch6","","null","<p class=block-text>Trial 20 out of 78</p>","null","pattern_show_trial_num","","","","","","","","","","","","","","","","","","","","","","","","",""
"","","","","","image-keyboard-response","60","208622","0.0-2.0-5.0-1.19","63cff40ebc71e5fcdcf3f8dc","F1","batch6","","1522.3000001907349","stim/no_25_1_b.png","j","pattern_response","true","j","pattern_09","1522.3000001907349","true","18","","","","","","","","","","","","","","","","","","",""
"","","","","","html-keyboard-response","61","209943","0.0-2.0-5.0-0.20","63cff40ebc71e5fcdcf3f8dc","F1","batch6","","null","<p class=block-text>Trial 21 out of 78</p>","null","pattern_show_trial_num","","","","","","","","","","","","","","","","","","","","","","","","",""
"","","","","","image-keyboard-response","62","210921","0.0-2.0-5.0-1.20","63cff40ebc71e5fcdcf3f8dc","F1","batch6","","977.0999999046326","stim/no_18_1_b.png","j","pattern_response","true","j","pattern_05","977.0999999046326","true","19","","","","","","","","","","","","","","","","","","",""
"","","","","","html-keyboard-response","63","212226","0.0-2.0-5.0-0.21","63cff40ebc71e5fcdcf3f8dc","F1","batch6","","null","<p class=block-text>Trial 22 out of 78</p>","null","pattern_show_trial_num","","","","","","","","","","","","","","","","","","","","","","","","",""
"","","","","","image-keyboard-response","64","213671","0.0-2.0-5.0-1.21","63cff40ebc71e5fcdcf3f8dc","F1","batch6","","1444.5999999046326","stim/yes_33_dia_w1_w.png","j","pattern_response","false","f","pattern_56","1444.5999999046326","false","19","","","","","","","","","","","","","","","","","","",""
"","","","","","html-keyboard-response","65","214985","0.0-2.0-5.0-0.22","63cff40ebc71e5fcdcf3f8dc","F1","batch6","","null","<p class=block-text>Trial 23 out of 78</p>","null","pattern_show_trial_num","","","","","","","","","","","","","","","","","","","","","","","","",""
"","","","","","image-keyboard-response","66","216114","0.0-2.0-5.0-1.22","63cff40ebc71e5fcdcf3f8dc","F1","batch6","","1128.2999997138977","stim/yes_17_ver_b1_b.png","f","pattern_response","true","f","pattern_46","1128.2999997138977","true","20","","","","","","","","","","","","","","","","","","",""
"","","","","","html-keyboard-response","67","217437","0.0-2.0-5.0-0.23","63cff40ebc71e5fcdcf3f8dc","F1","batch6","","null","<p class=block-text>Trial 24 out of 78</p>","null","pattern_show_trial_num","","","","","","","","","","","","","","","","","","","","","","","","",""
"","","","","","image-keyboard-response","68","218597","0.0-2.0-5.0-1.23","63cff40ebc71e5fcdcf3f8dc","F1","batch6","","1156.2000002861023","stim/yes_23_ver_b1.png","f","pattern_response","true","f","pattern_48","1156.2000002861023","true","21","","","","","","","","","","","","","","","","","","",""
"","","","","","html-keyboard-response","69","219906","0.0-2.0-5.0-0.24","63cff40ebc71e5fcdcf3f8dc","F1","batch6","","null","<p class=block-text>Trial 25 out of 78</p>","null","pattern_show_trial_num","","","","","","","","","","","","","","","","","","","","","","","","",""
"","","","","","image-keyboard-response","70","220592","0.0-2.0-5.0-1.24","63cff40ebc71e5fcdcf3f8dc","F1","batch6","","685.5","stim/yes_30_ver_b1_b.png","f","pattern_response","true","f","pattern_54","685.5","true","22","","","","","","","","","","","","","","","","","","",""
"","","","","","html-keyboard-response","71","221912","0.0-2.0-5.0-0.25","63cff40ebc71e5fcdcf3f8dc","F1","batch6","","null","<p class=block-text>Trial 26 out of 78</p>","null","pattern_show_trial_num","","","","","","","","","","","","","","","","","","","","","","","","",""
"","","","","","image-keyboard-response","72","225331","0.0-2.0-5.0-1.25","63cff40ebc71e5fcdcf3f8dc","F1","batch6","","3417.5999999046326","stim/no_43_2_b.png","j","pattern_response","true","j","pattern_23","3417.5999999046326","true","23","","","","","","","","","","","","","","","","","","",""
"","","","","","html-keyboard-response","73","226648","0.0-2.0-5.0-0.26","63cff40ebc71e5fcdcf3f8dc","F1","batch6","","null","<p class=block-text>Trial 27 out of 78</p>","null","pattern_show_trial_num","","","","","","","","","","","","","","","","","","","","","","","","",""
"","","","","","image-keyboard-response","74","228257","0.0-2.0-5.0-1.26","63cff40ebc71e5fcdcf3f8dc","F1","batch6","","1606.7999997138977","stim/yes_63_dia_b1.png","f","pattern_response","true","f","pattern_78","1606.7999997138977","true","24","","","","","","","","","","","","","","","","","","",""
"","","","","","html-keyboard-response","75","229581","0.0-2.0-5.0-0.27","63cff40ebc71e5fcdcf3f8dc","F1","batch6","","null","<p class=block-text>Trial 28 out of 78</p>","null","pattern_show_trial_num","","","","","","","","","","","","","","","","","","","","","","","","",""
"","","","","","image-keyboard-response","76","232785","0.0-2.0-5.0-1.27","63cff40ebc71e5fcdcf3f8dc","F1","batch6","","3202.800000190735","stim/yes_42_dia_w1_w.png","j","pattern_response","false","f","pattern_64","3202.800000190735","false","24","","","","","","","","","","","","","","","","","","",""
"","","","","","html-keyboard-response","77","234106","0.0-2.0-5.0-0.28","63cff40ebc71e5fcdcf3f8dc","F1","batch6","","null","<p class=block-text>Trial 29 out of 78</p>","null","pattern_show_trial_num","","","","","","","","","","","","","","","","","","","","","","","","",""
"","","","","","image-keyboard-response","78","234886","0.0-2.0-5.0-1.28","63cff40ebc71e5fcdcf3f8dc","F1","batch6","","778.8000001907349","stim/yes_12_hor_w1_w.png","f","pattern_response","true","f","pattern_42","778.8000001907349","true","25","","","","","","","","","","","","","","","","","","",""
"","","","","","html-keyboard-response","79","236206","0.0-2.0-5.0-0.29","63cff40ebc71e5fcdcf3f8dc","F1","batch6","","null","<p class=block-text>Trial 30 out of 78</p>","null","pattern_show_trial_num","","","","","","","","","","","","","","","","","","","","","","","","",""
"","","","","","image-keyboard-response","80","239855","0.0-2.0-5.0-1.29","63cff40ebc71e5fcdcf3f8dc","F1","batch6","","3647.7000002861023","stim/no_33_1_b.png","j","pattern_response","true","j","pattern_15","3647.7000002861023","true","26","","","","","","","","","","","","","","","","","","",""
"","","","","","html-keyboard-response","81","241178","0.0-2.0-5.0-0.30","63cff40ebc71e5fcdcf3f8dc","F1","batch6","","null","<p class=block-text>Trial 31 out of 78</p>","null","pattern_show_trial_num","","","","","","","","","","","","","","","","","","","","","","","","",""
"","","","","","image-keyboard-response","82","243671","0.0-2.0-5.0-1.30","63cff40ebc71e5fcdcf3f8dc","F1","batch6","","2491.7999997138977","stim/no_47_1_b.png","f","pattern_response","false","j","pattern_27","2491.7999997138977","false","26","","","","","","","","","","","","","","","","","","",""
"","","","","","html-keyboard-response","83","244995","0.0-2.0-5.0-0.31","63cff40ebc71e5fcdcf3f8dc","F1","batch6","","null","<p class=block-text>Trial 32 out of 78</p>","null","pattern_show_trial_num","","","","","","","","","","","","","","","","","","","","","","","","",""
"","","","","","image-keyboard-response","84","246150","0.0-2.0-5.0-1.31","63cff40ebc71e5fcdcf3f8dc","F1","batch6","","1153.5","stim/no_12_1.png","j","pattern_response","true","j","pattern_01","1153.5","true","27","","","","","","","","","","","","","","","","","","",""
"","","","","","html-keyboard-response","85","247474","0.0-2.0-5.0-0.32","63cff40ebc71e5fcdcf3f8dc","F1","batch6","","null","<p class=block-text>Trial 33 out of 78</p>","null","pattern_show_trial_num","","","","","","","","","","","","","","","","","","","","","","","","",""
"","","","","","image-keyboard-response","86","248550","0.0-2.0-5.0-1.32","63cff40ebc71e5fcdcf3f8dc","F1","batch6","","1075.3000001907349","stim/yes_29_hor_b1_b.png","f","pattern_response","true","f","pattern_52","1075.3000001907349","true","28","","","","","","","","","","","","","","","","","","",""
"","","","","","html-keyboard-response","87","249872","0.0-2.0-5.0-0.33","63cff40ebc71e5fcdcf3f8dc","F1","batch6","","null","<p class=block-text>Trial 34 out of 78</p>","null","pattern_show_trial_num","","","","","","","","","","","","","","","","","","","","","","","","",""
"","","","","","image-keyboard-response","88","250825","0.0-2.0-5.0-1.33","63cff40ebc71e5fcdcf3f8dc","F1","batch6","","951.3999996185303","stim/yes_36_ver_w1_w.png","f","pattern_response","true","f","pattern_58","951.3999996185303","true","29","","","","","","","","","","","","","","","","","","",""
"","","","","","html-keyboard-response","89","252148","0.0-2.0-5.0-0.34","63cff40ebc71e5fcdcf3f8dc","F1","batch6","","null","<p class=block-text>Trial 35 out of 78</p>","null","pattern_show_trial_num","","","","","","","","","","","","","","","","","","","","","","","","",""
"","","","","","image-keyboard-response","90","255510","0.0-2.0-5.0-1.34","63cff40ebc71e5fcdcf3f8dc","F1","batch6","","3360.0999999046326","stim/no_67_1.png","j","pattern_response","true","j","pattern_39","3360.0999999046326","true","30","","","","","","","","","","","","","","","","","","",""
"","","","","","html-keyboard-response","91","256819","0.0-2.0-5.0-0.35","63cff40ebc71e5fcdcf3f8dc","F1","batch6","","null","<p class=block-text>Trial 36 out of 78</p>","null","pattern_show_trial_num","","","","","","","","","","","","","","","","","","","","","","","","",""
"","","","","","image-keyboard-response","92","257893","0.0-2.0-5.0-1.35","63cff40ebc71e5fcdcf3f8dc","F1","batch6","","1071.9000000953674","stim/yes_26_dia_w2_w.png","f","pattern_response","true","f","pattern_50","1071.9000000953674","true","31","","","","","","","","","","","","","","","","","","",""
"","","","","","html-keyboard-response","93","259211","0.0-2.0-5.0-0.36","63cff40ebc71e5fcdcf3f8dc","F1","batch6","","null","<p class=block-text>Trial 37 out of 78</p>","null","pattern_show_trial_num","","","","","","","","","","","","","","","","","","","","","","","","",""
"","","","","","image-keyboard-response","94","260254","0.0-2.0-5.0-1.36","63cff40ebc71e5fcdcf3f8dc","F1","batch6","","1041","stim/yes_37_hor_w1_w.png","f","pattern_response","true","f","pattern_60","1041","true","32","","","","","","","","","","","","","","","","","","",""
"","","","","","html-keyboard-response","95","261568","0.0-2.0-5.0-0.37","63cff40ebc71e5fcdcf3f8dc","F1","batch6","","null","<p class=block-text>Trial 38 out of 78</p>","null","pattern_show_trial_num","","","","","","","","","","","","","","","","","","","","","","","","",""
"","","","","","image-keyboard-response","96","264560","0.0-2.0-5.0-1.37","63cff40ebc71e5fcdcf3f8dc","F1","batch6","","2992.199999809265","stim/no_22_1_b.png","j","pattern_response","true","j","pattern_07","2992.199999809265","true","33","","","","","","","","","","","","","","","","","","",""
"","","","","","html-keyboard-response","97","265877","0.0-2.0-5.0-0.38","63cff40ebc71e5fcdcf3f8dc","F1","batch6","","null","<p class=block-text>Trial 39 out of 78</p>","null","pattern_show_trial_num","","","","","","","","","","","","","","","","","","","","","","","","",""
"","","","","","image-keyboard-response","98","268420","0.0-2.0-5.0-1.38","63cff40ebc71e5fcdcf3f8dc","F1","batch6","","2542.0999999046326","stim/no_45_1_w.png","j","pattern_response","true","j","pattern_25","2542.0999999046326","true","34","","","","","","","","","","","","","","","","","","",""
"","","","","","image-keyboard-response","99","271782","0.0-2.0-6.0","63cff40ebc71e5fcdcf3f8dc","F1","batch6","","2859","stim/empty_board.png","j","attention_check","true","j","","","","","500","[""f"",""j""]","","","","","","","","","","","","","","","","",""
"","","","","","html-keyboard-response","100","272590","0.0-2.0-7.0-0.0","63cff40ebc71e5fcdcf3f8dc","F1","batch6","","null","<p class=block-text>Trial 40 out of 78</p>","null","pattern_show_trial_num","","","","","","","","","","","","","","","","","","","","","","","","",""
"","","","","","image-keyboard-response","101","274782","0.0-2.0-7.0-1.0","63cff40ebc71e5fcdcf3f8dc","F1","batch6","","2191.7000002861023","stim/no_13_2_b.png","j","pattern_response","true","j","pattern_02","2191.7000002861023","true","35","","","","","","","","","","","","","","","","","","",""
"","","","","","html-keyboard-response","102","276099","0.0-2.0-7.0-0.1","63cff40ebc71e5fcdcf3f8dc","F1","batch6","","null","<p class=block-text>Trial 41 out of 78</p>","null","pattern_show_trial_num","","","","","","","","","","","","","","","","","","","","","","","","",""
"","","","","","image-keyboard-response","103","279917","0.0-2.0-7.0-1.1","63cff40ebc71e5fcdcf3f8dc","F1","batch6","","3817","stim/yes_37_dia_w1.png","j","pattern_response","false","f","pattern_59","3817","false","35","","","","","","","","","","","","","","","","","","",""
"","","","","","html-keyboard-response","104","281231","0.0-2.0-7.0-0.2","63cff40ebc71e5fcdcf3f8dc","F1","batch6","","null","<p class=block-text>Trial 42 out of 78</p>","null","pattern_show_trial_num","","","","","","","","","","","","","","","","","","","","","","","","",""
"","","","","","image-keyboard-response","105","284761","0.0-2.0-7.0-1.2","63cff40ebc71e5fcdcf3f8dc","F1","batch6","","3528.4000000953674","stim/no_38_1_b.png","j","pattern_response","true","j","pattern_20","3528.4000000953674","true","36","","","","","","","","","","","","","","","","","","",""
"","","","","","html-keyboard-response","106","286072","0.0-2.0-7.0-0.3","63cff40ebc71e5fcdcf3f8dc","F1","batch6","","null","<p class=block-text>Trial 43 out of 78</p>","null","pattern_show_trial_num","","","","","","","","","","","","","","","","","","","","","","","","",""
"","","","","","image-keyboard-response","107","289065","0.0-2.0-7.0-1.3","63cff40ebc71e5fcdcf3f8dc","F1","batch6","","2990.5999999046326","stim/no_29_1_b.png","j","pattern_response","true","j","pattern_12","2990.5999999046326","true","37","","","","","","","","","","","","","","","","","","",""
"","","","","","html-keyboard-response","108","290386","0.0-2.0-7.0-0.4","63cff40ebc71e5fcdcf3f8dc","F1","batch6","","null","<p class=block-text>Trial 44 out of 78</p>","null","pattern_show_trial_num","","","","","","","","","","","","","","","","","","","","","","","","",""
"","","","","","image-keyboard-response","109","294585","0.0-2.0-7.0-1.4","63cff40ebc71e5fcdcf3f8dc","F1","batch6","","4197.400000095367","stim/yes_50_dia_w1.png","j","pattern_response","false","f","pattern_71","4197.400000095367","false","37","","","","","","","","","","","","","","","","","","",""
"","","","","","html-keyboard-response","110","295897","0.0-2.0-7.0-0.5","63cff40ebc71e5fcdcf3f8dc","F1","batch6","","null","<p class=block-text>Trial 45 out of 78</p>","null","pattern_show_trial_num","","","","","","","","","","","","","","","","","","","","","","","","",""
"","","","","","image-keyboard-response","111","297137","0.0-2.0-7.0-1.5","63cff40ebc71e5fcdcf3f8dc","F1","batch6","","1238.2999997138977","stim/yes_28_ver_b1.png","f","pattern_response","true","f","pattern_51","1238.2999997138977","true","38","","","","","","","","","","","","","","","","","","",""
"","","","","","html-keyboard-response","112","298453","0.0-2.0-7.0-0.6","63cff40ebc71e5fcdcf3f8dc","F1","batch6","","null","<p class=block-text>Trial 46 out of 78</p>","null","pattern_show_trial_num","","","","","","","","","","","","","","","","","","","","","","","","",""
"","","","","","image-keyboard-response","113","300234","0.0-2.0-7.0-1.6","63cff40ebc71e5fcdcf3f8dc","F1","batch6","","1779.2000002861023","stim/yes_48_dia_w1_w.png","f","pattern_response","true","f","pattern_69","1779.2000002861023","true","39","","","","","","","","","","","","","","","","","","",""
"","","","","","html-keyboard-response","114","301541","0.0-2.0-7.0-0.7","63cff40ebc71e5fcdcf3f8dc","F1","batch6","","null","<p class=block-text>Trial 47 out of 78</p>","null","pattern_show_trial_num","","","","","","","","","","","","","","","","","","","","","","","","",""
"","","","","","image-keyboard-response","115","304199","0.0-2.0-7.0-1.7","63cff40ebc71e5fcdcf3f8dc","F1","batch6","","2656.0999999046326","stim/no_42_1_w.png","j","pattern_response","true","j","pattern_22","2656.0999999046326","true","40","","","","","","","","","","","","","","","","","","",""
"","","","","","html-keyboard-response","116","305521","0.0-2.0-7.0-0.8","63cff40ebc71e5fcdcf3f8dc","F1","batch6","","null","<p class=block-text>Trial 48 out of 78</p>","null","pattern_show_trial_num","","","","","","","","","","","","","","","","","","","","","","","","",""
"","","","","","image-keyboard-response","117","306363","0.0-2.0-7.0-1.8","63cff40ebc71e5fcdcf3f8dc","F1","batch6","","840.9000000953674","stim/yes_25_hor_b1_b.png","f","pattern_response","true","f","pattern_49","840.9000000953674","true","41","","","","","","","","","","","","","","","","","","",""
"","","","","","html-keyboard-response","118","307686","0.0-2.0-7.0-0.9","63cff40ebc71e5fcdcf3f8dc","F1","batch6","","null","<p class=block-text>Trial 49 out of 78</p>","null","pattern_show_trial_num","","","","","","","","","","","","","","","","","","","","","","","","",""
"","","","","","image-keyboard-response","119","308934","0.0-2.0-7.0-1.9","63cff40ebc71e5fcdcf3f8dc","F1","batch6","","1246.3000001907349","stim/yes_45_hor_b2_b.png","f","pattern_response","true","f","pattern_67","1246.3000001907349","true","42","","","","","","","","","","","","","","","","","","",""
"","","","","","html-keyboard-response","120","310252","0.0-2.0-7.0-0.10","63cff40ebc71e5fcdcf3f8dc","F1","batch6","","null","<p class=block-text>Trial 50 out of 78</p>","null","pattern_show_trial_num","","","","","","","","","","","","","","","","","","","","","","","","",""
"","","","","","image-keyboard-response","121","315051","0.0-2.0-7.0-1.10","63cff40ebc71e5fcdcf3f8dc","F1","batch6","","4797.299999713898","stim/no_65_1_b.png","j","pattern_response","true","j","pattern_38","4797.299999713898","true","43","","","","","","","","","","","","","","","","","","",""
"","","","","","html-keyboard-response","122","316366","0.0-2.0-7.0-0.11","63cff40ebc71e5fcdcf3f8dc","F1","batch6","","null","<p class=block-text>Trial 51 out of 78</p>","null","pattern_show_trial_num","","","","","","","","","","","","","","","","","","","","","","","","",""
"","","","","","image-keyboard-response","123","319493","0.0-2.0-7.0-1.11","63cff40ebc71e5fcdcf3f8dc","F1","batch6","","3124.800000190735","stim/no_46_1_b.png","j","pattern_response","true","j","pattern_26","3124.800000190735","true","44","","","","","","","","","","","","","","","","","","",""
"","","","","","html-keyboard-response","124","320802","0.0-2.0-7.0-0.12","63cff40ebc71e5fcdcf3f8dc","F1","batch6","","null","<p class=block-text>Trial 52 out of 78</p>","null","pattern_show_trial_num","","","","","","","","","","","","","","","","","","","","","","","","",""
"","","","","","image-keyboard-response","125","321679","0.0-2.0-7.0-1.12","63cff40ebc71e5fcdcf3f8dc","F1","batch6","","875","stim/yes_14_hor_b1_w.png","f","pattern_response","true","f","pattern_43","875","true","45","","","","","","","","","","","","","","","","","","",""
"","","","","","html-keyboard-response","126","323001","0.0-2.0-7.0-0.13","63cff40ebc71e5fcdcf3f8dc","F1","batch6","","null","<p class=block-text>Trial 53 out of 78</p>","null","pattern_show_trial_num","","","","","","","","","","","","","","","","","","","","","","","","",""
"","","","","","image-keyboard-response","127","325364","0.0-2.0-7.0-1.13","63cff40ebc71e5fcdcf3f8dc","F1","batch6","","2361.2000002861023","stim/no_23_1.png","f","pattern_response","false","j","pattern_08","2361.2000002861023","false","45","","","","","","","","","","","","","","","","","","",""
"","","","","","html-keyboard-response","128","326678","0.0-2.0-7.0-0.14","63cff40ebc71e5fcdcf3f8dc","F1","batch6","","null","<p class=block-text>Trial 54 out of 78</p>","null","pattern_show_trial_num","","","","","","","","","","","","","","","","","","","","","","","","",""
"","","","","","image-keyboard-response","129","329303","0.0-2.0-7.0-1.14","63cff40ebc71e5fcdcf3f8dc","F1","batch6","","2623.5999999046326","stim/no_26_1_w.png","j","pattern_response","true","j","pattern_10","2623.5999999046326","true","46","","","","","","","","","","","","","","","","","","",""
"","","","","","html-keyboard-response","130","330624","0.0-2.0-7.0-0.15","63cff40ebc71e5fcdcf3f8dc","F1","batch6","","null","<p class=block-text>Trial 55 out of 78</p>","null","pattern_show_trial_num","","","","","","","","","","","","","","","","","","","","","","","","",""
"","","","","","image-keyboard-response","131","334771","0.0-2.0-7.0-1.15","63cff40ebc71e5fcdcf3f8dc","F1","batch6","","4145.200000286102","stim/no_62_1_w.png","j","pattern_response","true","j","pattern_36","4145.200000286102","true","47","","","","","","","","","","","","","","","","","","",""
"","","","","","html-keyboard-response","132","336085","0.0-2.0-7.0-0.16","63cff40ebc71e5fcdcf3f8dc","F1","batch6","","null","<p class=block-text>Trial 56 out of 78</p>","null","pattern_show_trial_num","","","","","","","","","","","","","","","","","","","","","","","","",""
"","","","","","image-keyboard-response","133","338421","0.0-2.0-7.0-1.16","63cff40ebc71e5fcdcf3f8dc","F1","batch6","","2335.0999999046326","stim/no_44_1.png","j","pattern_response","true","j","pattern_24","2335.0999999046326","true","48","","","","","","","","","","","","","","","","","","",""
"","","","","","html-keyboard-response","134","339739","0.0-2.0-7.0-0.17","63cff40ebc71e5fcdcf3f8dc","F1","batch6","","null","<p class=block-text>Trial 57 out of 78</p>","null","pattern_show_trial_num","","","","","","","","","","","","","","","","","","","","","","","","",""
"","","","","","image-keyboard-response","135","342948","0.0-2.0-7.0-1.17","63cff40ebc71e5fcdcf3f8dc","F1","batch6","","3208.0999999046326","stim/yes_67_hor_b1.png","f","pattern_response","true","f","pattern_79","3208.0999999046326","true","49","","","","","","","","","","","","","","","","","","",""
"","","","","","html-keyboard-response","136","344272","0.0-2.0-7.0-0.18","63cff40ebc71e5fcdcf3f8dc","F1","batch6","","null","<p class=block-text>Trial 58 out of 78</p>","null","pattern_show_trial_num","","","","","","","","","","","","","","","","","","","","","","","","",""
"","","","","","image-keyboard-response","137","348145","0.0-2.0-7.0-1.18","63cff40ebc71e5fcdcf3f8dc","F1","batch6","","3872.5999999046326","stim/no_36_2_w.png","j","pattern_response","true","j","pattern_18","3872.5999999046326","true","50","","","","","","","","","","","","","","","","","","",""
"","","","","","html-keyboard-response","138","349461","0.0-2.0-7.0-0.19","63cff40ebc71e5fcdcf3f8dc","F1","batch6","","null","<p class=block-text>Trial 59 out of 78</p>","null","pattern_show_trial_num","","","","","","","","","","","","","","","","","","","","","","","","",""
"","","","","","image-keyboard-response","139","350488","0.0-2.0-7.0-1.19","63cff40ebc71e5fcdcf3f8dc","F1","batch6","","1026.5","stim/yes_40_dia_b1_b.png","f","pattern_response","true","f","pattern_63","1026.5","true","51","","","","","","","","","","","","","","","","","","",""
"","","","","","html-keyboard-response","140","351807","0.0-2.0-7.0-0.20","63cff40ebc71e5fcdcf3f8dc","F1","batch6","","null","<p class=block-text>Trial 60 out of 78</p>","null","pattern_show_trial_num","","","","","","","","","","","","","","","","","","","","","","","","",""
"","","","","","image-keyboard-response","141","354827","0.0-2.0-7.0-1.20","63cff40ebc71e5fcdcf3f8dc","F1","batch6","","3018.9000000953674","stim/yes_55_hor_w1_w.png","f","pattern_response","true","f","pattern_75","3018.9000000953674","true","52","","","","","","","","","","","","","","","","","","",""
"","","","","","html-keyboard-response","142","356142","0.0-2.0-7.0-0.21","63cff40ebc71e5fcdcf3f8dc","F1","batch6","","null","<p class=block-text>Trial 61 out of 78</p>","null","pattern_show_trial_num","","","","","","","","","","","","","","","","","","","","","","","","",""
"","","","","","image-keyboard-response","143","360300","0.0-2.0-7.0-1.21","63cff40ebc71e5fcdcf3f8dc","F1","batch6","","4157.199999809265","stim/yes_38_hor_b1_b.png","f","pattern_response","true","f","pattern_61","4157.199999809265","true","53","","","","","","","","","","","","","","","","","","",""
"","","","","","html-keyboard-response","144","361622","0.0-2.0-7.0-0.22","63cff40ebc71e5fcdcf3f8dc","F1","batch6","","null","<p class=block-text>Trial 62 out of 78</p>","null","pattern_show_trial_num","","","","","","","","","","","","","","","","","","","","","","","","",""
"","","","","","image-keyboard-response","145","363034","0.0-2.0-7.0-1.22","63cff40ebc71e5fcdcf3f8dc","F1","batch6","","1410.6999998092651","stim/yes_43_ver_w1_w.png","f","pattern_response","true","f","pattern_65","1410.6999998092651","true","54","","","","","","","","","","","","","","","","","","",""
"","","","","","html-keyboard-response","146","364341","0.0-2.0-7.0-0.23","63cff40ebc71e5fcdcf3f8dc","F1","batch6","","null","<p class=block-text>Trial 63 out of 78</p>","null","pattern_show_trial_num","","","","","","","","","","","","","","","","","","","","","","","","",""
"","","","","","image-keyboard-response","147","366966","0.0-2.0-7.0-1.23","63cff40ebc71e5fcdcf3f8dc","F1","batch6","","2623.699999809265","stim/no_55_1_w.png","j","pattern_response","true","j","pattern_34","2623.699999809265","true","55","","","","","","","","","","","","","","","","","","",""
"","","","","","html-keyboard-response","148","368285","0.0-2.0-7.0-0.24","63cff40ebc71e5fcdcf3f8dc","F1","batch6","","null","<p class=block-text>Trial 64 out of 78</p>","null","pattern_show_trial_num","","","","","","","","","","","","","","","","","","","","","","","","",""
"","","","","","image-keyboard-response","149","371872","0.0-2.0-7.0-1.24","63cff40ebc71e5fcdcf3f8dc","F1","batch6","","3586.2000002861023","stim/yes_60_ver_b1_b.png","j","pattern_response","false","f","pattern_77","3586.2000002861023","false","55","","","","","","","","","","","","","","","","","","",""
"","","","","","html-keyboard-response","150","373191","0.0-2.0-7.0-0.25","63cff40ebc71e5fcdcf3f8dc","F1","batch6","","null","<p class=block-text>Trial 65 out of 78</p>","null","pattern_show_trial_num","","","","","","","","","","","","","","","","","","","","","","","","",""
"","","","","","image-keyboard-response","151","375674","0.0-2.0-7.0-1.25","63cff40ebc71e5fcdcf3f8dc","F1","batch6","","2481.5999999046326","stim/no_20_1_w.png","j","pattern_response","true","j","pattern_06","2481.5999999046326","true","56","","","","","","","","","","","","","","","","","","",""
"","","","","","html-keyboard-response","152","376984","0.0-2.0-7.0-0.26","63cff40ebc71e5fcdcf3f8dc","F1","batch6","","null","<p class=block-text>Trial 66 out of 78</p>","null","pattern_show_trial_num","","","","","","","","","","","","","","","","","","","","","","","","",""
"","","","","","image-keyboard-response","153","378649","0.0-2.0-7.0-1.26","63cff40ebc71e5fcdcf3f8dc","F1","batch6","","1664.5","stim/yes_35_dia_b1.png","f","pattern_response","true","f","pattern_57","1664.5","true","57","","","","","","","","","","","","","","","","","","",""
"","","","","","html-keyboard-response","154","379971","0.0-2.0-7.0-0.27","63cff40ebc71e5fcdcf3f8dc","F1","batch6","","null","<p class=block-text>Trial 67 out of 78</p>","null","pattern_show_trial_num","","","","","","","","","","","","","","","","","","","","","","","","",""
"","","","","","image-keyboard-response","155","381337","0.0-2.0-7.0-1.27","63cff40ebc71e5fcdcf3f8dc","F1","batch6","","1365.2999997138977","stim/yes_17_dia_w1.png","f","pattern_response","true","f","pattern_45","1365.2999997138977","true","58","","","","","","","","","","","","","","","","","","",""
"","","","","","html-keyboard-response","156","382663","0.0-2.0-7.0-0.28","63cff40ebc71e5fcdcf3f8dc","F1","batch6","","null","<p class=block-text>Trial 68 out of 78</p>","null","pattern_show_trial_num","","","","","","","","","","","","","","","","","","","","","","","","",""
"","","","","","image-keyboard-response","157","384830","0.0-2.0-7.0-1.28","63cff40ebc71e5fcdcf3f8dc","F1","batch6","","2165.9000000953674","stim/no_32_1_w.png","j","pattern_response","true","j","pattern_14","2165.9000000953674","true","59","","","","","","","","","","","","","","","","","","",""
"","","","","","html-keyboard-response","158","386140","0.0-2.0-7.0-0.29","63cff40ebc71e5fcdcf3f8dc","F1","batch6","","null","<p class=block-text>Trial 69 out of 78</p>","null","pattern_show_trial_num","","","","","","","","","","","","","","","","","","","","","","","","",""
"","","","","","image-keyboard-response","159","388940","0.0-2.0-7.0-1.29","63cff40ebc71e5fcdcf3f8dc","F1","batch6","","2798.9000000953674","stim/yes_29_ver_w1.png","f","pattern_response","true","f","pattern_53","2798.9000000953674","true","60","","","","","","","","","","","","","","","","","","",""
"","","","","","html-keyboard-response","160","390254","0.0-2.0-7.0-0.30","63cff40ebc71e5fcdcf3f8dc","F1","batch6","","null","<p class=block-text>Trial 70 out of 78</p>","null","pattern_show_trial_num","","","","","","","","","","","","","","","","","","","","","","","","",""
"","","","","","image-keyboard-response","161","391392","0.0-2.0-7.0-1.30","63cff40ebc71e5fcdcf3f8dc","F1","batch6","","1137","stim/yes_52_ver_w1.png","f","pattern_response","true","f","pattern_73","1137","true","61","","","","","","","","","","","","","","","","","","",""
"","","","","","html-keyboard-response","162","392710","0.0-2.0-7.0-0.31","63cff40ebc71e5fcdcf3f8dc","F1","batch6","","null","<p class=block-text>Trial 71 out of 78</p>","null","pattern_show_trial_num","","","","","","","","","","","","","","","","","","","","","","","","",""
"","","","","","image-keyboard-response","163","395808","0.0-2.0-7.0-1.31","63cff40ebc71e5fcdcf3f8dc","F1","batch6","","3097.5999999046326","stim/no_52_1.png","j","pattern_response","true","j","pattern_32","3097.5999999046326","true","62","","","","","","","","","","","","","","","","","","",""
"","","","","","html-keyboard-response","164","397125","0.0-2.0-7.0-0.32","63cff40ebc71e5fcdcf3f8dc","F1","batch6","","null","<p class=block-text>Trial 72 out of 78</p>","null","pattern_show_trial_num","","","","","","","","","","","","","","","","","","","","","","","","",""
"","","","","","image-keyboard-response","165","400078","0.0-2.0-7.0-1.32","63cff40ebc71e5fcdcf3f8dc","F1","batch6","","2949.0999999046326","stim/no_50_1.png","j","pattern_response","true","j","pattern_30","2949.0999999046326","true","63","","","","","","","","","","","","","","","","","","",""
"","","","","","html-keyboard-response","166","401399","0.0-2.0-7.0-0.33","63cff40ebc71e5fcdcf3f8dc","F1","batch6","","null","<p class=block-text>Trial 73 out of 78</p>","null","pattern_show_trial_num","","","","","","","","","","","","","","","","","","","","","","","","",""
"","","","","","image-keyboard-response","167","403356","0.0-2.0-7.0-1.33","63cff40ebc71e5fcdcf3f8dc","F1","batch6","","1955.5","stim/yes_31_hor_b1.png","f","pattern_response","true","f","pattern_55","1955.5","true","64","","","","","","","","","","","","","","","","","","",""
"","","","","","html-keyboard-response","168","404664","0.0-2.0-7.0-0.34","63cff40ebc71e5fcdcf3f8dc","F1","batch6","","null","<p class=block-text>Trial 74 out of 78</p>","null","pattern_show_trial_num","","","","","","","","","","","","","","","","","","","","","","","","",""
"","","","","","image-keyboard-response","169","409055","0.0-2.0-7.0-1.34","63cff40ebc71e5fcdcf3f8dc","F1","batch6","","4389.300000190735","stim/no_70_2.png","j","pattern_response","true","j","pattern_40","4389.300000190735","true","65","","","","","","","","","","","","","","","","","","",""
"","","","","","html-keyboard-response","170","410363","0.0-2.0-7.0-0.35","63cff40ebc71e5fcdcf3f8dc","F1","batch6","","null","<p class=block-text>Trial 75 out of 78</p>","null","pattern_show_trial_num","","","","","","","","","","","","","","","","","","","","","","","","",""
"","","","","","image-keyboard-response","171","413479","0.0-2.0-7.0-1.35","63cff40ebc71e5fcdcf3f8dc","F1","batch6","","3114.699999809265","stim/no_34_1_b.png","j","pattern_response","true","j","pattern_16","3114.699999809265","true","66","","","","","","","","","","","","","","","","","","",""
"","","","","","html-keyboard-response","172","414805","0.0-2.0-7.0-0.36","63cff40ebc71e5fcdcf3f8dc","F1","batch6","","null","<p class=block-text>Trial 76 out of 78</p>","null","pattern_show_trial_num","","","","","","","","","","","","","","","","","","","","","","","","",""
"","","","","","image-keyboard-response","173","417655","0.0-2.0-7.0-1.36","63cff40ebc71e5fcdcf3f8dc","F1","batch6","","2849.2999997138977","stim/no_48_1_w.png","j","pattern_response","true","j","pattern_28","2849.2999997138977","true","67","","","","","","","","","","","","","","","","","","",""
"","","","","","html-keyboard-response","174","418972","0.0-2.0-7.0-0.37","63cff40ebc71e5fcdcf3f8dc","F1","batch6","","null","<p class=block-text>Trial 77 out of 78</p>","null","pattern_show_trial_num","","","","","","","","","","","","","","","","","","","","","","","","",""
"","","","","","image-keyboard-response","175","419891","0.0-2.0-7.0-1.37","63cff40ebc71e5fcdcf3f8dc","F1","batch6","","917.5","stim/yes_22_ver_w1.png","f","pattern_response","true","f","pattern_47","917.5","true","68","","","","","","","","","","","","","","","","","","",""
"","","","","","html-keyboard-response","176","421210","0.0-2.0-7.0-0.38","63cff40ebc71e5fcdcf3f8dc","F1","batch6","","null","<p class=block-text>Trial 78 out of 78</p>","null","pattern_show_trial_num","","","","","","","","","","","","","","","","","","","","","","","","",""
"","","","","","image-keyboard-response","177","422883","0.0-2.0-7.0-1.38","63cff40ebc71e5fcdcf3f8dc","F1","batch6","","1671.7999997138977","stim/no_17_1_w.png","j","pattern_response","true","j","pattern_04","1671.7999997138977","true","69","","","","","","","","","","","","","","","","","","",""
"","","","","","html-button-response","178","445508","0.0-2.0-8.0","63cff40ebc71e5fcdcf3f8dc","F1","batch6","","22107.5","<p class = block-text>This concludes the 4-in-a-row detection game.Thank you for your responses!<br>
            You responded correctly on 88% of the trials.<br>
            When you are ready, press ""Continue"" button to continue </p>","0","","","","","","","","","","","","","","","","","","","","","","","","","",""
"true","","","","","fullscreen","179","451939","0.0-3.0-0.0","63cff40ebc71e5fcdcf3f8dc","F1","batch6","","","","","spm_fullscreen","","","","","","","","","","","","","","","","","","","","","","","","",""
"","","","","","html-button-response","180","469004","0.0-3.0-1.0","63cff40ebc71e5fcdcf3f8dc","F1","batch6","","17063.799999713898","<p class = block-text><b>Instructions</b> <br>This is a widely used intelligence test in research. <br>In this test, a figure with a missing piece will be presented.<br>Below the figure are alternative pieces to complete the figure, only one of which is correct.<br> Different figures might involve different principles for obtaining the missing piece<br>Your job is to select the most logical piece to complete the figure.</p>","0","","","","","","","","","","","","","","","","","","","","","","","","","",""
"","","","","","html-keyboard-response","181","469804","0.0-3.0-2.0-0.0","63cff40ebc71e5fcdcf3f8dc","F1","batch6","","null","<p class=block-text>Trial 1 out of 60</p>","null","spm_show_trial_num","","","","","","","","","","","","","","","","","","","","","","","","",""
"","","","","","image-button-response","182","480802","0.0-3.0-2.0-1.0","63cff40ebc71e5fcdcf3f8dc","F1","batch6","","10996.10000038147","img/question_1_1.jpeg","1","spm_respsonse","0","4","mat_01","","","","","","0","10996.10000038147","","","","","","","","","","","","","","",""
"","","","","","html-keyboard-response","183","481868","0.0-3.0-2.0-0.1","63cff40ebc71e5fcdcf3f8dc","F1","batch6","","null","<p class=block-text>Trial 2 out of 60</p>","null","spm_show_trial_num","","","","","","","","","","","","","","","","","","","","","","","","",""
"","","","","","image-button-response","184","487957","0.0-3.0-2.0-1.1","63cff40ebc71e5fcdcf3f8dc","F1","batch6","","6088","img/question_1_2.jpeg","4","spm_respsonse","1","5","mat_02","","","","","","1","6088","","","","","","","","","","","","","","",""
"","","","","","html-keyboard-response","185","489010","0.0-3.0-2.0-0.2","63cff40ebc71e5fcdcf3f8dc","F1","batch6","","null","<p class=block-text>Trial 3 out of 60</p>","null","spm_show_trial_num","","","","","","","","","","","","","","","","","","","","","","","","",""
"","","","","","image-button-response","186","491805","0.0-3.0-2.0-1.2","63cff40ebc71e5fcdcf3f8dc","F1","batch6","","2794.199999809265","img/question_1_3.jpeg","0","spm_respsonse","1","1","mat_03","","","","","","1","2794.199999809265","","","","","","","","","","","","","","",""
"","","","","","html-keyboard-response","187","492856","0.0-3.0-2.0-0.3","63cff40ebc71e5fcdcf3f8dc","F1","batch6","","null","<p class=block-text>Trial 4 out of 60</p>","null","spm_show_trial_num","","","","","","","","","","","","","","","","","","","","","","","","",""
"","","","","","image-button-response","188","495585","0.0-3.0-2.0-1.3","63cff40ebc71e5fcdcf3f8dc","F1","batch6","","2726.7999997138977","img/question_1_4.jpeg","1","spm_respsonse","1","2","mat_04","","","","","","1","2726.7999997138977","","","","","","","","","","","","","","",""
"","","","","","html-keyboard-response","189","496648","0.0-3.0-2.0-0.4","63cff40ebc71e5fcdcf3f8dc","F1","batch6","","null","<p class=block-text>Trial 5 out of 60</p>","null","spm_show_trial_num","","","","","","","","","","","","","","","","","","","","","","","","",""
"","","","","","image-button-response","190","499559","0.0-3.0-2.0-1.4","63cff40ebc71e5fcdcf3f8dc","F1","batch6","","2909.8999996185303","img/question_1_5.jpeg","5","spm_respsonse","1","6","mat_05","","","","","","1","2909.8999996185303","","","","","","","","","","","","","","",""
"","","","","","html-keyboard-response","191","500611","0.0-3.0-2.0-0.5","63cff40ebc71e5fcdcf3f8dc","F1","batch6","","null","<p class=block-text>Trial 6 out of 60</p>","null","spm_show_trial_num","","","","","","","","","","","","","","","","","","","","","","","","",""
"","","","","","image-button-response","192","503856","0.0-3.0-2.0-1.5","63cff40ebc71e5fcdcf3f8dc","F1","batch6","","3243.199999809265","img/question_1_6.jpeg","2","spm_respsonse","1","3","mat_06","","","","","","1","3243.199999809265","","","","","","","","","","","","","","",""
"","","","","","html-keyboard-response","193","504918","0.0-3.0-2.0-0.6","63cff40ebc71e5fcdcf3f8dc","F1","batch6","","null","<p class=block-text>Trial 7 out of 60</p>","null","spm_show_trial_num","","","","","","","","","","","","","","","","","","","","","","","","",""
"","","","","","image-button-response","194","509895","0.0-3.0-2.0-1.6","63cff40ebc71e5fcdcf3f8dc","F1","batch6","","4975.10000038147","img/question_1_7.jpeg","5","spm_respsonse","1","6","mat_07","","","","","","1","4975.10000038147","","","","","","","","","","","","","","",""
"","","","","","html-keyboard-response","195","510953","0.0-3.0-2.0-0.7","63cff40ebc71e5fcdcf3f8dc","F1","batch6","","null","<p class=block-text>Trial 8 out of 60</p>","null","spm_show_trial_num","","","","","","","","","","","","","","","","","","","","","","","","",""
"","","","","","image-button-response","196","519938","0.0-3.0-2.0-1.7","63cff40ebc71e5fcdcf3f8dc","F1","batch6","","8983","img/question_1_8.jpeg","1","spm_respsonse","1","2","mat_08","","","","","","1","8983","","","","","","","","","","","","","","",""
"","","","","","html-keyboard-response","197","520990","0.0-3.0-2.0-0.8","63cff40ebc71e5fcdcf3f8dc","F1","batch6","","null","<p class=block-text>Trial 9 out of 60</p>","null","spm_show_trial_num","","","","","","","","","","","","","","","","","","","","","","","","",""
"","","","","","image-button-response","198","523613","0.0-3.0-2.0-1.8","63cff40ebc71e5fcdcf3f8dc","F1","batch6","","2621.9000000953674","img/question_1_9.jpeg","0","spm_respsonse","1","1","mat_09","","","","","","1","2621.9000000953674","","","","","","","","","","","","","","",""
"","","","","","html-keyboard-response","199","524664","0.0-3.0-2.0-0.9","63cff40ebc71e5fcdcf3f8dc","F1","batch6","","null","<p class=block-text>Trial 10 out of 60</p>","null","spm_show_trial_num","","","","","","","","","","","","","","","","","","","","","","","","",""
"","","","","","image-button-response","200","529133","0.0-3.0-2.0-1.9","63cff40ebc71e5fcdcf3f8dc","F1","batch6","","4466.900000095367","img/question_1_10.jpeg","2","spm_respsonse","1","3","mat_10","","","","","","1","4466.900000095367","","","","","","","","","","","","","","",""
"","","","","","html-keyboard-response","201","530184","0.0-3.0-2.0-0.10","63cff40ebc71e5fcdcf3f8dc","F1","batch6","","null","<p class=block-text>Trial 11 out of 60</p>","null","spm_show_trial_num","","","","","","","","","","","","","","","","","","","","","","","","",""
"","","","","","image-button-response","202","533805","0.0-3.0-2.0-1.10","63cff40ebc71e5fcdcf3f8dc","F1","batch6","","3619.5999999046326","img/question_1_11.jpeg","0","spm_respsonse","0","4","mat_11","","","","","","0","3619.5999999046326","","","","","","","","","","","","","","",""
"","","","","","html-keyboard-response","203","534883","0.0-3.0-2.0-0.11","63cff40ebc71e5fcdcf3f8dc","F1","batch6","","null","<p class=block-text>Trial 12 out of 60</p>","null","spm_show_trial_num","","","","","","","","","","","","","","","","","","","","","","","","",""
"","","","","","image-button-response","204","539549","0.0-3.0-2.0-1.11","63cff40ebc71e5fcdcf3f8dc","F1","batch6","","4665.300000190735","img/question_1_12.jpeg","0","spm_respsonse","0","5","mat_12","","","","","","0","4665.300000190735","","","","","","","","","","","","","","",""
"","","","","","html-keyboard-response","205","540611","0.0-3.0-2.0-0.12","63cff40ebc71e5fcdcf3f8dc","F1","batch6","","null","<p class=block-text>Trial 13 out of 60</p>","null","spm_show_trial_num","","","","","","","","","","","","","","","","","","","","","","","","",""
"","","","","","image-button-response","206","543630","0.0-3.0-2.0-1.12","63cff40ebc71e5fcdcf3f8dc","F1","batch6","","3017.5","img/question_2_1.jpeg","1","spm_respsonse","1","2","mat_13","","","","","","1","3017.5","","","","","","","","","","","","","","",""
"","","","","","html-keyboard-response","207","544694","0.0-3.0-2.0-0.13","63cff40ebc71e5fcdcf3f8dc","F1","batch6","","null","<p class=block-text>Trial 14 out of 60</p>","null","spm_show_trial_num","","","","","","","","","","","","","","","","","","","","","","","","",""
"","","","","","image-button-response","208","549045","0.0-3.0-2.0-1.13","63cff40ebc71e5fcdcf3f8dc","F1","batch6","","4350","img/question_2_2.jpeg","2","spm_respsonse","0","6","mat_14","","","","","","0","4350","","","","","","","","","","","","","","",""
"","","","","","html-keyboard-response","209","550102","0.0-3.0-2.0-0.14","63cff40ebc71e5fcdcf3f8dc","F1","batch6","","null","<p class=block-text>Trial 15 out of 60</p>","null","spm_show_trial_num","","","","","","","","","","","","","","","","","","","","","","","","",""
"","","","","","image-button-response","210","555271","0.0-3.0-2.0-1.14","63cff40ebc71e5fcdcf3f8dc","F1","batch6","","5168.099999904633","img/question_2_3.jpeg","0","spm_respsonse","1","1","mat_15","","","","","","1","5168.099999904633","","","","","","","","","","","","","","",""
"","","","","","html-keyboard-response","211","556347","0.0-3.0-2.0-0.15","63cff40ebc71e5fcdcf3f8dc","F1","batch6","","null","<p class=block-text>Trial 16 out of 60</p>","null","spm_show_trial_num","","","","","","","","","","","","","","","","","","","","","","","","",""
"","","","","","image-button-response","212","561622","0.0-3.0-2.0-1.15","63cff40ebc71e5fcdcf3f8dc","F1","batch6","","5273.699999809265","img/question_2_4.jpeg","1","spm_respsonse","1","2","mat_16","","","","","","1","5273.699999809265","","","","","","","","","","","","","","",""
"","","","","","html-keyboard-response","213","562675","0.0-3.0-2.0-0.16","63cff40ebc71e5fcdcf3f8dc","F1","batch6","","null","<p class=block-text>Trial 17 out of 60</p>","null","spm_show_trial_num","","","","","","","","","","","","","","","","","","","","","","","","",""
"","","","","","image-button-response","214","566670","0.0-3.0-2.0-1.16","63cff40ebc71e5fcdcf3f8dc","F1","batch6","","3993.2000002861023","img/question_2_5.jpeg","0","spm_respsonse","1","1","mat_17","","","","","","1","3993.2000002861023","","","","","","","","","","","","","","",""
"","","","","","html-keyboard-response","215","567722","0.0-3.0-2.0-0.17","63cff40ebc71e5fcdcf3f8dc","F1","batch6","","null","<p class=block-text>Trial 18 out of 60</p>","null","spm_show_trial_num","","","","","","","","","","","","","","","","","","","","","","","","",""
"","","","","","image-button-response","216","573817","0.0-3.0-2.0-1.17","63cff40ebc71e5fcdcf3f8dc","F1","batch6","","6093.900000095367","img/question_2_6.jpeg","2","spm_respsonse","1","3","mat_18","","","","","","1","6093.900000095367","","","","","","","","","","","","","","",""
"","","","","","html-keyboard-response","217","574869","0.0-3.0-2.0-0.18","63cff40ebc71e5fcdcf3f8dc","F1","batch6","","null","<p class=block-text>Trial 19 out of 60</p>","null","spm_show_trial_num","","","","","","","","","","","","","","","","","","","","","","","","",""
"","","","","","image-button-response","218","581452","0.0-3.0-2.0-1.18","63cff40ebc71e5fcdcf3f8dc","F1","batch6","","6581.599999904633","img/question_2_7.jpeg","4","spm_respsonse","1","5","mat_19","","","","","","1","6581.599999904633","","","","","","","","","","","","","","",""
"","","","","","html-keyboard-response","219","582504","0.0-3.0-2.0-0.19","63cff40ebc71e5fcdcf3f8dc","F1","batch6","","null","<p class=block-text>Trial 20 out of 60</p>","null","spm_show_trial_num","","","","","","","","","","","","","","","","","","","","","","","","",""
"","","","","","image-button-response","220","590729","0.0-3.0-2.0-1.19","63cff40ebc71e5fcdcf3f8dc","F1","batch6","","8224.400000095367","img/question_2_8.jpeg","5","spm_respsonse","1","6","mat_20","","","","","","1","8224.400000095367","","","","","","","","","","","","","","",""
"","","","","","html-keyboard-response","221","591781","0.0-3.0-2.0-0.20","63cff40ebc71e5fcdcf3f8dc","F1","batch6","","null","<p class=block-text>Trial 21 out of 60</p>","null","spm_show_trial_num","","","","","","","","","","","","","","","","","","","","","","","","",""
"","","","","","image-button-response","222","598710","0.0-3.0-2.0-1.20","63cff40ebc71e5fcdcf3f8dc","F1","batch6","","6927.599999904633","img/question_2_9.jpeg","3","spm_respsonse","1","4","mat_21","","","","","","1","6927.599999904633","","","","","","","","","","","","","","",""
"","","","","","html-keyboard-response","223","599762","0.0-3.0-2.0-0.21","63cff40ebc71e5fcdcf3f8dc","F1","batch6","","null","<p class=block-text>Trial 22 out of 60</p>","null","spm_show_trial_num","","","","","","","","","","","","","","","","","","","","","","","","",""
"","","","","","image-button-response","224","604290","0.0-3.0-2.0-1.21","63cff40ebc71e5fcdcf3f8dc","F1","batch6","","4525.699999809265","img/question_2_10.jpeg","1","spm_respsonse","0","3","mat_22","","","","","","0","4525.699999809265","","","","","","","","","","","","","","",""
"","","","","","html-keyboard-response","225","605356","0.0-3.0-2.0-0.22","63cff40ebc71e5fcdcf3f8dc","F1","batch6","","null","<p class=block-text>Trial 23 out of 60</p>","null","spm_show_trial_num","","","","","","","","","","","","","","","","","","","","","","","","",""
"","","","","","image-button-response","226","613620","0.0-3.0-2.0-1.22","63cff40ebc71e5fcdcf3f8dc","F1","batch6","","8263.200000286102","img/question_2_11.jpeg","3","spm_respsonse","1","4","mat_23","","","","","","1","8263.200000286102","","","","","","","","","","","","","","",""
"","","","","","html-keyboard-response","227","614674","0.0-3.0-2.0-0.23","63cff40ebc71e5fcdcf3f8dc","F1","batch6","","null","<p class=block-text>Trial 24 out of 60</p>","null","spm_show_trial_num","","","","","","","","","","","","","","","","","","","","","","","","",""
"","","","","","image-button-response","228","624540","0.0-3.0-2.0-1.23","63cff40ebc71e5fcdcf3f8dc","F1","batch6","","9864.900000095367","img/question_2_12.jpeg","4","spm_respsonse","1","5","mat_24","","","","","","1","9864.900000095367","","","","","","","","","","","","","","",""
"","","","","","html-button-response","229","627120","0.0-3.0-3.0","63cff40ebc71e5fcdcf3f8dc","F1","batch6","","2327.9000000953674","<p class = block-text>Attention check: Please choose 1<br></p>","0","attention_check","true","","","","","","","","","","","","","","","","","","","","","","","",""
"","","","","","html-keyboard-response","230","627921","0.0-3.0-4.0-0.0","63cff40ebc71e5fcdcf3f8dc","F1","batch6","","null","<p class=block-text>Trial 25 out of 60</p>","null","spm_show_trial_num","","","","","","","","","","","","","","","","","","","","","","","","",""
"","","","","","image-button-response","231","635444","0.0-3.0-4.0-1.0","63cff40ebc71e5fcdcf3f8dc","F1","batch6","","7521.60000038147","img/question_3_1.jpeg","7","spm_respsonse","1","8","mat_25","","","","","","1","7521.60000038147","","","","","","","","","","","","","","",""
"","","","","","html-keyboard-response","232","636496","0.0-3.0-4.0-0.1","63cff40ebc71e5fcdcf3f8dc","F1","batch6","","null","<p class=block-text>Trial 26 out of 60</p>","null","spm_show_trial_num","","","","","","","","","","","","","","","","","","","","","","","","",""
"","","","","","image-button-response","233","642516","0.0-3.0-4.0-1.1","63cff40ebc71e5fcdcf3f8dc","F1","batch6","","6019.099999904633","img/question_3_2.jpeg","1","spm_respsonse","1","2","mat_26","","","","","","1","6019.099999904633","","","","","","","","","","","","","","",""
"","","","","","html-keyboard-response","234","643573","0.0-3.0-4.0-0.2","63cff40ebc71e5fcdcf3f8dc","F1","batch6","","null","<p class=block-text>Trial 27 out of 60</p>","null","spm_show_trial_num","","","","","","","","","","","","","","","","","","","","","","","","",""
"","","","","","image-button-response","235","657073","0.0-3.0-4.0-1.2","63cff40ebc71e5fcdcf3f8dc","F1","batch6","","13499.5","img/question_3_3.jpeg","2","spm_respsonse","1","3","mat_27","","","","","","1","13499.5","","","","","","","","","","","","","","",""
"","","","","","html-keyboard-response","236","658125","0.0-3.0-4.0-0.3","63cff40ebc71e5fcdcf3f8dc","F1","batch6","","null","<p class=block-text>Trial 28 out of 60</p>","null","spm_show_trial_num","","","","","","","","","","","","","","","","","","","","","","","","",""
"","","","","","image-button-response","237","664162","0.0-3.0-4.0-1.3","63cff40ebc71e5fcdcf3f8dc","F1","batch6","","6035","img/question_3_4.jpeg","7","spm_respsonse","1","8","mat_28","","","","","","1","6035","","","","","","","","","","","","","","",""
"","","","","","html-keyboard-response","238","665215","0.0-3.0-4.0-0.4","63cff40ebc71e5fcdcf3f8dc","F1","batch6","","null","<p class=block-text>Trial 29 out of 60</p>","null","spm_show_trial_num","","","","","","","","","","","","","","","","","","","","","","","","",""
"","","","","","image-button-response","239","673350","0.0-3.0-4.0-1.4","63cff40ebc71e5fcdcf3f8dc","F1","batch6","","8133","img/question_3_5.jpeg","6","spm_respsonse","1","7","mat_29","","","","","","1","8133","","","","","","","","","","","","","","",""
"","","","","","html-keyboard-response","240","674401","0.0-3.0-4.0-0.5","63cff40ebc71e5fcdcf3f8dc","F1","batch6","","null","<p class=block-text>Trial 30 out of 60</p>","null","spm_show_trial_num","","","","","","","","","","","","","","","","","","","","","","","","",""
"","","","","","image-button-response","241","679094","0.0-3.0-4.0-1.5","63cff40ebc71e5fcdcf3f8dc","F1","batch6","","4691.700000286102","img/question_3_6.jpeg","3","spm_respsonse","1","4","mat_30","","","","","","1","4691.700000286102","","","","","","","","","","","","","","",""
"","","","","","html-keyboard-response","242","680156","0.0-3.0-4.0-0.6","63cff40ebc71e5fcdcf3f8dc","F1","batch6","","null","<p class=block-text>Trial 31 out of 60</p>","null","spm_show_trial_num","","","","","","","","","","","","","","","","","","","","","","","","",""
"","","","","","image-button-response","243","684045","0.0-3.0-4.0-1.6","63cff40ebc71e5fcdcf3f8dc","F1","batch6","","3888","img/question_3_7.jpeg","3","spm_respsonse","0","5","mat_31","","","","","","0","3888","","","","","","","","","","","","","","",""
"","","","","","html-keyboard-response","244","685098","0.0-3.0-4.0-0.7","63cff40ebc71e5fcdcf3f8dc","F1","batch6","","null","<p class=block-text>Trial 32 out of 60</p>","null","spm_show_trial_num","","","","","","","","","","","","","","","","","","","","","","","","",""
"","","","","","image-button-response","245","692556","0.0-3.0-4.0-1.7","63cff40ebc71e5fcdcf3f8dc","F1","batch6","","7456.200000286102","img/question_3_8.jpeg","0","spm_respsonse","1","1","mat_32","","","","","","1","7456.200000286102","","","","","","","","","","","","","","",""
"","","","","","html-keyboard-response","246","693612","0.0-3.0-4.0-0.8","63cff40ebc71e5fcdcf3f8dc","F1","batch6","","null","<p class=block-text>Trial 33 out of 60</p>","null","spm_show_trial_num","","","","","","","","","","","","","","","","","","","","","","","","",""
"","","","","","image-button-response","247","699802","0.0-3.0-4.0-1.8","63cff40ebc71e5fcdcf3f8dc","F1","batch6","","6188.89999961853","img/question_3_9.jpeg","5","spm_respsonse","0","7","mat_33","","","","","","0","6188.89999961853","","","","","","","","","","","","","","",""
"","","","","","html-keyboard-response","248","700855","0.0-3.0-4.0-0.9","63cff40ebc71e5fcdcf3f8dc","F1","batch6","","null","<p class=block-text>Trial 34 out of 60</p>","null","spm_show_trial_num","","","","","","","","","","","","","","","","","","","","","","","","",""
"","","","","","image-button-response","249","710100","0.0-3.0-4.0-1.9","63cff40ebc71e5fcdcf3f8dc","F1","batch6","","9243.599999904633","img/question_3_10.jpeg","7","spm_respsonse","0","6","mat_34","","","","","","0","9243.599999904633","","","","","","","","","","","","","","",""
"","","","","","html-keyboard-response","250","711152","0.0-3.0-4.0-0.10","63cff40ebc71e5fcdcf3f8dc","F1","batch6","","null","<p class=block-text>Trial 35 out of 60</p>","null","spm_show_trial_num","","","","","","","","","","","","","","","","","","","","","","","","",""
"","","","","","image-button-response","251","722415","0.0-3.0-4.0-1.10","63cff40ebc71e5fcdcf3f8dc","F1","batch6","","11261.10000038147","img/question_3_11.jpeg","3","spm_respsonse","0","1","mat_35","","","","","","0","11261.10000038147","","","","","","","","","","","","","","",""
"","","","","","html-keyboard-response","252","723466","0.0-3.0-4.0-0.11","63cff40ebc71e5fcdcf3f8dc","F1","batch6","","null","<p class=block-text>Trial 36 out of 60</p>","null","spm_show_trial_num","","","","","","","","","","","","","","","","","","","","","","","","",""
"","","","","","image-button-response","253","731181","0.0-3.0-4.0-1.11","63cff40ebc71e5fcdcf3f8dc","F1","batch6","","7713.39999961853","img/question_3_12.jpeg","1","spm_respsonse","1","2","mat_36","","","","","","1","7713.39999961853","","","","","","","","","","","","","","",""
"","","","","","html-keyboard-response","254","732248","0.0-3.0-4.0-0.12","63cff40ebc71e5fcdcf3f8dc","F1","batch6","","null","<p class=block-text>Trial 37 out of 60</p>","null","spm_show_trial_num","","","","","","","","","","","","","","","","","","","","","","","","",""
"","","","","","image-button-response","255","735494","0.0-3.0-4.0-1.12","63cff40ebc71e5fcdcf3f8dc","F1","batch6","","3244.0999999046326","img/question_4_1.jpeg","2","spm_respsonse","1","3","mat_37","","","","","","1","3244.0999999046326","","","","","","","","","","","","","","",""
"","","","","","html-keyboard-response","256","736546","0.0-3.0-4.0-0.13","63cff40ebc71e5fcdcf3f8dc","F1","batch6","","null","<p class=block-text>Trial 38 out of 60</p>","null","spm_show_trial_num","","","","","","","","","","","","","","","","","","","","","","","","",""
"","","","","","image-button-response","257","751543","0.0-3.0-4.0-1.13","63cff40ebc71e5fcdcf3f8dc","F1","batch6","","14996.5","img/question_4_2.jpeg","3","spm_respsonse","1","4","mat_38","","","","","","1","14996.5","","","","","","","","","","","","","","",""
"","","","","","html-keyboard-response","258","752612","0.0-3.0-4.0-0.14","63cff40ebc71e5fcdcf3f8dc","F1","batch6","","null","<p class=block-text>Trial 39 out of 60</p>","null","spm_show_trial_num","","","","","","","","","","","","","","","","","","","","","","","","",""
"","","","","","image-button-response","259","763215","0.0-3.0-4.0-1.14","63cff40ebc71e5fcdcf3f8dc","F1","batch6","","10601.60000038147","img/question_4_3.jpeg","0","spm_respsonse","0","3","mat_39","","","","","","0","10601.60000038147","","","","","","","","","","","","","","",""
"","","","","","html-keyboard-response","260","764280","0.0-3.0-4.0-0.15","63cff40ebc71e5fcdcf3f8dc","F1","batch6","","null","<p class=block-text>Trial 40 out of 60</p>","null","spm_show_trial_num","","","","","","","","","","","","","","","","","","","","","","","","",""
"","","","","","image-button-response","261","776189","0.0-3.0-4.0-1.15","63cff40ebc71e5fcdcf3f8dc","F1","batch6","","11907.299999713898","img/question_4_4.jpeg","6","spm_respsonse","1","7","mat_40","","","","","","1","11907.299999713898","","","","","","","","","","","","","","",""
"","","","","","html-keyboard-response","262","777241","0.0-3.0-4.0-0.16","63cff40ebc71e5fcdcf3f8dc","F1","batch6","","null","<p class=block-text>Trial 41 out of 60</p>","null","spm_show_trial_num","","","","","","","","","","","","","","","","","","","","","","","","",""
"","","","","","image-button-response","263","788693","0.0-3.0-4.0-1.16","63cff40ebc71e5fcdcf3f8dc","F1","batch6","","11450.099999904633","img/question_4_5.jpeg","4","spm_respsonse","0","8","mat_41","","","","","","0","11450.099999904633","","","","","","","","","","","","","","",""
"","","","","","html-keyboard-response","264","789754","0.0-3.0-4.0-0.17","63cff40ebc71e5fcdcf3f8dc","F1","batch6","","null","<p class=block-text>Trial 42 out of 60</p>","null","spm_show_trial_num","","","","","","","","","","","","","","","","","","","","","","","","",""
"","","","","","image-button-response","265","796027","0.0-3.0-4.0-1.17","63cff40ebc71e5fcdcf3f8dc","F1","batch6","","6271.299999713898","img/question_4_6.jpeg","6","spm_respsonse","0","6","mat_42","","","","","","0","6271.299999713898","","","","","","","","","","","","","","",""
"","","","","","html-keyboard-response","266","797077","0.0-3.0-4.0-0.18","63cff40ebc71e5fcdcf3f8dc","F1","batch6","","null","<p class=block-text>Trial 43 out of 60</p>","null","spm_show_trial_num","","","","","","","","","","","","","","","","","","","","","","","","",""
"","","","","","image-button-response","267","812675","0.0-3.0-4.0-1.18","63cff40ebc71e5fcdcf3f8dc","F1","batch6","","15597","img/question_4_7.jpeg","6","spm_respsonse","0","5","mat_43","","","","","","0","15597","","","","","","","","","","","","","","",""
"","","","","","html-keyboard-response","268","813728","0.0-3.0-4.0-0.19","63cff40ebc71e5fcdcf3f8dc","F1","batch6","","null","<p class=block-text>Trial 44 out of 60</p>","null","spm_show_trial_num","","","","","","","","","","","","","","","","","","","","","","","","",""
"","","","","","image-button-response","269","820372","0.0-3.0-4.0-1.19","63cff40ebc71e5fcdcf3f8dc","F1","batch6","","6643.200000286102","img/question_4_8.jpeg","1","spm_respsonse","0","4","mat_44","","","","","","0","6643.200000286102","","","","","","","","","","","","","","",""
"","","","","","html-keyboard-response","270","821430","0.0-3.0-4.0-0.20","63cff40ebc71e5fcdcf3f8dc","F1","batch6","","null","<p class=block-text>Trial 45 out of 60</p>","null","spm_show_trial_num","","","","","","","","","","","","","","","","","","","","","","","","",""
"","","","","","image-button-response","271","827430","0.0-3.0-4.0-1.20","63cff40ebc71e5fcdcf3f8dc","F1","batch6","","5997.89999961853","img/question_4_9.jpeg","0","spm_respsonse","1","1","mat_45","","","","","","1","5997.89999961853","","","","","","","","","","","","","","",""
"","","","","","html-keyboard-response","272","828483","0.0-3.0-4.0-0.21","63cff40ebc71e5fcdcf3f8dc","F1","batch6","","null","<p class=block-text>Trial 46 out of 60</p>","null","spm_show_trial_num","","","","","","","","","","","","","","","","","","","","","","","","",""
"","","","","","image-button-response","273","841619","0.0-3.0-4.0-1.21","63cff40ebc71e5fcdcf3f8dc","F1","batch6","","13134.699999809265","img/question_4_10.jpeg","1","spm_respsonse","1","2","mat_46","","","","","","1","13134.699999809265","","","","","","","","","","","","","","",""
"","","","","","html-keyboard-response","274","842671","0.0-3.0-4.0-0.22","63cff40ebc71e5fcdcf3f8dc","F1","batch6","","null","<p class=block-text>Trial 47 out of 60</p>","null","spm_show_trial_num","","","","","","","","","","","","","","","","","","","","","","","","",""
"","","","","","image-button-response","275","847230","0.0-3.0-4.0-1.22","63cff40ebc71e5fcdcf3f8dc","F1","batch6","","4558.5","img/question_4_11.jpeg","3","spm_respsonse","0","5","mat_47","","","","","","0","4558.5","","","","","","","","","","","","","","",""
"","","","","","html-keyboard-response","276","848288","0.0-3.0-4.0-0.23","63cff40ebc71e5fcdcf3f8dc","F1","batch6","","null","<p class=block-text>Trial 48 out of 60</p>","null","spm_show_trial_num","","","","","","","","","","","","","","","","","","","","","","","","",""
"","","","","","image-button-response","277","858899","0.0-3.0-4.0-1.23","63cff40ebc71e5fcdcf3f8dc","F1","batch6","","10609.400000095367","img/question_4_12.jpeg","6","spm_respsonse","0","6","mat_48","","","","","","0","10609.400000095367","","","","","","","","","","","","","","",""
"","","","","","html-keyboard-response","278","859951","0.0-3.0-4.0-0.24","63cff40ebc71e5fcdcf3f8dc","F1","batch6","","null","<p class=block-text>Trial 49 out of 60</p>","null","spm_show_trial_num","","","","","","","","","","","","","","","","","","","","","","","","",""
"","","","","","image-button-response","279","870810","0.0-3.0-4.0-1.24","63cff40ebc71e5fcdcf3f8dc","F1","batch6","","10856.799999713898","img/question_5_1.jpeg","3","spm_respsonse","0","7","mat_49","","","","","","0","10856.799999713898","","","","","","","","","","","","","","",""
"","","","","","html-keyboard-response","280","871871","0.0-3.0-4.0-0.25","63cff40ebc71e5fcdcf3f8dc","F1","batch6","","null","<p class=block-text>Trial 50 out of 60</p>","null","spm_show_trial_num","","","","","","","","","","","","","","","","","","","","","","","","",""
"","","","","","image-button-response","281","881520","0.0-3.0-4.0-1.25","63cff40ebc71e5fcdcf3f8dc","F1","batch6","","9648","img/question_5_2.jpeg","0","spm_respsonse","0","6","mat_50","","","","","","0","9648","","","","","","","","","","","","","","",""
"","","","","","html-keyboard-response","282","882595","0.0-3.0-4.0-0.26","63cff40ebc71e5fcdcf3f8dc","F1","batch6","","null","<p class=block-text>Trial 51 out of 60</p>","null","spm_show_trial_num","","","","","","","","","","","","","","","","","","","","","","","","",""
"","","","","","image-button-response","283","889350","0.0-3.0-4.0-1.26","63cff40ebc71e5fcdcf3f8dc","F1","batch6","","6752.699999809265","img/question_5_3.jpeg","3","spm_respsonse","0","8","mat_51","","","","","","0","6752.699999809265","","","","","","","","","","","","","","",""
"","","","","","html-keyboard-response","284","890410","0.0-3.0-4.0-0.27","63cff40ebc71e5fcdcf3f8dc","F1","batch6","","null","<p class=block-text>Trial 52 out of 60</p>","null","spm_show_trial_num","","","","","","","","","","","","","","","","","","","","","","","","",""
"","","","","","image-button-response","285","899130","0.0-3.0-4.0-1.27","63cff40ebc71e5fcdcf3f8dc","F1","batch6","","8718.5","img/question_5_4.jpeg","3","spm_respsonse","0","2","mat_52","","","","","","0","8718.5","","","","","","","","","","","","","","",""
"","","","","","html-keyboard-response","286","900181","0.0-3.0-4.0-0.28","63cff40ebc71e5fcdcf3f8dc","F1","batch6","","null","<p class=block-text>Trial 53 out of 60</p>","null","spm_show_trial_num","","","","","","","","","","","","","","","","","","","","","","","","",""
"","","","","","image-button-response","287","906997","0.0-3.0-4.0-1.28","63cff40ebc71e5fcdcf3f8dc","F1","batch6","","6814.099999904633","img/question_5_5.jpeg","6","spm_respsonse","0","1","mat_53","","","","","","0","6814.099999904633","","","","","","","","","","","","","","",""
"","","","","","html-keyboard-response","288","908062","0.0-3.0-4.0-0.29","63cff40ebc71e5fcdcf3f8dc","F1","batch6","","null","<p class=block-text>Trial 54 out of 60</p>","null","spm_show_trial_num","","","","","","","","","","","","","","","","","","","","","","","","",""
"","","","","","image-button-response","289","919627","0.0-3.0-4.0-1.29","63cff40ebc71e5fcdcf3f8dc","F1","batch6","","11563.099999904633","img/question_5_6.jpeg","7","spm_respsonse","0","5","mat_54","","","","","","0","11563.099999904633","","","","","","","","","","","","","","",""
"","","","","","html-keyboard-response","290","920684","0.0-3.0-4.0-0.30","63cff40ebc71e5fcdcf3f8dc","F1","batch6","","null","<p class=block-text>Trial 55 out of 60</p>","null","spm_show_trial_num","","","","","","","","","","","","","","","","","","","","","","","","",""
"","","","","","image-button-response","291","933600","0.0-3.0-4.0-1.30","63cff40ebc71e5fcdcf3f8dc","F1","batch6","","12914.5","img/question_5_7.jpeg","4","spm_respsonse","0","1","mat_55","","","","","","0","12914.5","","","","","","","","","","","","","","",""
"","","","","","html-keyboard-response","292","934660","0.0-3.0-4.0-0.31","63cff40ebc71e5fcdcf3f8dc","F1","batch6","","null","<p class=block-text>Trial 56 out of 60</p>","null","spm_show_trial_num","","","","","","","","","","","","","","","","","","","","","","","","",""
"","","","","","image-button-response","293","943522","0.0-3.0-4.0-1.31","63cff40ebc71e5fcdcf3f8dc","F1","batch6","","8860.599999904633","img/question_5_8.jpeg","1","spm_respsonse","0","6","mat_56","","","","","","0","8860.599999904633","","","","","","","","","","","","","","",""
"","","","","","html-keyboard-response","294","944590","0.0-3.0-4.0-0.32","63cff40ebc71e5fcdcf3f8dc","F1","batch6","","null","<p class=block-text>Trial 57 out of 60</p>","null","spm_show_trial_num","","","","","","","","","","","","","","","","","","","","","","","","",""
"","","","","","image-button-response","295","952096","0.0-3.0-4.0-1.32","63cff40ebc71e5fcdcf3f8dc","F1","batch6","","7503.599999904633","img/question_5_9.jpeg","1","spm_respsonse","0","3","mat_57","","","","","","0","7503.599999904633","","","","","","","","","","","","","","",""
"","","","","","html-keyboard-response","296","953156","0.0-3.0-4.0-0.33","63cff40ebc71e5fcdcf3f8dc","F1","batch6","","null","<p class=block-text>Trial 58 out of 60</p>","null","spm_show_trial_num","","","","","","","","","","","","","","","","","","","","","","","","",""
"","","","","","image-button-response","297","958567","0.0-3.0-4.0-1.33","63cff40ebc71e5fcdcf3f8dc","F1","batch6","","5409.599999904633","img/question_5_10.jpeg","6","spm_respsonse","0","2","mat_58","","","","","","0","5409.599999904633","","","","","","","","","","","","","","",""
"","","","","","html-keyboard-response","298","959623","0.0-3.0-4.0-0.34","63cff40ebc71e5fcdcf3f8dc","F1","batch6","","null","<p class=block-text>Trial 59 out of 60</p>","null","spm_show_trial_num","","","","","","","","","","","","","","","","","","","","","","","","",""
"","","","","","image-button-response","299","965122","0.0-3.0-4.0-1.34","63cff40ebc71e5fcdcf3f8dc","F1","batch6","","5497.5","img/question_5_11.jpeg","1","spm_respsonse","0","4","mat_59","","","","","","0","5497.5","","","","","","","","","","","","","","",""
"","","","","","html-keyboard-response","300","966174","0.0-3.0-4.0-0.35","63cff40ebc71e5fcdcf3f8dc","F1","batch6","","null","<p class=block-text>Trial 60 out of 60</p>","null","spm_show_trial_num","","","","","","","","","","","","","","","","","","","","","","","","",""
"","","","","","image-button-response","301","970852","0.0-3.0-4.0-1.35","63cff40ebc71e5fcdcf3f8dc","F1","batch6","","4675.900000095367","img/question_5_12.jpeg","2","spm_respsonse","0","5","mat_60","","","","","","0","4675.900000095367","","","","","","","","","","","","","","",""
"","","","","","html-button-response","302","979732","0.0-3.0-5.0","63cff40ebc71e5fcdcf3f8dc","F1","batch6","","8613.700000286102","<p class= block-text>This concludes the Standard Progressive Matrix game. Thank you for your responses!<br> When you are ready, click the button continue</p>","0","spm_goodbye","","","","","","","","","","","","","","","","","","","","","","","","",""
"true","","","","","fullscreen","303","1019376","0.0-4.0-0.0","63cff40ebc71e5fcdcf3f8dc","F1","batch6","","","","","","","","","","","","","","","","","","","","","","","","","","","","","",""
"","","","","","instructions","304","1095878","0.0-4.0-1.0-0.0-0.0","63cff40ebc71e5fcdcf3f8dc","F1","batch6","[{""page_index"":0,""viewing_time"":17139.099999904633},{""page_index"":1,""viewing_time"":8295.099999904633},{""page_index"":2,""viewing_time"":7890.800000190735},{""page_index"":3,""viewing_time"":12210.400000095367},{""page_index"":4,""viewing_time"":8338.599999904633},{""page_index"":5,""viewing_time"":19531.400000095367},{""page_index"":6,""viewing_time"":3096.0999999046326}]","76501.69999980927","","","tol-instructions","","","","","","","","","","","","","","","","","","","","","","","","",""
"","","","","","html-button-response","305","1097175","0.0-4.0-1.0-1.0-0.0","63cff40ebc71e5fcdcf3f8dc","F1","batch6","","1296.7000002861023","<p class=block-text> Let's answer a few questions <br>","0","tol_enter_quiz","","","","","","","","","","","","","","","","","","","","","","","","",""
"","","","","","html-button-response","306","1103671","0.0-4.0-1.0-1.0-1.0","63cff40ebc71e5fcdcf3f8dc","F1","batch6","","6495","<p class = block-text>True or False: You can only move the ball on top of a peg. <br></p>","1","tol_quiz","false","","","","","","","","","","","","","","","","","","","","","","","",""
"","","","","","html-button-response","307","1107540","0.0-4.0-1.0-1.0-2.0","63cff40ebc71e5fcdcf3f8dc","F1","batch6","","3867.9000000953674","<p class = block-text>Incorrect. Remember, you can only move the ball on top of a peg.</p>","0","tol_quiz_feedback","","","","","","","","","","","","","","","","","","","","","","","","",""
"","","","","","html-button-response","308","1114345","0.0-4.0-1.0-1.0-3.0","63cff40ebc71e5fcdcf3f8dc","F1","batch6","","6804","<p class = block-text>True or False: You should try to match your board with the target board with fewest moves possible. <br></p>","0","tol_quiz","true","","","","","","","","","","","","","","","","","","","","","","","",""
"","","","","","html-button-response","309","1115350","0.0-4.0-1.0-1.0-4.0","63cff40ebc71e5fcdcf3f8dc","F1","batch6","","1003.7999997138977","<p class = block-text>Correct! </p>","0","tol_quiz_feedback","","","","","","","","","","","","","","","","","","","","","","","","",""
"","","","","","html-button-response","310","1118664","0.0-4.0-1.0-2.0-0.0","63cff40ebc71e5fcdcf3f8dc","F1","batch6","","3313.4000000953674","<p class = block-text>You made too many incorrect choices.</p><p class = block-text>You will now repeat the instructions and quiz</p>","0","","","","","","","","","","","","","","","","","","","","","","","","","",""
"","","","","","instructions","311","1137045","0.0-4.0-1.1-0.1-0.1","63cff40ebc71e5fcdcf3f8dc","F1","batch6","[{""page_index"":0,""viewing_time"":5098.900000095367},{""page_index"":1,""viewing_time"":540},{""page_index"":2,""viewing_time"":711.5},{""page_index"":3,""viewing_time"":781},{""page_index"":4,""viewing_time"":825.1999998092651},{""page_index"":5,""viewing_time"":758.0999999046326},{""page_index"":6,""viewing_time"":9665.60000038147}]","18380.5","","","tol-instructions","","","","","","","","","","","","","","","","","","","","","","","","",""
"","","","","","html-button-response","312","1138952","0.0-4.0-1.1-1.1-0.1","63cff40ebc71e5fcdcf3f8dc","F1","batch6","","1905.6999998092651","<p class=block-text> Let's answer a few questions <br>","0","tol_enter_quiz","","","","","","","","","","","","","","","","","","","","","","","","",""
"","","","","","html-button-response","313","1144788","0.0-4.0-1.1-1.1-1.1","63cff40ebc71e5fcdcf3f8dc","F1","batch6","","5835.099999904633","<p class = block-text>True or False: You can only move the ball on top of a peg. <br></p>","0","tol_quiz","true","","","","","","","","","","","","","","","","","","","","","","","",""
"","","","","","html-button-response","314","1145798","0.0-4.0-1.1-1.1-2.1","63cff40ebc71e5fcdcf3f8dc","F1","batch6","","1009.8000001907349","<p class = block-text>Correct! You can only move the ball on top of a peg.</p>","0","tol_quiz_feedback","","","","","","","","","","","","","","","","","","","","","","","","",""
"","","","","","html-button-response","315","1149107","0.0-4.0-1.1-1.1-3.1","63cff40ebc71e5fcdcf3f8dc","F1","batch6","","3307.5999999046326","<p class = block-text>True or False: You should try to match your board with the target board with fewest moves possible. <br></p>","0","tol_quiz","true","","","","","","","","","","","","","","","","","","","","","","","",""
"","","","","","html-button-response","316","1149931","0.0-4.0-1.1-1.1-4.1","63cff40ebc71e5fcdcf3f8dc","F1","batch6","","823.6999998092651","<p class = block-text>Correct! </p>","0","tol_quiz_feedback","","","","","","","","","","","","","","","","","","","","","","","","",""
"","","","","","html-button-response","317","1152204","0.0-4.0-2.0","63cff40ebc71e5fcdcf3f8dc","F1","batch6","","2271.9000000953674","<p class=block-text> Now that you've understood the game, let's practice a few easier examples before we start!<br> <br>","0","","","","","","","","","","","","","","","","","","","","","","","","","",""
"","","","","","single-stim-button","318","1154590","0.0-4.0-3.0-0.0","63cff40ebc71e5fcdcf3f8dc","F1","batch6","","2385","","","tol_practice","","","","","","","","","","","tol_peg_2","2385","2385","0","[[1,2,0],[0,0],[0]]","1","[[1,2,0],[0,0],[3]]","practice","2385","","","","","",""
"","","","","","single-stim-button","319","1157138","0.0-4.0-3.0-1.0","63cff40ebc71e5fcdcf3f8dc","F1","batch6","","2548","","","tol_practice","","","","","","","","","","","tol_peg_3","2548","2548","0","[[1,2,0],[0,0],[3]]","1","[[1,2,0],[0,0],[3]]","practice","2548","","","","","",""
"","","","","","poldrack-single-stim","320","1158139","0.0-4.0-4.0","63cff40ebc71e5fcdcf3f8dc","F1","batch6","","-1","","","tol_feedback","true","","","","","","","","","","","1000","1000","500","","","","","","-1","none","true","","0",""
"","","","","","single-stim-button","321","1163079","0.0-4.0-5.0-0.0","63cff40ebc71e5fcdcf3f8dc","F1","batch6","","4940","","","tol_practice","","","","","","","","","","","tol_peg_1","4940","4940","0","[[1,0,0],[3,0],[0]]","2","[[0,0,0],[3,1],[2]]","practice","4940","","","","","",""
"","","","","","single-stim-button","322","1164505","0.0-4.0-5.0-1.0","63cff40ebc71e5fcdcf3f8dc","F1","batch6","","1425","","","tol_practice","","","","","","","","","","","tol_peg_3","1425","1425","0","[[1,0,0],[3,0],[2]]","2","[[0,0,0],[3,1],[2]]","practice","1425","","","","","",""
"","","","","","single-stim-button","323","1165465","0.0-4.0-5.1-0.1","63cff40ebc71e5fcdcf3f8dc","F1","batch6","","959","","","tol_practice","","","","","","","","","","","tol_peg_1","959","959","0","[[0,0,0],[3,0],[2]]","3","[[0,0,0],[3,1],[2]]","practice","959","","","","","",""
"","","","","","single-stim-button","324","1166125","0.0-4.0-5.1-1.1","63cff40ebc71e5fcdcf3f8dc","F1","batch6","","659","","","tol_practice","","","","","","","","","","","tol_peg_2","659","659","0","[[0,0,0],[3,1],[2]]","3","[[0,0,0],[3,1],[2]]","practice","659","","","","","",""
"","","","","","poldrack-single-stim","325","1167126","0.0-4.0-6.0","63cff40ebc71e5fcdcf3f8dc","F1","batch6","","-1","","","tol_feedback","true","","","","","","","","","","","1000","1000","500","","","","","","-1","none","true","","0",""
"","","","","","single-stim-button","326","1172640","0.0-4.0-7.0-0.0","63cff40ebc71e5fcdcf3f8dc","F1","batch6","","5514","","","tol_practice","","","","","","","","","","","tol_peg_2","5514","5514","0","[[1,2,0],[0,0],[0]]","4","[[1,0,0],[2,0],[3]]","practice","5514","","","","","",""
"","","","","","single-stim-button","327","1173542","0.0-4.0-7.0-1.0","63cff40ebc71e5fcdcf3f8dc","F1","batch6","","901","","","tol_practice","","","","","","","","","","","tol_peg_3","901","901","0","[[1,2,0],[0,0],[3]]","4","[[1,0,0],[2,0],[3]]","practice","901","","","","","",""
"","","","","","single-stim-button","328","1174419","0.0-4.0-7.1-0.1","63cff40ebc71e5fcdcf3f8dc","F1","batch6","","877","","","tol_practice","","","","","","","","","","","tol_peg_1","877","877","0","[[1,0,0],[0,0],[3]]","5","[[1,0,0],[2,0],[3]]","practice","877","","","","","",""
"","","","","","single-stim-button","329","1175252","0.0-4.0-7.1-1.1","63cff40ebc71e5fcdcf3f8dc","F1","batch6","","833","","","tol_practice","","","","","","","","","","","tol_peg_2","833","833","0","[[1,0,0],[2,0],[3]]","5","[[1,0,0],[2,0],[3]]","practice","833","","","","","",""
"","","","","","poldrack-single-stim","330","1176253","0.0-4.0-8.0","63cff40ebc71e5fcdcf3f8dc","F1","batch6","","-1","","","tol_feedback","true","","","","","","","","","","","1000","1000","500","","","","","","-1","none","true","","0",""
"","","","","","html-button-response","331","1180194","0.0-4.0-9.0","63cff40ebc71e5fcdcf3f8dc","F1","batch6","","3940.3999996185303","<div class = centerbox><p class = center-block-text>Great job! You are done with practice trials<br>You are about to start official trials.<br> <br> Problem <strong>1</strong> out of 25 problems</p></div>","0","tol_instruction","","","","","","","","","","","","","","","","","","","","","","","","",""
"","","","","","single-stim-button","332","1190926","0.0-4.0-10.0-0.0","63cff40ebc71e5fcdcf3f8dc","F1","batch6","","9730","","","tol_tohand","","","","","","","","","","","tol_peg_1","9730","9730","0","[[1,0,0],[3,0],[0]]","1","[[1,3,0],[2,0],[0]]","0","0","","","","","","3"
"","","","","","single-stim-button","333","1192105","0.0-4.0-10.0-1.0","63cff40ebc71e5fcdcf3f8dc","F1","batch6","","1178","","","tol_toboard","","","","","","","","","","","tol_peg_3","1178","1178","0","[[1,0,0],[3,0],[2]]","1","[[1,3,0],[2,0],[0]]","0","0","","","","","","3"
"","","","","","single-stim-button","334","1193012","0.0-4.0-10.1-0.1","63cff40ebc71e5fcdcf3f8dc","F1","batch6","","907","","","tol_tohand","","","","","","","","","","","tol_peg_2","907","907","0","[[1,0,0],[0,0],[2]]","2","[[1,3,0],[2,0],[0]]","0","0","","","","","","3"
"","","","","","single-stim-button","335","1194130","0.0-4.0-10.1-1.1","63cff40ebc71e5fcdcf3f8dc","F1","batch6","","1118","","","tol_toboard","","","","","","","","","","","tol_peg_1","1118","1118","0","[[1,3,0],[0,0],[2]]","2","[[1,3,0],[2,0],[0]]","0","0","","","","","","3"
"","","","","","single-stim-button","336","1195058","0.0-4.0-10.2-0.2","63cff40ebc71e5fcdcf3f8dc","F1","batch6","","928","","","tol_tohand","","","","","","","","","","","tol_peg_3","928","928","0","[[1,3,0],[0,0],[0]]","3","[[1,3,0],[2,0],[0]]","0","0","","","","","","3"
"","","","","","single-stim-button","337","1195862","0.0-4.0-10.2-1.2","63cff40ebc71e5fcdcf3f8dc","F1","batch6","","804","","","tol_toboard","","","","","","","","","","","tol_peg_2","804","804","0","[[1,3,0],[2,0],[0]]","3","[[1,3,0],[2,0],[0]]","0","0","","","","","","3"
"","","","","","poldrack-single-stim","338","1196863","0.0-4.0-11.0","63cff40ebc71e5fcdcf3f8dc","F1","batch6","","-1","","","tol_feedback","true","","","","","","","","","","","1000","1000","500","","","","","","-1","none","true","9730","11565",""
"","","","","","html-button-response","339","1198126","0.0-4.0-12.0","63cff40ebc71e5fcdcf3f8dc","F1","batch6","","1262.0999999046326","<div class = centerbox><p class = center-block-text>problem <strong>2</strong> out of 25 problems</p></div>","0","tol_trial_num","","","","","","","","","","","","","","","","","","","","","","","","",""
"","","","","","single-stim-button","340","1207315","0.0-4.0-13.0-0.0","63cff40ebc71e5fcdcf3f8dc","F1","batch6","","9188","","","tol_tohand","","","","","","","","","","","tol_peg_1","9188","9188","0","[[1,0,0],[3,0],[0]]","1","[[2,1,3],[0,0],[0]]","1","0","","","","","","5"
"","","","","","single-stim-button","341","1208858","0.0-4.0-13.0-1.0","63cff40ebc71e5fcdcf3f8dc","F1","batch6","","1543","","","tol_toboard","","","","","","","","","","","tol_peg_3","1543","1543","0","[[1,0,0],[3,0],[2]]","1","[[2,1,3],[0,0],[0]]","1","0","","","","","","5"
"","","","","","single-stim-button","342","1210156","0.0-4.0-13.1-0.1","63cff40ebc71e5fcdcf3f8dc","F1","batch6","","1298","","","tol_tohand","","","","","","","","","","","tol_peg_2","1298","1298","0","[[1,0,0],[0,0],[2]]","2","[[2,1,3],[0,0],[0]]","1","0","","","","","","5"
"","","","","","single-stim-button","343","1211979","0.0-4.0-13.1-1.1","63cff40ebc71e5fcdcf3f8dc","F1","batch6","","1823","","","tol_toboard","","","","","","","","","","","tol_peg_2","1823","1823","0","[[1,0,0],[3,0],[2]]","2","[[2,1,3],[0,0],[0]]","1","0","","","","","","5"
"","","","","","single-stim-button","344","1214679","0.0-4.0-13.2-0.2","63cff40ebc71e5fcdcf3f8dc","F1","batch6","","2699","","","tol_tohand","","","","","","","","","","","tol_peg_2","2699","2699","0","[[1,0,0],[0,0],[2]]","3","[[2,1,3],[0,0],[0]]","1","0","","","","","","5"
"","","","","","single-stim-button","345","1218624","0.0-4.0-13.2-1.2","63cff40ebc71e5fcdcf3f8dc","F1","batch6","","3944","","","tol_toboard","","","","","","","","","","","tol_peg_2","3944","3944","0","[[1,0,0],[3,0],[2]]","3","[[2,1,3],[0,0],[0]]","1","0","","","","","","5"
