"success","timeout","failed_images","failed_audio","failed_video","trial_type","trial_index","time_elapsed","internal_node_id","subject_id","study_id","session_id","view_history","rt","task","stimulus","response","correct","mouse_click","stim_duration","block_duration","timing_post_trial","current_position","tol_num_moves_made","tol_target","tol_problem_id","tol_rt","key_press","possible_responses","tol_correct","preplanning","tol_rt_per_trial","tol_min_moves","answer","item","fiar_detect_rt","fiar_detect_correct","total_correct_fiar_detect","post_trial_gap","choices","spm_correct","spm_rt"
"true","false","[]","[]","[]","preload","0","2921","0.0-0.0","63d1b93d9abc8c4b40e2d92f","C3","batch3","","","","","","","","","","","","","","","","","","","","","","","","","","","","","",""
"true","","","","","fullscreen","1","5521","0.0-1.0-0.0","63d1b93d9abc8c4b40e2d92f","C3","batch3","","","","","","","","","","","","","","","","","","","","","","","","","","","","","",""
"true","","","","","fullscreen","2","9188","0.0-2.0-0.0","63d1b93d9abc8c4b40e2d92f","C3","batch3","","","","","","","","","","","","","","","","","","","","","","","","","","","","","",""
"","","","","","instructions","3","50296","0.0-2.0-1.0-0.0-0.0","63d1b93d9abc8c4b40e2d92f","C3","batch3","[{""page_index"":0,""viewing_time"":10402.800000000745},{""page_index"":1,""viewing_time"":10968.599999999627},{""page_index"":2,""viewing_time"":2927.7999999988824},{""page_index"":3,""viewing_time"":3096.300000000745},{""page_index"":2,""viewing_time"":2064},{""page_index"":3,""viewing_time"":1367.9000000003725},{""page_index"":4,""viewing_time"":3719.699999999255},{""page_index"":5,""viewing_time"":3720.0999999996275},{""page_index"":6,""viewing_time"":2840}]","41107.59999999963","tol-instructions","","","","","","","","","","","","","","","","","","","","","","","","","","",""
"","","","","","html-button-response","4","52280","0.0-2.0-1.0-1.0-0.0","63d1b93d9abc8c4b40e2d92f","C3","batch3","","1983","tol_enter_quiz","<p class=block-text> Let's answer a few questions <br>","0","","","","","","","","","","","","","","","","","","","","","","","","",""
"","","","","","html-button-response","5","56688","0.0-2.0-1.0-1.0-1.0","63d1b93d9abc8c4b40e2d92f","C3","batch3","","4406.199999999255","tol_quiz","<p class = block-text>True or False: You can only move the ball on top of a peg. <br></p>","0","true","","","","","","","","","","","","","","","","","","","","","","","",""
"","","","","","html-button-response","6","57624","0.0-2.0-1.0-1.0-2.0","63d1b93d9abc8c4b40e2d92f","C3","batch3","","935","tol_quiz_feedback","<p class = block-text>Correct! You can only move the ball on top of a peg.</p>","0","","","","","","","","","","","","","","","","","","","","","","","","",""
"","","","","","html-button-response","7","60352","0.0-2.0-1.0-1.0-3.0","63d1b93d9abc8c4b40e2d92f","C3","batch3","","2726.699999999255","tol_quiz","<p class = block-text>True or False: You should try to match your board with the target board with fewest moves possible. <br></p>","0","true","","","","","","","","","","","","","","","","","","","","","","","",""
"","","","","","html-button-response","8","60968","0.0-2.0-1.0-1.0-4.0","63d1b93d9abc8c4b40e2d92f","C3","batch3","","614.8000000007451","tol_quiz_feedback","<p class = block-text>Correct! </p>","0","","","","","","","","","","","","","","","","","","","","","","","","",""
"","","","","","html-button-response","9","62080","0.0-2.0-2.0","63d1b93d9abc8c4b40e2d92f","C3","batch3","","1110.699999999255","","<p class=block-text> Now that you've understood the game, let's practice a few easier examples before we start!<br> <br>","0","","","","","","","","","","","","","","","","","","","","","","","","",""
"","","","","","single-stim-button","10","66346","0.0-2.0-3.0-0.0","63d1b93d9abc8c4b40e2d92f","C3","batch3","","4265","tol_practice","","","","tol_peg_2","4265","4265","0","[[1,2,0],[0,0],[0]]","1","[[1,2,0],[0,0],[3]]","practice","4265","","","","","","","","","","","","","","",""
"","","","","","single-stim-button","11","67951","0.0-2.0-3.0-1.0","63d1b93d9abc8c4b40e2d92f","C3","batch3","","1603","tol_practice","","","","tol_peg_3","1603","1603","0","[[1,2,0],[0,0],[3]]","1","[[1,2,0],[0,0],[3]]","practice","1603","","","","","","","","","","","","","","",""
"","","","","","poldrack-single-stim","12","68965","0.0-2.0-4.0","63d1b93d9abc8c4b40e2d92f","C3","batch3","","-1","tol_feedback","","","true","","1000","1000","500","","","","","","-1","none","true","","0","","","","","","","","","",""
"","","","","","single-stim-button","13","76160","0.0-2.0-5.0-0.0","63d1b93d9abc8c4b40e2d92f","C3","batch3","","7195","tol_practice","","","","tol_peg_1","7195","7195","0","[[1,0,0],[3,0],[0]]","2","[[0,0,0],[3,1],[2]]","practice","7195","","","","","","","","","","","","","","",""
"","","","","","single-stim-button","14","77992","0.0-2.0-5.0-1.0","63d1b93d9abc8c4b40e2d92f","C3","batch3","","1831","tol_practice","","","","tol_peg_3","1831","1831","0","[[1,0,0],[3,0],[2]]","2","[[0,0,0],[3,1],[2]]","practice","1831","","","","","","","","","","","","","","",""
"","","","","","single-stim-button","15","79407","0.0-2.0-5.1-0.1","63d1b93d9abc8c4b40e2d92f","C3","batch3","","1414","tol_practice","","","","tol_peg_1","1414","1414","0","[[0,0,0],[3,0],[2]]","3","[[0,0,0],[3,1],[2]]","practice","1414","","","","","","","","","","","","","","",""
"","","","","","single-stim-button","16","80352","0.0-2.0-5.1-1.1","63d1b93d9abc8c4b40e2d92f","C3","batch3","","943","tol_practice","","","","tol_peg_2","943","943","0","[[0,0,0],[3,1],[2]]","3","[[0,0,0],[3,1],[2]]","practice","943","","","","","","","","","","","","","","",""
"","","","","","poldrack-single-stim","17","81354","0.0-2.0-6.0","63d1b93d9abc8c4b40e2d92f","C3","batch3","","-1","tol_feedback","","","true","","1000","1000","500","","","","","","-1","none","true","","0","","","","","","","","","",""
"","","","","","single-stim-button","18","84496","0.0-2.0-7.0-0.0","63d1b93d9abc8c4b40e2d92f","C3","batch3","","3141","tol_practice","","","","tol_peg_2","3141","3141","0","[[1,2,0],[0,0],[0]]","4","[[1,0,0],[2,0],[3]]","practice","3141","","","","","","","","","","","","","","",""
"","","","","","single-stim-button","19","85793","0.0-2.0-7.0-1.0","63d1b93d9abc8c4b40e2d92f","C3","batch3","","1296","tol_practice","","","","tol_peg_3","1296","1296","0","[[1,2,0],[0,0],[3]]","4","[[1,0,0],[2,0],[3]]","practice","1296","","","","","","","","","","","","","","",""
"","","","","","single-stim-button","20","86456","0.0-2.0-7.1-0.1","63d1b93d9abc8c4b40e2d92f","C3","batch3","","662","tol_practice","","","","tol_peg_1","662","662","0","[[1,0,0],[0,0],[3]]","5","[[1,0,0],[2,0],[3]]","practice","662","","","","","","","","","","","","","","",""
"","","","","","single-stim-button","21","87016","0.0-2.0-7.1-1.1","63d1b93d9abc8c4b40e2d92f","C3","batch3","","560","tol_practice","","","","tol_peg_2","560","560","0","[[1,0,0],[2,0],[3]]","5","[[1,0,0],[2,0],[3]]","practice","560","","","","","","","","","","","","","","",""
"","","","","","poldrack-single-stim","22","88021","0.0-2.0-8.0","63d1b93d9abc8c4b40e2d92f","C3","batch3","","-1","tol_feedback","","","true","","1000","1000","500","","","","","","-1","none","true","","0","","","","","","","","","",""
"","","","","","html-button-response","23","91584","0.0-2.0-9.0","63d1b93d9abc8c4b40e2d92f","C3","batch3","","3561.7999999988824","tol_instruction","<div class = centerbox><p class = center-block-text>Great job! You are done with practice trials<br>You are about to start official trials.<br> <br> Problem <strong>1</strong> out of 25 problems</p></div>","0","","","","","","","","","","","","","","","","","","","","","","","","",""
"","","","","","single-stim-button","24","97576","0.0-2.0-10.0-0.0","63d1b93d9abc8c4b40e2d92f","C3","batch3","","4984","tol_tohand","","","","tol_peg_2","4984","4984","0","[[1,2,0],[0,0],[0]]","1","[[1,3,0],[2,0],[0]]","0","0","","","","","","3","","","","","","","","",""
"","","","","","single-stim-button","25","99312","0.0-2.0-10.0-1.0","63d1b93d9abc8c4b40e2d92f","C3","batch3","","1735","tol_toboard","","","","tol_peg_3","1735","1735","0","[[1,2,0],[0,0],[3]]","1","[[1,3,0],[2,0],[0]]","0","0","","","","","","3","","","","","","","","",""
"","","","","","single-stim-button","26","100119","0.0-2.0-10.1-0.1","63d1b93d9abc8c4b40e2d92f","C3","batch3","","806","tol_tohand","","","","tol_peg_1","806","806","0","[[1,0,0],[0,0],[3]]","2","[[1,3,0],[2,0],[0]]","0","0","","","","","","3","","","","","","","","",""
"","","","","","single-stim-button","27","100783","0.0-2.0-10.1-1.1","63d1b93d9abc8c4b40e2d92f","C3","batch3","","664","tol_toboard","","","","tol_peg_2","664","664","0","[[1,0,0],[2,0],[3]]","2","[[1,3,0],[2,0],[0]]","0","0","","","","","","3","","","","","","","","",""
"","","","","","single-stim-button","28","101400","0.0-2.0-10.2-0.2","63d1b93d9abc8c4b40e2d92f","C3","batch3","","615","tol_tohand","","","","tol_peg_3","615","615","0","[[1,0,0],[2,0],[0]]","3","[[1,3,0],[2,0],[0]]","0","0","","","","","","3","","","","","","","","",""
"","","","","","single-stim-button","29","102104","0.0-2.0-10.2-1.2","63d1b93d9abc8c4b40e2d92f","C3","batch3","","704","tol_toboard","","","","tol_peg_1","704","704","0","[[1,3,0],[2,0],[0]]","3","[[1,3,0],[2,0],[0]]","0","0","","","","","","3","","","","","","","","",""
"","","","","","poldrack-single-stim","30","103106","0.0-2.0-11.0","63d1b93d9abc8c4b40e2d92f","C3","batch3","","-1","tol_feedback","","","true","","1000","1000","500","","","","","","-1","none","true","4984","6405","","","","","","","","","",""
"","","","","","html-button-response","31","104312","0.0-2.0-12.0","63d1b93d9abc8c4b40e2d92f","C3","batch3","","1204.699999999255","tol_trial_num","<div class = centerbox><p class = center-block-text>problem <strong>2</strong> out of 25 problems</p></div>","0","","","","","","","","","","","","","","","","","","","","","","","","",""
"","","","","","single-stim-button","32","106841","0.0-2.0-13.0-0.0","63d1b93d9abc8c4b40e2d92f","C3","batch3","","2529","tol_tohand","","","","tol_peg_1","2529","2529","0","[[1,0,0],[3,0],[0]]","1","[[2,1,3],[0,0],[0]]","1","0","","","","","","5","","","","","","","","",""
"","","","","","single-stim-button","33","115168","0.0-2.0-13.0-1.0","63d1b93d9abc8c4b40e2d92f","C3","batch3","","8327","tol_toboard","","","","tol_peg_3","8327","8327","0","[[1,0,0],[3,0],[2]]","1","[[2,1,3],[0,0],[0]]","1","0","","","","","","5","","","","","","","","",""
"","","","","","single-stim-button","34","116512","0.0-2.0-13.1-0.1","63d1b93d9abc8c4b40e2d92f","C3","batch3","","1342","tol_tohand","","","","tol_peg_1","1342","1342","0","[[0,0,0],[3,0],[2]]","2","[[2,1,3],[0,0],[0]]","1","0","","","","","","5","","","","","","","","",""
"","","","","","single-stim-button","35","118224","0.0-2.0-13.1-1.1","63d1b93d9abc8c4b40e2d92f","C3","batch3","","1711","tol_toboard","","","","tol_peg_2","1711","1711","0","[[0,0,0],[3,1],[2]]","2","[[2,1,3],[0,0],[0]]","1","0","","","","","","5","","","","","","","","",""
"","","","","","single-stim-button","36","119279","0.0-2.0-13.2-0.2","63d1b93d9abc8c4b40e2d92f","C3","batch3","","1054","tol_tohand","","","","tol_peg_3","1054","1054","0","[[0,0,0],[3,1],[0]]","3","[[2,1,3],[0,0],[0]]","1","0","","","","","","5","","","","","","","","",""
"","","","","","single-stim-button","37","119944","0.0-2.0-13.2-1.2","63d1b93d9abc8c4b40e2d92f","C3","batch3","","663","tol_toboard","","","","tol_peg_1","663","663","0","[[2,0,0],[3,1],[0]]","3","[[2,1,3],[0,0],[0]]","1","0","","","","","","5","","","","","","","","",""
"","","","","","single-stim-button","38","120496","0.0-2.0-13.3-0.3","63d1b93d9abc8c4b40e2d92f","C3","batch3","","551","tol_tohand","","","","tol_peg_2","551","551","0","[[2,0,0],[3,0],[0]]","4","[[2,1,3],[0,0],[0]]","1","0","","","","","","5","","","","","","","","",""
"","","","","","single-stim-button","39","121017","0.0-2.0-13.3-1.3","63d1b93d9abc8c4b40e2d92f","C3","batch3","","520","tol_toboard","","","","tol_peg_1","520","520","0","[[2,1,0],[3,0],[0]]","4","[[2,1,3],[0,0],[0]]","1","0","","","","","","5","","","","","","","","",""
"","","","","","single-stim-button","40","121656","0.0-2.0-13.4-0.4","63d1b93d9abc8c4b40e2d92f","C3","batch3","","639","tol_tohand","","","","tol_peg_2","639","639","0","[[2,1,0],[0,0],[0]]","5","[[2,1,3],[0,0],[0]]","1","0","","","","","","5","","","","","","","","",""
"","","","","","single-stim-button","41","122288","0.0-2.0-13.4-1.4","63d1b93d9abc8c4b40e2d92f","C3","batch3","","631","tol_toboard","","","","tol_peg_1","631","631","0","[[2,1,3],[0,0],[0]]","5","[[2,1,3],[0,0],[0]]","1","0","","","","","","5","","","","","","","","",""
"","","","","","poldrack-single-stim","42","123295","0.0-2.0-14.0","63d1b93d9abc8c4b40e2d92f","C3","batch3","","-1","tol_feedback","","","true","","1000","1000","500","","","","","","-1","none","true","2529","6115","","","","","","","","","",""
"","","","","","html-button-response","43","124344","0.0-2.0-15.0","63d1b93d9abc8c4b40e2d92f","C3","batch3","","1047.2999999988824","tol_trial_num","<div class = centerbox><p class = center-block-text>problem <strong>3</strong> out of 25 problems</p></div>","0","","","","","","","","","","","","","","","","","","","","","","","","",""
"","","","","","single-stim-button","44","128424","0.0-2.0-16.0-0.0","63d1b93d9abc8c4b40e2d92f","C3","batch3","","4080","tol_tohand","","","","tol_peg_3","4080","4080","0","[[2,3,0],[0,0],[0]]","1","[[1,2,0],[3,0],[0]]","2","0","","","","","","4","","","","","","","","",""
"","","","","","single-stim-button","45","129095","0.0-2.0-16.0-1.0","63d1b93d9abc8c4b40e2d92f","C3","batch3","","670","tol_toboard","","","","tol_peg_2","670","670","0","[[2,3,0],[1,0],[0]]","1","[[1,2,0],[3,0],[0]]","2","0","","","","","","4","","","","","","","","",""
"","","","","","single-stim-button","46","129824","0.0-2.0-16.1-0.1","63d1b93d9abc8c4b40e2d92f","C3","batch3","","728","tol_tohand","","","","tol_peg_1","728","728","0","[[2,0,0],[1,0],[0]]","2","[[1,2,0],[3,0],[0]]","2","0","","","","","","4","","","","","","","","",""
"","","","","","single-stim-button","47","131097","0.0-2.0-16.1-1.1","63d1b93d9abc8c4b40e2d92f","C3","batch3","","1272","tol_toboard","","","","tol_peg_3","1272","1272","0","[[2,0,0],[1,0],[3]]","2","[[1,2,0],[3,0],[0]]","2","0","","","","","","4","","","","","","","","",""
"","","","","","single-stim-button","48","132585","0.0-2.0-16.2-0.2","63d1b93d9abc8c4b40e2d92f","C3","batch3","","1487","tol_tohand","","","","tol_peg_1","1487","1487","0","[[0,0,0],[1,0],[3]]","3","[[1,2,0],[3,0],[0]]","2","0","","","","","","4","","","","","","","","",""
"","","","","","single-stim-button","49","136649","0.0-2.0-16.2-1.2","63d1b93d9abc8c4b40e2d92f","C3","batch3","","4063","tol_toboard","","","","tol_peg_1","4063","4063","0","[[2,0,0],[1,0],[3]]","3","[[1,2,0],[3,0],[0]]","2","0","","","","","","4","","","","","","","","",""
"","","","","","single-stim-button","50","140809","0.0-2.0-16.3-0.3","63d1b93d9abc8c4b40e2d92f","C3","batch3","","4159","tol_tohand","","","","tol_peg_3","4159","4159","0","[[2,0,0],[1,0],[0]]","4","[[1,2,0],[3,0],[0]]","2","0","","","","","","4","","","","","","","","",""
"","","","","","single-stim-button","51","141617","0.0-2.0-16.3-1.3","63d1b93d9abc8c4b40e2d92f","C3","batch3","","807","tol_toboard","","","","tol_peg_1","807","807","0","[[2,3,0],[1,0],[0]]","4","[[1,2,0],[3,0],[0]]","2","0","","","","","","4","","","","","","","","",""
"","","","","","single-stim-button","52","142200","0.0-2.0-16.4-0.4","63d1b93d9abc8c4b40e2d92f","C3","batch3","","583","tol_tohand","","","","tol_peg_2","583","583","0","[[2,3,0],[0,0],[0]]","5","[[1,2,0],[3,0],[0]]","2","0","","","","","","4","","","","","","","","",""
"","","","","","single-stim-button","53","142800","0.0-2.0-16.4-1.4","63d1b93d9abc8c4b40e2d92f","C3","batch3","","599","tol_toboard","","","","tol_peg_3","599","599","0","[[2,3,0],[0,0],[1]]","5","[[1,2,0],[3,0],[0]]","2","0","","","","","","4","","","","","","","","",""
"","","","","","single-stim-button","54","143505","0.0-2.0-16.5-0.5","63d1b93d9abc8c4b40e2d92f","C3","batch3","","703","tol_tohand","","","","tol_peg_1","703","703","0","[[2,0,0],[0,0],[1]]","6","[[1,2,0],[3,0],[0]]","2","0","","","","","","4","","","","","","","","",""
"","","","","","single-stim-button","55","144249","0.0-2.0-16.5-1.5","63d1b93d9abc8c4b40e2d92f","C3","batch3","","743","tol_toboard","","","","tol_peg_2","743","743","0","[[2,0,0],[3,0],[1]]","6","[[1,2,0],[3,0],[0]]","2","0","","","","","","4","","","","","","","","",""
"","","","","","single-stim-button","56","145730","0.0-2.0-16.6-0.6","63d1b93d9abc8c4b40e2d92f","C3","batch3","","1480","tol_tohand","","","","tol_peg_1","1480","1480","0","[[0,0,0],[3,0],[1]]","7","[[1,2,0],[3,0],[0]]","2","0","","","","","","4","","","","","","","","",""
"","","","","","single-stim-button","57","146745","0.0-2.0-16.6-1.6","63d1b93d9abc8c4b40e2d92f","C3","batch3","","1014","tol_toboard","","","","tol_peg_2","1014","1014","0","[[0,0,0],[3,2],[1]]","7","[[1,2,0],[3,0],[0]]","2","0","","","","","","4","","","","","","","","",""
"","","","","","single-stim-button","58","147224","0.0-2.0-16.7-0.7","63d1b93d9abc8c4b40e2d92f","C3","batch3","","479","tol_tohand","","","","tol_peg_3","479","479","0","[[0,0,0],[3,2],[0]]","8","[[1,2,0],[3,0],[0]]","2","0","","","","","","4","","","","","","","","",""
"","","","","","single-stim-button","59","147913","0.0-2.0-16.7-1.7","63d1b93d9abc8c4b40e2d92f","C3","batch3","","687","tol_toboard","","","","tol_peg_1","687","687","0","[[1,0,0],[3,2],[0]]","8","[[1,2,0],[3,0],[0]]","2","0","","","","","","4","","","","","","","","",""
"","","","","","single-stim-button","60","148465","0.0-2.0-16.8-0.8","63d1b93d9abc8c4b40e2d92f","C3","batch3","","552","tol_tohand","","","","tol_peg_2","552","552","0","[[1,0,0],[3,0],[0]]","9","[[1,2,0],[3,0],[0]]","2","0","","","","","","4","","","","","","","","",""
"","","","","","single-stim-button","61","148905","0.0-2.0-16.8-1.8","63d1b93d9abc8c4b40e2d92f","C3","batch3","","439","tol_toboard","","","","tol_peg_1","439","439","0","[[1,2,0],[3,0],[0]]","9","[[1,2,0],[3,0],[0]]","2","0","","","","","","4","","","","","","","","",""
"","","","","","poldrack-single-stim","62","149908","0.0-2.0-17.0","63d1b93d9abc8c4b40e2d92f","C3","batch3","","-1","tol_feedback","","","true","","1000","1000","500","","","","","","-1","none","true","4080","14251","","","","","","","","","",""
"","","","","","html-button-response","63","176993","0.0-2.0-18.0","63d1b93d9abc8c4b40e2d92f","C3","batch3","","27082.199999999255","tol_trial_num","<div class = centerbox><p class = center-block-text>problem <strong>4</strong> out of 25 problems</p></div>","0","","","","","","","","","","","","","","","","","","","","","","","","",""
"","","","","","single-stim-button","64","213207","0.0-2.0-19.0-0.0","63d1b93d9abc8c4b40e2d92f","C3","batch3","","36213","tol_tohand","","","","tol_peg_2","36213","36213","0","[[3,0,0],[2,0],[0]]","1","[[3,0,0],[1,0],[2]]","3","0","","","","","","3","","","","","","","","",""
"","","","","","single-stim-button","65","213807","0.0-2.0-19.0-1.0","63d1b93d9abc8c4b40e2d92f","C3","batch3","","599","tol_toboard","","","","tol_peg_1","599","599","0","[[3,1,0],[2,0],[0]]","1","[[3,0,0],[1,0],[2]]","3","0","","","","","","3","","","","","","","","",""
"","","","","","single-stim-button","66","214472","0.0-2.0-19.1-0.1","63d1b93d9abc8c4b40e2d92f","C3","batch3","","663","tol_tohand","","","","tol_peg_2","663","663","0","[[3,1,0],[0,0],[0]]","2","[[3,0,0],[1,0],[2]]","3","0","","","","","","3","","","","","","","","",""
"","","","","","single-stim-button","67","215351","0.0-2.0-19.1-1.1","63d1b93d9abc8c4b40e2d92f","C3","batch3","","878","tol_toboard","","","","tol_peg_3","878","878","0","[[3,1,0],[0,0],[2]]","2","[[3,0,0],[1,0],[2]]","3","0","","","","","","3","","","","","","","","",""
"","","","","","single-stim-button","68","216095","0.0-2.0-19.2-0.2","63d1b93d9abc8c4b40e2d92f","C3","batch3","","744","tol_tohand","","","","tol_peg_1","744","744","0","[[3,0,0],[0,0],[2]]","3","[[3,0,0],[1,0],[2]]","3","0","","","","","","3","","","","","","","","",""
"","","","","","single-stim-button","69","216791","0.0-2.0-19.2-1.2","63d1b93d9abc8c4b40e2d92f","C3","batch3","","695","tol_toboard","","","","tol_peg_2","695","695","0","[[3,0,0],[1,0],[2]]","3","[[3,0,0],[1,0],[2]]","3","0","","","","","","3","","","","","","","","",""
"","","","","","poldrack-single-stim","70","217794","0.0-2.0-20.0","63d1b93d9abc8c4b40e2d92f","C3","batch3","","-1","tol_feedback","","","true","","1000","1000","500","","","","","","-1","none","true","36213","37620","","","","","","","","","",""
"","","","","","html-button-response","71","218967","0.0-2.0-21.0","63d1b93d9abc8c4b40e2d92f","C3","batch3","","1171.800000000745","tol_trial_num","<div class = centerbox><p class = center-block-text>problem <strong>5</strong> out of 25 problems</p></div>","0","","","","","","","","","","","","","","","","","","","","","","","","",""
"","","","","","single-stim-button","72","224648","0.0-2.0-22.0-0.0","63d1b93d9abc8c4b40e2d92f","C3","batch3","","5679","tol_tohand","","","","tol_peg_2","5679","5679","0","[[1,0,0],[0,0],[3]]","1","[[0,0,0],[1,2],[3]]","4","0","","","","","","7","","","","","","","","",""
"","","","","","single-stim-button","73","226295","0.0-2.0-22.0-1.0","63d1b93d9abc8c4b40e2d92f","C3","batch3","","1647","tol_toboard","","","","tol_peg_2","1647","1647","0","[[1,0,0],[2,0],[3]]","1","[[0,0,0],[1,2],[3]]","4","0","","","","","","7","","","","","","","","",""
"","","","","","single-stim-button","74","228415","0.0-2.0-22.1-0.1","63d1b93d9abc8c4b40e2d92f","C3","batch3","","2119","tol_tohand","","","","tol_peg_3","2119","2119","0","[[1,0,0],[2,0],[0]]","2","[[0,0,0],[1,2],[3]]","4","0","","","","","","7","","","","","","","","",""
"","","","","","single-stim-button","75","229143","0.0-2.0-22.1-1.1","63d1b93d9abc8c4b40e2d92f","C3","batch3","","727","tol_toboard","","","","tol_peg_1","727","727","0","[[1,3,0],[2,0],[0]]","2","[[0,0,0],[1,2],[3]]","4","0","","","","","","7","","","","","","","","",""
"","","","","","single-stim-button","76","229887","0.0-2.0-22.2-0.2","63d1b93d9abc8c4b40e2d92f","C3","batch3","","744","tol_tohand","","","","tol_peg_2","744","744","0","[[1,3,0],[0,0],[0]]","3","[[0,0,0],[1,2],[3]]","4","0","","","","","","7","","","","","","","","",""
"","","","","","single-stim-button","77","230431","0.0-2.0-22.2-1.2","63d1b93d9abc8c4b40e2d92f","C3","batch3","","543","tol_toboard","","","","tol_peg_3","543","543","0","[[1,3,0],[0,0],[2]]","3","[[0,0,0],[1,2],[3]]","4","0","","","","","","7","","","","","","","","",""
"","","","","","single-stim-button","78","231096","0.0-2.0-22.3-0.3","63d1b93d9abc8c4b40e2d92f","C3","batch3","","663","tol_tohand","","","","tol_peg_1","663","663","0","[[1,0,0],[0,0],[2]]","4","[[0,0,0],[1,2],[3]]","4","0","","","","","","7","","","","","","","","",""
"","","","","","single-stim-button","79","237248","0.0-2.0-22.3-1.3","63d1b93d9abc8c4b40e2d92f","C3","batch3","","6152","tol_toboard","","","","tol_peg_1","6152","6152","0","[[1,3,0],[0,0],[2]]","4","[[0,0,0],[1,2],[3]]","4","0","","","","","","7","","","","","","","","",""
"","","","","","single-stim-button","80","240736","0.0-2.0-22.4-0.4","63d1b93d9abc8c4b40e2d92f","C3","batch3","","3487","tol_tohand","","","","tol_peg_3","3487","3487","0","[[1,3,0],[0,0],[0]]","5","[[0,0,0],[1,2],[3]]","4","0","","","","","","7","","","","","","","","",""
"","","","","","single-stim-button","81","243272","0.0-2.0-22.4-1.4","63d1b93d9abc8c4b40e2d92f","C3","batch3","","2534","tol_toboard","","","","tol_peg_1","2534","2534","0","[[1,3,2],[0,0],[0]]","5","[[0,0,0],[1,2],[3]]","4","0","","","","","","7","","","","","","","","",""
"","","","","","single-stim-button","82","244783","0.0-2.0-22.5-0.5","63d1b93d9abc8c4b40e2d92f","C3","batch3","","1511","tol_tohand","","","","tol_peg_1","1511","1511","0","[[1,3,0],[0,0],[0]]","6","[[0,0,0],[1,2],[3]]","4","0","","","","","","7","","","","","","","","",""
"","","","","","single-stim-button","83","246952","0.0-2.0-22.5-1.5","63d1b93d9abc8c4b40e2d92f","C3","batch3","","2167","tol_toboard","","","","tol_peg_2","2167","2167","0","[[1,3,0],[2,0],[0]]","6","[[0,0,0],[1,2],[3]]","4","0","","","","","","7","","","","","","","","",""
"","","","","","single-stim-button","84","247880","0.0-2.0-22.6-0.6","63d1b93d9abc8c4b40e2d92f","C3","batch3","","927","tol_tohand","","","","tol_peg_1","927","927","0","[[1,0,0],[2,0],[0]]","7","[[0,0,0],[1,2],[3]]","4","0","","","","","","7","","","","","","","","",""
"","","","","","single-stim-button","85","248560","0.0-2.0-22.6-1.6","63d1b93d9abc8c4b40e2d92f","C3","batch3","","680","tol_toboard","","","","tol_peg_3","680","680","0","[[1,0,0],[2,0],[3]]","7","[[0,0,0],[1,2],[3]]","4","0","","","","","","7","","","","","","","","",""
"","","","","","single-stim-button","86","251751","0.0-2.0-22.7-0.7","63d1b93d9abc8c4b40e2d92f","C3","batch3","","3189","tol_tohand","","","","tol_peg_1","3189","3189","0","[[0,0,0],[2,0],[3]]","8","[[0,0,0],[1,2],[3]]","4","0","","","","","","7","","","","","","","","",""
"","","","","","single-stim-button","87","253007","0.0-2.0-22.7-1.7","63d1b93d9abc8c4b40e2d92f","C3","batch3","","1256","tol_toboard","","","","tol_peg_2","1256","1256","0","[[0,0,0],[2,1],[3]]","8","[[0,0,0],[1,2],[3]]","4","0","","","","","","7","","","","","","","","",""
"","","","","","single-stim-button","88","253751","0.0-2.0-22.8-0.8","63d1b93d9abc8c4b40e2d92f","C3","batch3","","743","tol_tohand","","","","tol_peg_3","743","743","0","[[0,0,0],[2,1],[0]]","9","[[0,0,0],[1,2],[3]]","4","0","","","","","","7","","","","","","","","",""
"","","","","","single-stim-button","89","254431","0.0-2.0-22.8-1.8","63d1b93d9abc8c4b40e2d92f","C3","batch3","","679","tol_toboard","","","","tol_peg_1","679","679","0","[[3,0,0],[2,1],[0]]","9","[[0,0,0],[1,2],[3]]","4","0","","","","","","7","","","","","","","","",""
"","","","","","single-stim-button","90","255408","0.0-2.0-22.9-0.9","63d1b93d9abc8c4b40e2d92f","C3","batch3","","976","tol_tohand","","","","tol_peg_2","976","976","0","[[3,0,0],[2,0],[0]]","10","[[0,0,0],[1,2],[3]]","4","0","","","","","","7","","","","","","","","",""
"","","","","","single-stim-button","91","255999","0.0-2.0-22.9-1.9","63d1b93d9abc8c4b40e2d92f","C3","batch3","","590","tol_toboard","","","","tol_peg_3","590","590","0","[[3,0,0],[2,0],[1]]","10","[[0,0,0],[1,2],[3]]","4","0","","","","","","7","","","","","","","","",""
"","","","","","single-stim-button","92","257632","0.0-2.0-22.10-0.10","63d1b93d9abc8c4b40e2d92f","C3","batch3","","1631","tol_tohand","","","","tol_peg_2","1631","1631","0","[[3,0,0],[0,0],[1]]","11","[[0,0,0],[1,2],[3]]","4","0","","","","","","7","","","","","","","","",""
"","","","","","single-stim-button","93","258095","0.0-2.0-22.10-1.10","63d1b93d9abc8c4b40e2d92f","C3","batch3","","463","tol_toboard","","","","tol_peg_1","463","463","0","[[3,2,0],[0,0],[1]]","11","[[0,0,0],[1,2],[3]]","4","0","","","","","","7","","","","","","","","",""
"","","","","","single-stim-button","94","258680","0.0-2.0-22.11-0.11","63d1b93d9abc8c4b40e2d92f","C3","batch3","","583","tol_tohand","","","","tol_peg_3","583","583","0","[[3,2,0],[0,0],[0]]","12","[[0,0,0],[1,2],[3]]","4","0","","","","","","7","","","","","","","","",""
"","","","","","single-stim-button","95","259159","0.0-2.0-22.11-1.11","63d1b93d9abc8c4b40e2d92f","C3","batch3","","479","tol_toboard","","","","tol_peg_2","479","479","0","[[3,2,0],[1,0],[0]]","12","[[0,0,0],[1,2],[3]]","4","0","","","","","","7","","","","","","","","",""
"","","","","","single-stim-button","96","259648","0.0-2.0-22.12-0.12","63d1b93d9abc8c4b40e2d92f","C3","batch3","","487","tol_tohand","","","","tol_peg_1","487","487","0","[[3,0,0],[1,0],[0]]","13","[[0,0,0],[1,2],[3]]","4","0","","","","","","7","","","","","","","","",""
"","","","","","single-stim-button","97","260048","0.0-2.0-22.12-1.12","63d1b93d9abc8c4b40e2d92f","C3","batch3","","399","tol_toboard","","","","tol_peg_2","399","399","0","[[3,0,0],[1,2],[0]]","13","[[0,0,0],[1,2],[3]]","4","0","","","","","","7","","","","","","","","",""
"","","","","","single-stim-button","98","260633","0.0-2.0-22.13-0.13","63d1b93d9abc8c4b40e2d92f","C3","batch3","","583","tol_tohand","","","","tol_peg_1","583","583","0","[[0,0,0],[1,2],[0]]","14","[[0,0,0],[1,2],[3]]","4","0","","","","","","7","","","","","","","","",""
"","","","","","single-stim-button","99","261129","0.0-2.0-22.13-1.13","63d1b93d9abc8c4b40e2d92f","C3","batch3","","496","tol_toboard","","","","tol_peg_3","496","496","0","[[0,0,0],[1,2],[3]]","14","[[0,0,0],[1,2],[3]]","4","0","","","","","","7","","","","","","","","",""
"","","","","","poldrack-single-stim","100","262132","0.0-2.0-23.0","63d1b93d9abc8c4b40e2d92f","C3","batch3","","-1","tol_feedback","","","true","","1000","1000","500","","","","","","-1","none","true","5679","23322","","","","","","","","","",""
"","","","","","html-button-response","101","263712","0.0-2.0-24.0","63d1b93d9abc8c4b40e2d92f","C3","batch3","","1579.199999999255","tol_trial_num","<div class = centerbox><p class = center-block-text>problem <strong>6</strong> out of 25 problems</p></div>","0","","","","","","","","","","","","","","","","","","","","","","","","",""
"","","","","","single-stim-button","102","270888","0.0-2.0-25.0-0.0","63d1b93d9abc8c4b40e2d92f","C3","batch3","","7174","tol_tohand","","","","tol_peg_2","7174","7174","0","[[0,0,0],[1,0],[3]]","1","[[1,0,0],[2,3],[0]]","5","0","","","","","","6","","","","","","","","",""
"","","","","","single-stim-button","103","272264","0.0-2.0-25.0-1.0","63d1b93d9abc8c4b40e2d92f","C3","batch3","","1375","tol_toboard","","","","tol_peg_2","1375","1375","0","[[0,0,0],[1,2],[3]]","1","[[1,0,0],[2,3],[0]]","5","0","","","","","","6","","","","","","","","",""
"","","","","","single-stim-button","104","275449","0.0-2.0-25.1-0.1","63d1b93d9abc8c4b40e2d92f","C3","batch3","","3184","tol_tohand","","","","tol_peg_2","3184","3184","0","[[0,0,0],[1,0],[3]]","2","[[1,0,0],[2,3],[0]]","5","0","","","","","","6","","","","","","","","",""
"","","","","","single-stim-button","105","276608","0.0-2.0-25.1-1.1","63d1b93d9abc8c4b40e2d92f","C3","batch3","","1159","tol_toboard","","","","tol_peg_1","1159","1159","0","[[2,0,0],[1,0],[3]]","2","[[1,0,0],[2,3],[0]]","5","0","","","","","","6","","","","","","","","",""
"","","","","","single-stim-button","106","277408","0.0-2.0-25.2-0.2","63d1b93d9abc8c4b40e2d92f","C3","batch3","","799","tol_tohand","","","","tol_peg_3","799","799","0","[[2,0,0],[1,0],[0]]","3","[[1,0,0],[2,3],[0]]","5","0","","","","","","6","","","","","","","","",""
"","","","","","single-stim-button","107","279057","0.0-2.0-25.2-1.2","63d1b93d9abc8c4b40e2d92f","C3","batch3","","1647","tol_toboard","","","","tol_peg_3","1647","1647","0","[[2,0,0],[1,0],[3]]","3","[[1,0,0],[2,3],[0]]","5","0","","","","","","6","","","","","","","","",""
"","","","","","single-stim-button","108","279889","0.0-2.0-25.3-0.3","63d1b93d9abc8c4b40e2d92f","C3","batch3","","831","tol_tohand","","","","tol_peg_1","831","831","0","[[0,0,0],[1,0],[3]]","4","[[1,0,0],[2,3],[0]]","5","0","","","","","","6","","","","","","","","",""
"","","","","","single-stim-button","109","280537","0.0-2.0-25.3-1.3","63d1b93d9abc8c4b40e2d92f","C3","batch3","","647","tol_toboard","","","","tol_peg_2","647","647","0","[[0,0,0],[1,2],[3]]","4","[[1,0,0],[2,3],[0]]","5","0","","","","","","6","","","","","","","","",""
"","","","","","single-stim-button","110","281809","0.0-2.0-25.4-0.4","63d1b93d9abc8c4b40e2d92f","C3","batch3","","1272","tol_tohand","","","","tol_peg_3","1272","1272","0","[[0,0,0],[1,2],[0]]","5","[[1,0,0],[2,3],[0]]","5","0","","","","","","6","","","","","","","","",""
"","","","","","single-stim-button","111","282640","0.0-2.0-25.4-1.4","63d1b93d9abc8c4b40e2d92f","C3","batch3","","831","tol_toboard","","","","tol_peg_1","831","831","0","[[3,0,0],[1,2],[0]]","5","[[1,0,0],[2,3],[0]]","5","0","","","","","","6","","","","","","","","",""
"","","","","","single-stim-button","112","283992","0.0-2.0-25.5-0.5","63d1b93d9abc8c4b40e2d92f","C3","batch3","","1351","tol_tohand","","","","tol_peg_2","1351","1351","0","[[3,0,0],[1,0],[0]]","6","[[1,0,0],[2,3],[0]]","5","0","","","","","","6","","","","","","","","",""
"","","","","","single-stim-button","113","284593","0.0-2.0-25.5-1.5","63d1b93d9abc8c4b40e2d92f","C3","batch3","","599","tol_toboard","","","","tol_peg_1","599","599","0","[[3,2,0],[1,0],[0]]","6","[[1,0,0],[2,3],[0]]","5","0","","","","","","6","","","","","","","","",""
"","","","","","single-stim-button","114","314001","0.0-2.0-25.6-0.6","63d1b93d9abc8c4b40e2d92f","C3","batch3","","29407","tol_tohand","","","","tol_peg_2","29407","29407","0","[[3,2,0],[0,0],[0]]","7","[[1,0,0],[2,3],[0]]","5","0","","","","","","6","","","","","","","","",""
"","","","","","single-stim-button","115","314729","0.0-2.0-25.6-1.6","63d1b93d9abc8c4b40e2d92f","C3","batch3","","727","tol_toboard","","","","tol_peg_3","727","727","0","[[3,2,0],[0,0],[1]]","7","[[1,0,0],[2,3],[0]]","5","0","","","","","","6","","","","","","","","",""
"","","","","","single-stim-button","116","316120","0.0-2.0-25.7-0.7","63d1b93d9abc8c4b40e2d92f","C3","batch3","","1391","tol_tohand","","","","tol_peg_1","1391","1391","0","[[3,0,0],[0,0],[1]]","8","[[1,0,0],[2,3],[0]]","5","0","","","","","","6","","","","","","","","",""
"","","","","","single-stim-button","117","316688","0.0-2.0-25.7-1.7","63d1b93d9abc8c4b40e2d92f","C3","batch3","","567","tol_toboard","","","","tol_peg_2","567","567","0","[[3,0,0],[2,0],[1]]","8","[[1,0,0],[2,3],[0]]","5","0","","","","","","6","","","","","","","","",""
"","","","","","single-stim-button","118","318664","0.0-2.0-25.8-0.8","63d1b93d9abc8c4b40e2d92f","C3","batch3","","1974","tol_tohand","","","","tol_peg_1","1974","1974","0","[[0,0,0],[2,0],[1]]","9","[[1,0,0],[2,3],[0]]","5","0","","","","","","6","","","","","","","","",""
"","","","","","single-stim-button","119","319784","0.0-2.0-25.8-1.8","63d1b93d9abc8c4b40e2d92f","C3","batch3","","1120","tol_toboard","","","","tol_peg_2","1120","1120","0","[[0,0,0],[2,3],[1]]","9","[[1,0,0],[2,3],[0]]","5","0","","","","","","6","","","","","","","","",""
"","","","","","single-stim-button","120","320599","0.0-2.0-25.9-0.9","63d1b93d9abc8c4b40e2d92f","C3","batch3","","814","tol_tohand","","","","tol_peg_3","814","814","0","[[0,0,0],[2,3],[0]]","10","[[1,0,0],[2,3],[0]]","5","0","","","","","","6","","","","","","","","",""
"","","","","","single-stim-button","121","321407","0.0-2.0-25.9-1.9","63d1b93d9abc8c4b40e2d92f","C3","batch3","","808","tol_toboard","","","","tol_peg_1","808","808","0","[[1,0,0],[2,3],[0]]","10","[[1,0,0],[2,3],[0]]","5","0","","","","","","6","","","","","","","","",""
"","","","","","poldrack-single-stim","122","322409","0.0-2.0-26.0","63d1b93d9abc8c4b40e2d92f","C3","batch3","","-1","tol_feedback","","","true","","1000","1000","500","","","","","","-1","none","true","7174","48197","","","","","","","","","",""
"","","","","","html-button-response","123","324464","0.0-2.0-27.0","63d1b93d9abc8c4b40e2d92f","C3","batch3","","2053.9000000003725","tol_trial_num","<div class = centerbox><p class = center-block-text>problem <strong>7</strong> out of 25 problems</p></div>","0","","","","","","","","","","","","","","","","","","","","","","","","",""
"","","","","","single-stim-button","124","330544","0.0-2.0-28.0-0.0","63d1b93d9abc8c4b40e2d92f","C3","batch3","","6079","tol_tohand","","","","tol_peg_3","6079","6079","0","[[2,1,0],[0,0],[0]]","1","[[1,2,0],[3,0],[0]]","6","0","","","","","","5","","","","","","","","",""
"","","","","","single-stim-button","125","330993","0.0-2.0-28.0-1.0","63d1b93d9abc8c4b40e2d92f","C3","batch3","","447","tol_toboard","","","","tol_peg_2","447","447","0","[[2,1,0],[3,0],[0]]","1","[[1,2,0],[3,0],[0]]","6","0","","","","","","5","","","","","","","","",""
"","","","","","single-stim-button","126","331768","0.0-2.0-28.1-0.1","63d1b93d9abc8c4b40e2d92f","C3","batch3","","774","tol_tohand","","","","tol_peg_1","774","774","0","[[2,0,0],[3,0],[0]]","2","[[1,2,0],[3,0],[0]]","6","0","","","","","","5","","","","","","","","",""
"","","","","","single-stim-button","127","332456","0.0-2.0-28.1-1.1","63d1b93d9abc8c4b40e2d92f","C3","batch3","","688","tol_toboard","","","","tol_peg_3","688","688","0","[[2,0,0],[3,0],[1]]","2","[[1,2,0],[3,0],[0]]","6","0","","","","","","5","","","","","","","","",""
"","","","","","single-stim-button","128","333384","0.0-2.0-28.2-0.2","63d1b93d9abc8c4b40e2d92f","C3","batch3","","928","tol_tohand","","","","tol_peg_1","928","928","0","[[0,0,0],[3,0],[1]]","3","[[1,2,0],[3,0],[0]]","6","0","","","","","","5","","","","","","","","",""
"","","","","","single-stim-button","129","334632","0.0-2.0-28.2-1.2","63d1b93d9abc8c4b40e2d92f","C3","batch3","","1247","tol_toboard","","","","tol_peg_2","1247","1247","0","[[0,0,0],[3,2],[1]]","3","[[1,2,0],[3,0],[0]]","6","0","","","","","","5","","","","","","","","",""
"","","","","","single-stim-button","130","335129","0.0-2.0-28.3-0.3","63d1b93d9abc8c4b40e2d92f","C3","batch3","","496","tol_tohand","","","","tol_peg_3","496","496","0","[[0,0,0],[3,2],[0]]","4","[[1,2,0],[3,0],[0]]","6","0","","","","","","5","","","","","","","","",""
"","","","","","single-stim-button","131","335713","0.0-2.0-28.3-1.3","63d1b93d9abc8c4b40e2d92f","C3","batch3","","583","tol_toboard","","","","tol_peg_1","583","583","0","[[1,0,0],[3,2],[0]]","4","[[1,2,0],[3,0],[0]]","6","0","","","","","","5","","","","","","","","",""
"","","","","","single-stim-button","132","337177","0.0-2.0-28.4-0.4","63d1b93d9abc8c4b40e2d92f","C3","batch3","","1463","tol_tohand","","","","tol_peg_2","1463","1463","0","[[1,0,0],[3,0],[0]]","5","[[1,2,0],[3,0],[0]]","6","0","","","","","","5","","","","","","","","",""
"","","","","","single-stim-button","133","337537","0.0-2.0-28.4-1.4","63d1b93d9abc8c4b40e2d92f","C3","batch3","","359","tol_toboard","","","","tol_peg_1","359","359","0","[[1,2,0],[3,0],[0]]","5","[[1,2,0],[3,0],[0]]","6","0","","","","","","5","","","","","","","","",""
"","","","","","poldrack-single-stim","134","338539","0.0-2.0-29.0","63d1b93d9abc8c4b40e2d92f","C3","batch3","","-1","tol_feedback","","","true","","1000","1000","500","","","","","","-1","none","true","6079","9740","","","","","","","","","",""
"","","","","","html-button-response","135","339520","0.0-2.0-30.0","63d1b93d9abc8c4b40e2d92f","C3","batch3","","979.8999999985099","tol_trial_num","<div class = centerbox><p class = center-block-text>problem <strong>8</strong> out of 25 problems</p></div>","0","","","","","","","","","","","","","","","","","","","","","","","","",""
"","","","","","single-stim-button","136","342864","0.0-2.0-31.0-0.0","63d1b93d9abc8c4b40e2d92f","C3","batch3","","3343","tol_tohand","","","","tol_peg_3","3343","3343","0","[[0,0,0],[2,3],[0]]","1","[[1,2,0],[3,0],[0]]","7","0","","","","","","4","","","","","","","","",""
"","","","","","single-stim-button","137","343529","0.0-2.0-31.0-1.0","63d1b93d9abc8c4b40e2d92f","C3","batch3","","663","tol_toboard","","","","tol_peg_1","663","663","0","[[1,0,0],[2,3],[0]]","1","[[1,2,0],[3,0],[0]]","7","0","","","","","","4","","","","","","","","",""
"","","","","","single-stim-button","138","343776","0.0-2.0-31.1-0.1","63d1b93d9abc8c4b40e2d92f","C3","batch3","","247","tol_tohand","","","","tol_peg_1","247","247","0","[[0,0,0],[2,3],[0]]","2","[[1,2,0],[3,0],[0]]","7","0","","","","","","4","","","","","","","","",""
"","","","","","single-stim-button","139","344768","0.0-2.0-31.1-1.1","63d1b93d9abc8c4b40e2d92f","C3","batch3","","992","tol_toboard","","","","tol_peg_1","992","992","0","[[1,0,0],[2,3],[0]]","2","[[1,2,0],[3,0],[0]]","7","0","","","","","","4","","","","","","","","",""
"","","","","","single-stim-button","140","345801","0.0-2.0-31.2-0.2","63d1b93d9abc8c4b40e2d92f","C3","batch3","","1031","tol_tohand","","","","tol_peg_2","1031","1031","0","[[1,0,0],[2,0],[0]]","3","[[1,2,0],[3,0],[0]]","7","0","","","","","","4","","","","","","","","",""
"","","","","","single-stim-button","141","346313","0.0-2.0-31.2-1.2","63d1b93d9abc8c4b40e2d92f","C3","batch3","","511","tol_toboard","","","","tol_peg_3","511","511","0","[[1,0,0],[2,0],[3]]","3","[[1,2,0],[3,0],[0]]","7","0","","","","","","4","","","","","","","","",""
"","","","","","single-stim-button","142","346872","0.0-2.0-31.3-0.3","63d1b93d9abc8c4b40e2d92f","C3","batch3","","558","tol_tohand","","","","tol_peg_2","558","558","0","[[1,0,0],[0,0],[3]]","4","[[1,2,0],[3,0],[0]]","7","0","","","","","","4","","","","","","","","",""
"","","","","","single-stim-button","143","347313","0.0-2.0-31.3-1.3","63d1b93d9abc8c4b40e2d92f","C3","batch3","","440","tol_toboard","","","","tol_peg_1","440","440","0","[[1,2,0],[0,0],[3]]","4","[[1,2,0],[3,0],[0]]","7","0","","","","","","4","","","","","","","","",""
"","","","","","single-stim-button","144","347832","0.0-2.0-31.4-0.4","63d1b93d9abc8c4b40e2d92f","C3","batch3","","519","tol_tohand","","","","tol_peg_3","519","519","0","[[1,2,0],[0,0],[0]]","5","[[1,2,0],[3,0],[0]]","7","0","","","","","","4","","","","","","","","",""
"","","","","","single-stim-button","145","348240","0.0-2.0-31.4-1.4","63d1b93d9abc8c4b40e2d92f","C3","batch3","","407","tol_toboard","","","","tol_peg_2","407","407","0","[[1,2,0],[3,0],[0]]","5","[[1,2,0],[3,0],[0]]","7","0","","","","","","4","","","","","","","","",""
"","","","","","poldrack-single-stim","146","349242","0.0-2.0-32.0","63d1b93d9abc8c4b40e2d92f","C3","batch3","","-1","tol_feedback","","","true","","1000","1000","500","","","","","","-1","none","true","3343","5698","","","","","","","","","",""
"","","","","","html-button-response","147","350464","0.0-2.0-33.0","63d1b93d9abc8c4b40e2d92f","C3","batch3","","1221","tol_trial_num","<div class = centerbox><p class = center-block-text>problem <strong>9</strong> out of 25 problems</p></div>","0","","","","","","","","","","","","","","","","","","","","","","","","",""
"","","","","","single-stim-button","148","354015","0.0-2.0-34.0-0.0","63d1b93d9abc8c4b40e2d92f","C3","batch3","","3551","tol_tohand","","","","tol_peg_3","3551","3551","0","[[3,2,0],[0,0],[0]]","1","[[2,1,0],[3,0],[0]]","8","0","","","","","","6","","","","","","","","",""
"","","","","","single-stim-button","149","355816","0.0-2.0-34.0-1.0","63d1b93d9abc8c4b40e2d92f","C3","batch3","","1800","tol_toboard","","","","tol_peg_2","1800","1800","0","[[3,2,0],[1,0],[0]]","1","[[2,1,0],[3,0],[0]]","8","0","","","","","","6","","","","","","","","",""
"","","","","","single-stim-button","150","356689","0.0-2.0-34.1-0.1","63d1b93d9abc8c4b40e2d92f","C3","batch3","","871","tol_tohand","","","","tol_peg_1","871","871","0","[[3,0,0],[1,0],[0]]","2","[[2,1,0],[3,0],[0]]","8","0","","","","","","6","","","","","","","","",""
"","","","","","single-stim-button","151","357240","0.0-2.0-34.1-1.1","63d1b93d9abc8c4b40e2d92f","C3","batch3","","551","tol_toboard","","","","tol_peg_3","551","551","0","[[3,0,0],[1,0],[2]]","2","[[2,1,0],[3,0],[0]]","8","0","","","","","","6","","","","","","","","",""
"","","","","","single-stim-button","152","360744","0.0-2.0-34.2-0.2","63d1b93d9abc8c4b40e2d92f","C3","batch3","","3502","tol_tohand","","","","tol_peg_1","3502","3502","0","[[0,0,0],[1,0],[2]]","3","[[2,1,0],[3,0],[0]]","8","0","","","","","","6","","","","","","","","",""
"","","","","","single-stim-button","153","362432","0.0-2.0-34.2-1.2","63d1b93d9abc8c4b40e2d92f","C3","batch3","","1687","tol_toboard","","","","tol_peg_2","1687","1687","0","[[0,0,0],[1,3],[2]]","3","[[2,1,0],[3,0],[0]]","8","0","","","","","","6","","","","","","","","",""
"","","","","","single-stim-button","154","362896","0.0-2.0-34.3-0.3","63d1b93d9abc8c4b40e2d92f","C3","batch3","","464","tol_tohand","","","","tol_peg_3","464","464","0","[[0,0,0],[1,3],[0]]","4","[[2,1,0],[3,0],[0]]","8","0","","","","","","6","","","","","","","","",""
"","","","","","single-stim-button","155","363345","0.0-2.0-34.3-1.3","63d1b93d9abc8c4b40e2d92f","C3","batch3","","447","tol_toboard","","","","tol_peg_1","447","447","0","[[2,0,0],[1,3],[0]]","4","[[2,1,0],[3,0],[0]]","8","0","","","","","","6","","","","","","","","",""
"","","","","","single-stim-button","156","363785","0.0-2.0-34.4-0.4","63d1b93d9abc8c4b40e2d92f","C3","batch3","","439","tol_tohand","","","","tol_peg_2","439","439","0","[[2,0,0],[1,0],[0]]","5","[[2,1,0],[3,0],[0]]","8","0","","","","","","6","","","","","","","","",""
"","","","","","single-stim-button","157","364280","0.0-2.0-34.4-1.4","63d1b93d9abc8c4b40e2d92f","C3","batch3","","495","tol_toboard","","","","tol_peg_3","495","495","0","[[2,0,0],[1,0],[3]]","5","[[2,1,0],[3,0],[0]]","8","0","","","","","","6","","","","","","","","",""
"","","","","","single-stim-button","158","364753","0.0-2.0-34.5-0.5","63d1b93d9abc8c4b40e2d92f","C3","batch3","","471","tol_tohand","","","","tol_peg_2","471","471","0","[[2,0,0],[0,0],[3]]","6","[[2,1,0],[3,0],[0]]","8","0","","","","","","6","","","","","","","","",""
"","","","","","single-stim-button","159","365224","0.0-2.0-34.5-1.5","63d1b93d9abc8c4b40e2d92f","C3","batch3","","471","tol_toboard","","","","tol_peg_1","471","471","0","[[2,1,0],[0,0],[3]]","6","[[2,1,0],[3,0],[0]]","8","0","","","","","","6","","","","","","","","",""
"","","","","","single-stim-button","160","365712","0.0-2.0-34.6-0.6","63d1b93d9abc8c4b40e2d92f","C3","batch3","","487","tol_tohand","","","","tol_peg_3","487","487","0","[[2,1,0],[0,0],[0]]","7","[[2,1,0],[3,0],[0]]","8","0","","","","","","6","","","","","","","","",""
"","","","","","single-stim-button","161","366239","0.0-2.0-34.6-1.6","63d1b93d9abc8c4b40e2d92f","C3","batch3","","526","tol_toboard","","","","tol_peg_2","526","526","0","[[2,1,0],[3,0],[0]]","7","[[2,1,0],[3,0],[0]]","8","0","","","","","","6","","","","","","","","",""
"","","","","","poldrack-single-stim","162","367241","0.0-2.0-35.0","63d1b93d9abc8c4b40e2d92f","C3","batch3","","-1","tol_feedback","","","true","","1000","1000","500","","","","","","-1","none","true","3551","9785","","","","","","","","","",""
"","","","","","html-button-response","163","368057","0.0-2.0-36.0","63d1b93d9abc8c4b40e2d92f","C3","batch3","","815.5999999996275","tol_trial_num","<div class = centerbox><p class = center-block-text>problem <strong>10</strong> out of 25 problems</p></div>","0","","","","","","","","","","","","","","","","","","","","","","","","",""
"","","","","","single-stim-button","164","392431","0.0-2.0-37.0-0.0","63d1b93d9abc8c4b40e2d92f","C3","batch3","","24374","tol_tohand","","","","tol_peg_2","24374","24374","0","[[3,0,0],[0,0],[2]]","1","[[3,0,0],[2,1],[0]]","9","0","","","","","","3","","","","","","","","",""
"","","","","","single-stim-button","165","392928","0.0-2.0-37.0-1.0","63d1b93d9abc8c4b40e2d92f","C3","batch3","","495","tol_toboard","","","","tol_peg_1","495","495","0","[[3,1,0],[0,0],[2]]","1","[[3,0,0],[2,1],[0]]","9","0","","","","","","3","","","","","","","","",""
"","","","","","single-stim-button","166","393831","0.0-2.0-37.1-0.1","63d1b93d9abc8c4b40e2d92f","C3","batch3","","903","tol_tohand","","","","tol_peg_3","903","903","0","[[3,1,0],[0,0],[0]]","2","[[3,0,0],[2,1],[0]]","9","0","","","","","","3","","","","","","","","",""
"","","","","","single-stim-button","167","394247","0.0-2.0-37.1-1.1","63d1b93d9abc8c4b40e2d92f","C3","batch3","","415","tol_toboard","","","","tol_peg_2","415","415","0","[[3,1,0],[2,0],[0]]","2","[[3,0,0],[2,1],[0]]","9","0","","","","","","3","","","","","","","","",""
"","","","","","single-stim-button","168","395776","0.0-2.0-37.2-0.2","63d1b93d9abc8c4b40e2d92f","C3","batch3","","1529","tol_tohand","","","","tol_peg_1","1529","1529","0","[[3,0,0],[2,0],[0]]","3","[[3,0,0],[2,1],[0]]","9","0","","","","","","3","","","","","","","","",""
"","","","","","single-stim-button","169","396344","0.0-2.0-37.2-1.2","63d1b93d9abc8c4b40e2d92f","C3","batch3","","566","tol_toboard","","","","tol_peg_2","566","566","0","[[3,0,0],[2,1],[0]]","3","[[3,0,0],[2,1],[0]]","9","0","","","","","","3","","","","","","","","",""
"","","","","","poldrack-single-stim","170","397347","0.0-2.0-38.0","63d1b93d9abc8c4b40e2d92f","C3","batch3","","-1","tol_feedback","","","true","","1000","1000","500","","","","","","-1","none","true","24374","26806","","","","","","","","","",""
"","","","","","html-button-response","171","398439","0.0-2.0-39.0","63d1b93d9abc8c4b40e2d92f","C3","batch3","","1090.5","tol_trial_num","<div class = centerbox><p class = center-block-text>problem <strong>11</strong> out of 25 problems</p></div>","0","","","","","","","","","","","","","","","","","","","","","","","","",""
"","","","","","single-stim-button","172","400520","0.0-2.0-40.0-0.0","63d1b93d9abc8c4b40e2d92f","C3","batch3","","2081","tol_tohand","","","","tol_peg_2","2081","2081","0","[[1,2,0],[0,0],[0]]","1","[[2,0,0],[1,3],[0]]","10","0","","","","","","6","","","","","","","","",""
"","","","","","single-stim-button","173","401127","0.0-2.0-40.0-1.0","63d1b93d9abc8c4b40e2d92f","C3","batch3","","607","tol_toboard","","","","tol_peg_3","607","607","0","[[1,2,0],[0,0],[3]]","1","[[2,0,0],[1,3],[0]]","10","0","","","","","","6","","","","","","","","",""
"","","","","","single-stim-button","174","403551","0.0-2.0-40.1-0.1","63d1b93d9abc8c4b40e2d92f","C3","batch3","","2424","tol_tohand","","","","tol_peg_3","2424","2424","0","[[1,2,0],[0,0],[0]]","2","[[2,0,0],[1,3],[0]]","10","0","","","","","","6","","","","","","","","",""
"","","","","","single-stim-button","175","403887","0.0-2.0-40.1-1.1","63d1b93d9abc8c4b40e2d92f","C3","batch3","","335","tol_toboard","","","","tol_peg_2","335","335","0","[[1,2,0],[3,0],[0]]","2","[[2,0,0],[1,3],[0]]","10","0","","","","","","6","","","","","","","","",""
"","","","","","single-stim-button","176","404294","0.0-2.0-40.2-0.2","63d1b93d9abc8c4b40e2d92f","C3","batch3","","406","tol_tohand","","","","tol_peg_1","406","406","0","[[1,0,0],[3,0],[0]]","3","[[2,0,0],[1,3],[0]]","10","0","","","","","","6","","","","","","","","",""
"","","","","","single-stim-button","177","404719","0.0-2.0-40.2-1.2","63d1b93d9abc8c4b40e2d92f","C3","batch3","","424","tol_toboard","","","","tol_peg_3","424","424","0","[[1,0,0],[3,0],[2]]","3","[[2,0,0],[1,3],[0]]","10","0","","","","","","6","","","","","","","","",""
"","","","","","single-stim-button","178","411392","0.0-2.0-40.3-0.3","63d1b93d9abc8c4b40e2d92f","C3","batch3","","6671","tol_tohand","","","","tol_peg_1","6671","6671","0","[[0,0,0],[3,0],[2]]","4","[[2,0,0],[1,3],[0]]","10","0","","","","","","6","","","","","","","","",""
"","","","","","single-stim-button","179","411879","0.0-2.0-40.3-1.3","63d1b93d9abc8c4b40e2d92f","C3","batch3","","487","tol_toboard","","","","tol_peg_2","487","487","0","[[0,0,0],[3,1],[2]]","4","[[2,0,0],[1,3],[0]]","10","0","","","","","","6","","","","","","","","",""
"","","","","","single-stim-button","180","412400","0.0-2.0-40.4-0.4","63d1b93d9abc8c4b40e2d92f","C3","batch3","","520","tol_tohand","","","","tol_peg_3","520","520","0","[[0,0,0],[3,1],[0]]","5","[[2,0,0],[1,3],[0]]","10","0","","","","","","6","","","","","","","","",""
"","","","","","single-stim-button","181","412879","0.0-2.0-40.4-1.4","63d1b93d9abc8c4b40e2d92f","C3","batch3","","478","tol_toboard","","","","tol_peg_1","478","478","0","[[2,0,0],[3,1],[0]]","5","[[2,0,0],[1,3],[0]]","10","0","","","","","","6","","","","","","","","",""
"","","","","","single-stim-button","182","413687","0.0-2.0-40.5-0.5","63d1b93d9abc8c4b40e2d92f","C3","batch3","","807","tol_tohand","","","","tol_peg_2","807","807","0","[[2,0,0],[3,0],[0]]","6","[[2,0,0],[1,3],[0]]","10","0","","","","","","6","","","","","","","","",""
"","","","","","single-stim-button","183","414128","0.0-2.0-40.5-1.5","63d1b93d9abc8c4b40e2d92f","C3","batch3","","439","tol_toboard","","","","tol_peg_1","439","439","0","[[2,1,0],[3,0],[0]]","6","[[2,0,0],[1,3],[0]]","10","0","","","","","","6","","","","","","","","",""
"","","","","","single-stim-button","184","414863","0.0-2.0-40.6-0.6","63d1b93d9abc8c4b40e2d92f","C3","batch3","","735","tol_tohand","","","","tol_peg_2","735","735","0","[[2,1,0],[0,0],[0]]","7","[[2,0,0],[1,3],[0]]","10","0","","","","","","6","","","","","","","","",""
"","","","","","single-stim-button","185","415615","0.0-2.0-40.6-1.6","63d1b93d9abc8c4b40e2d92f","C3","batch3","","751","tol_toboard","","","","tol_peg_3","751","751","0","[[2,1,0],[0,0],[3]]","7","[[2,0,0],[1,3],[0]]","10","0","","","","","","6","","","","","","","","",""
"","","","","","single-stim-button","186","416207","0.0-2.0-40.7-0.7","63d1b93d9abc8c4b40e2d92f","C3","batch3","","591","tol_tohand","","","","tol_peg_1","591","591","0","[[2,0,0],[0,0],[3]]","8","[[2,0,0],[1,3],[0]]","10","0","","","","","","6","","","","","","","","",""
"","","","","","single-stim-button","187","416576","0.0-2.0-40.7-1.7","63d1b93d9abc8c4b40e2d92f","C3","batch3","","367","tol_toboard","","","","tol_peg_2","367","367","0","[[2,0,0],[1,0],[3]]","8","[[2,0,0],[1,3],[0]]","10","0","","","","","","6","","","","","","","","",""
"","","","","","single-stim-button","188","416975","0.0-2.0-40.8-0.8","63d1b93d9abc8c4b40e2d92f","C3","batch3","","398","tol_tohand","","","","tol_peg_3","398","398","0","[[2,0,0],[1,0],[0]]","9","[[2,0,0],[1,3],[0]]","10","0","","","","","","6","","","","","","","","",""
"","","","","","single-stim-button","189","417495","0.0-2.0-40.8-1.8","63d1b93d9abc8c4b40e2d92f","C3","batch3","","520","tol_toboard","","","","tol_peg_2","520","520","0","[[2,0,0],[1,3],[0]]","9","[[2,0,0],[1,3],[0]]","10","0","","","","","","6","","","","","","","","",""
"","","","","","poldrack-single-stim","190","418497","0.0-2.0-41.0","63d1b93d9abc8c4b40e2d92f","C3","batch3","","-1","tol_feedback","","","true","","1000","1000","500","","","","","","-1","none","true","2081","14633","","","","","","","","","",""
"","","","","","html-button-response","191","419919","0.0-2.0-42.0","63d1b93d9abc8c4b40e2d92f","C3","batch3","","1419.699999999255","tol_trial_num","<div class = centerbox><p class = center-block-text>problem <strong>12</strong> out of 25 problems</p></div>","0","","","","","","","","","","","","","","","","","","","","","","","","",""
"","","","","","single-stim-button","192","421312","0.0-2.0-43.0-0.0","63d1b93d9abc8c4b40e2d92f","C3","batch3","","1393","tol_tohand","","","","tol_peg_2","1393","1393","0","[[1,2,0],[0,0],[0]]","1","[[2,3,0],[0,0],[1]]","11","0","","","","","","4","","","","","","","","",""
"","","","","","single-stim-button","193","423127","0.0-2.0-43.0-1.0","63d1b93d9abc8c4b40e2d92f","C3","batch3","","1815","tol_toboard","","","","tol_peg_3","1815","1815","0","[[1,2,0],[0,0],[3]]","1","[[2,3,0],[0,0],[1]]","11","0","","","","","","4","","","","","","","","",""
"","","","","","single-stim-button","194","429432","0.0-2.0-43.1-0.1","63d1b93d9abc8c4b40e2d92f","C3","batch3","","6303","tol_tohand","","","","tol_peg_1","6303","6303","0","[[1,0,0],[0,0],[3]]","2","[[2,3,0],[0,0],[1]]","11","0","","","","","","4","","","","","","","","",""
"","","","","","single-stim-button","195","429936","0.0-2.0-43.1-1.1","63d1b93d9abc8c4b40e2d92f","C3","batch3","","502","tol_toboard","","","","tol_peg_2","502","502","0","[[1,0,0],[2,0],[3]]","2","[[2,3,0],[0,0],[1]]","11","0","","","","","","4","","","","","","","","",""
"","","","","","single-stim-button","196","431775","0.0-2.0-43.2-0.2","63d1b93d9abc8c4b40e2d92f","C3","batch3","","1839","tol_tohand","","","","tol_peg_3","1839","1839","0","[[1,0,0],[2,0],[0]]","3","[[2,3,0],[0,0],[1]]","11","0","","","","","","4","","","","","","","","",""
"","","","","","single-stim-button","197","432622","0.0-2.0-43.2-1.2","63d1b93d9abc8c4b40e2d92f","C3","batch3","","846","tol_toboard","","","","tol_peg_1","846","846","0","[[1,3,0],[2,0],[0]]","3","[[2,3,0],[0,0],[1]]","11","0","","","","","","4","","","","","","","","",""
"","","","","","single-stim-button","198","433095","0.0-2.0-43.3-0.3","63d1b93d9abc8c4b40e2d92f","C3","batch3","","471","tol_tohand","","","","tol_peg_2","471","471","0","[[1,3,0],[0,0],[0]]","4","[[2,3,0],[0,0],[1]]","11","0","","","","","","4","","","","","","","","",""
"","","","","","single-stim-button","199","433488","0.0-2.0-43.3-1.3","63d1b93d9abc8c4b40e2d92f","C3","batch3","","392","tol_toboard","","","","tol_peg_3","392","392","0","[[1,3,0],[0,0],[2]]","4","[[2,3,0],[0,0],[1]]","11","0","","","","","","4","","","","","","","","",""
"","","","","","single-stim-button","200","434695","0.0-2.0-43.4-0.4","63d1b93d9abc8c4b40e2d92f","C3","batch3","","1207","tol_tohand","","","","tol_peg_1","1207","1207","0","[[1,0,0],[0,0],[2]]","5","[[2,3,0],[0,0],[1]]","11","0","","","","","","4","","","","","","","","",""
"","","","","","single-stim-button","201","435527","0.0-2.0-43.4-1.4","63d1b93d9abc8c4b40e2d92f","C3","batch3","","831","tol_toboard","","","","tol_peg_2","831","831","0","[[1,0,0],[3,0],[2]]","5","[[2,3,0],[0,0],[1]]","11","0","","","","","","4","","","","","","","","",""
"","","","","","single-stim-button","202","436343","0.0-2.0-43.5-0.5","63d1b93d9abc8c4b40e2d92f","C3","batch3","","815","tol_tohand","","","","tol_peg_1","815","815","0","[[0,0,0],[3,0],[2]]","6","[[2,3,0],[0,0],[1]]","11","0","","","","","","4","","","","","","","","",""
"","","","","","single-stim-button","203","436807","0.0-2.0-43.5-1.5","63d1b93d9abc8c4b40e2d92f","C3","batch3","","463","tol_toboard","","","","tol_peg_2","463","463","0","[[0,0,0],[3,1],[2]]","6","[[2,3,0],[0,0],[1]]","11","0","","","","","","4","","","","","","","","",""
"","","","","","single-stim-button","204","437734","0.0-2.0-43.6-0.6","63d1b93d9abc8c4b40e2d92f","C3","batch3","","926","tol_tohand","","","","tol_peg_3","926","926","0","[[0,0,0],[3,1],[0]]","7","[[2,3,0],[0,0],[1]]","11","0","","","","","","4","","","","","","","","",""
"","","","","","single-stim-button","205","438407","0.0-2.0-43.6-1.6","63d1b93d9abc8c4b40e2d92f","C3","batch3","","672","tol_toboard","","","","tol_peg_1","672","672","0","[[2,0,0],[3,1],[0]]","7","[[2,3,0],[0,0],[1]]","11","0","","","","","","4","","","","","","","","",""
"","","","","","single-stim-button","206","438967","0.0-2.0-43.7-0.7","63d1b93d9abc8c4b40e2d92f","C3","batch3","","559","tol_tohand","","","","tol_peg_2","559","559","0","[[2,0,0],[3,0],[0]]","8","[[2,3,0],[0,0],[1]]","11","0","","","","","","4","","","","","","","","",""
"","","","","","single-stim-button","207","439511","0.0-2.0-43.7-1.7","63d1b93d9abc8c4b40e2d92f","C3","batch3","","544","tol_toboard","","","","tol_peg_3","544","544","0","[[2,0,0],[3,0],[1]]","8","[[2,3,0],[0,0],[1]]","11","0","","","","","","4","","","","","","","","",""
"","","","","","single-stim-button","208","439919","0.0-2.0-43.8-0.8","63d1b93d9abc8c4b40e2d92f","C3","batch3","","407","tol_tohand","","","","tol_peg_2","407","407","0","[[2,0,0],[0,0],[1]]","9","[[2,3,0],[0,0],[1]]","11","0","","","","","","4","","","","","","","","",""
"","","","","","single-stim-button","209","440439","0.0-2.0-43.8-1.8","63d1b93d9abc8c4b40e2d92f","C3","batch3","","519","tol_toboard","","","","tol_peg_1","519","519","0","[[2,3,0],[0,0],[1]]","9","[[2,3,0],[0,0],[1]]","11","0","","","","","","4","","","","","","","","",""
"","","","","","poldrack-single-stim","210","441442","0.0-2.0-44.0","63d1b93d9abc8c4b40e2d92f","C3","batch3","","-1","tol_feedback","","","true","","1000","1000","500","","","","","","-1","none","true","1393","13920","","","","","","","","","",""
"","","","","","html-button-response","211","442350","0.0-2.0-45.0","63d1b93d9abc8c4b40e2d92f","C3","batch3","","907.3000000007451","tol_trial_num","<div class = centerbox><p class = center-block-text>problem <strong>13</strong> out of 25 problems</p></div>","0","","","","","","","","","","","","","","","","","","","","","","","","",""
"","","","","","single-stim-button","212","446671","0.0-2.0-46.0-0.0","63d1b93d9abc8c4b40e2d92f","C3","batch3","","4320","tol_tohand","","","","tol_peg_2","4320","4320","0","[[1,2,0],[0,0],[0]]","1","[[0,0,0],[2,3],[1]]","12","0","","","","","","4","","","","","","","","",""
"","","","","","single-stim-button","213","447351","0.0-2.0-46.0-1.0","63d1b93d9abc8c4b40e2d92f","C3","batch3","","680","tol_toboard","","","","tol_peg_3","680","680","0","[[1,2,0],[0,0],[3]]","1","[[0,0,0],[2,3],[1]]","12","0","","","","","","4","","","","","","","","",""
"","","","","","single-stim-button","214","448222","0.0-2.0-46.1-0.1","63d1b93d9abc8c4b40e2d92f","C3","batch3","","870","tol_tohand","","","","tol_peg_1","870","870","0","[[1,0,0],[0,0],[3]]","2","[[0,0,0],[2,3],[1]]","12","0","","","","","","4","","","","","","","","",""
"","","","","","single-stim-button","215","448640","0.0-2.0-46.1-1.1","63d1b93d9abc8c4b40e2d92f","C3","batch3","","416","tol_toboard","","","","tol_peg_2","416","416","0","[[1,0,0],[2,0],[3]]","2","[[0,0,0],[2,3],[1]]","12","0","","","","","","4","","","","","","","","",""
"","","","","","single-stim-button","216","449176","0.0-2.0-46.2-0.2","63d1b93d9abc8c4b40e2d92f","C3","batch3","","535","tol_tohand","","","","tol_peg_3","535","535","0","[[1,0,0],[2,0],[0]]","3","[[0,0,0],[2,3],[1]]","12","0","","","","","","4","","","","","","","","",""
"","","","","","single-stim-button","217","449591","0.0-2.0-46.2-1.2","63d1b93d9abc8c4b40e2d92f","C3","batch3","","415","tol_toboard","","","","tol_peg_2","415","415","0","[[1,0,0],[2,3],[0]]","3","[[0,0,0],[2,3],[1]]","12","0","","","","","","4","","","","","","","","",""
"","","","","","single-stim-button","218","450102","0.0-2.0-46.3-0.3","63d1b93d9abc8c4b40e2d92f","C3","batch3","","510","tol_tohand","","","","tol_peg_1","510","510","0","[[0,0,0],[2,3],[0]]","4","[[0,0,0],[2,3],[1]]","12","0","","","","","","4","","","","","","","","",""
"","","","","","single-stim-button","219","450583","0.0-2.0-46.3-1.3","63d1b93d9abc8c4b40e2d92f","C3","batch3","","481","tol_toboard","","","","tol_peg_3","481","481","0","[[0,0,0],[2,3],[1]]","4","[[0,0,0],[2,3],[1]]","12","0","","","","","","4","","","","","","","","",""
"","","","","","poldrack-single-stim","220","451591","0.0-2.0-47.0","63d1b93d9abc8c4b40e2d92f","C3","batch3","","-1","tol_feedback","","","true","","1000","1000","500","","","","","","-1","none","true","4320","6235","","","","","","","","","",""
"","","","","","html-button-response","221","455047","0.0-2.0-48.0","63d1b93d9abc8c4b40e2d92f","C3","batch3","","3455.0999999996275","attention_check","<p class = block-text>How many balls are in your board<br></p>","1","true","","","","","","","","","","","","","","","","","","","","","","","",""
"","","","","","html-button-response","222","456127","0.0-2.0-49.0","63d1b93d9abc8c4b40e2d92f","C3","batch3","","1079.3999999985099","tol_trial_num","<div class = centerbox><p class = center-block-text>problem <strong>14</strong> out of 25 problems</p></div>","0","","","","","","","","","","","","","","","","","","","","","","","","",""
"","","","","","single-stim-button","223","458183","0.0-2.0-50.0-0.0","63d1b93d9abc8c4b40e2d92f","C3","batch3","","2055","tol_tohand","","","","tol_peg_1","2055","2055","0","[[2,0,0],[3,0],[0]]","1","[[1,2,0],[3,0],[0]]","13","0","","","","","","4","","","","","","","","",""
"","","","","","single-stim-button","224","459135","0.0-2.0-50.0-1.0","63d1b93d9abc8c4b40e2d92f","C3","batch3","","952","tol_toboard","","","","tol_peg_3","952","952","0","[[2,0,0],[3,0],[1]]","1","[[1,2,0],[3,0],[0]]","13","0","","","","","","4","","","","","","","","",""
"","","","","","single-stim-button","225","460447","0.0-2.0-50.1-0.1","63d1b93d9abc8c4b40e2d92f","C3","batch3","","1311","tol_tohand","","","","tol_peg_1","1311","1311","0","[[0,0,0],[3,0],[1]]","2","[[1,2,0],[3,0],[0]]","13","0","","","","","","4","","","","","","","","",""
"","","","","","single-stim-button","226","460950","0.0-2.0-50.1-1.1","63d1b93d9abc8c4b40e2d92f","C3","batch3","","503","tol_toboard","","","","tol_peg_2","503","503","0","[[0,0,0],[3,2],[1]]","2","[[1,2,0],[3,0],[0]]","13","0","","","","","","4","","","","","","","","",""
"","","","","","single-stim-button","227","461368","0.0-2.0-50.2-0.2","63d1b93d9abc8c4b40e2d92f","C3","batch3","","416","tol_tohand","","","","tol_peg_3","416","416","0","[[0,0,0],[3,2],[0]]","3","[[1,2,0],[3,0],[0]]","13","0","","","","","","4","","","","","","","","",""
"","","","","","single-stim-button","228","462095","0.0-2.0-50.2-1.2","63d1b93d9abc8c4b40e2d92f","C3","batch3","","727","tol_toboard","","","","tol_peg_1","727","727","0","[[1,0,0],[3,2],[0]]","3","[[1,2,0],[3,0],[0]]","13","0","","","","","","4","","","","","","","","",""
"","","","","","single-stim-button","229","462543","0.0-2.0-50.3-0.3","63d1b93d9abc8c4b40e2d92f","C3","batch3","","447","tol_tohand","","","","tol_peg_2","447","447","0","[[1,0,0],[3,0],[0]]","4","[[1,2,0],[3,0],[0]]","13","0","","","","","","4","","","","","","","","",""
"","","","","","single-stim-button","230","462959","0.0-2.0-50.3-1.3","63d1b93d9abc8c4b40e2d92f","C3","batch3","","414","tol_toboard","","","","tol_peg_1","414","414","0","[[1,2,0],[3,0],[0]]","4","[[1,2,0],[3,0],[0]]","13","0","","","","","","4","","","","","","","","",""
"","","","","","poldrack-single-stim","231","463960","0.0-2.0-51.0","63d1b93d9abc8c4b40e2d92f","C3","batch3","","-1","tol_feedback","","","true","","1000","1000","500","","","","","","-1","none","true","2055","4229","","","","","","","","","",""
"","","","","","html-button-response","232","465679","0.0-2.0-52.0","63d1b93d9abc8c4b40e2d92f","C3","batch3","","1718.300000000745","tol_trial_num","<div class = centerbox><p class = center-block-text>problem <strong>15</strong> out of 25 problems</p></div>","0","","","","","","","","","","","","","","","","","","","","","","","","",""
"","","","","","single-stim-button","233","468063","0.0-2.0-53.0-0.0","63d1b93d9abc8c4b40e2d92f","C3","batch3","","2383","tol_tohand","","","","tol_peg_1","2383","2383","0","[[1,0,0],[3,0],[0]]","1","[[2,0,0],[3,0],[1]]","14","0","","","","","","3","","","","","","","","",""
"","","","","","single-stim-button","234","468799","0.0-2.0-53.0-1.0","63d1b93d9abc8c4b40e2d92f","C3","batch3","","735","tol_toboard","","","","tol_peg_2","735","735","0","[[1,0,0],[3,2],[0]]","1","[[2,0,0],[3,0],[1]]","14","0","","","","","","3","","","","","","","","",""
"","","","","","single-stim-button","235","469399","0.0-2.0-53.1-0.1","63d1b93d9abc8c4b40e2d92f","C3","batch3","","599","tol_tohand","","","","tol_peg_1","599","599","0","[[0,0,0],[3,2],[0]]","2","[[2,0,0],[3,0],[1]]","14","0","","","","","","3","","","","","","","","",""
"","","","","","single-stim-button","236","470183","0.0-2.0-53.1-1.1","63d1b93d9abc8c4b40e2d92f","C3","batch3","","783","tol_toboard","","","","tol_peg_3","783","783","0","[[0,0,0],[3,2],[1]]","2","[[2,0,0],[3,0],[1]]","14","0","","","","","","3","","","","","","","","",""
"","","","","","single-stim-button","237","470672","0.0-2.0-53.2-0.2","63d1b93d9abc8c4b40e2d92f","C3","batch3","","488","tol_tohand","","","","tol_peg_2","488","488","0","[[0,0,0],[3,0],[1]]","3","[[2,0,0],[3,0],[1]]","14","0","","","","","","3","","","","","","","","",""
"","","","","","single-stim-button","238","471097","0.0-2.0-53.2-1.2","63d1b93d9abc8c4b40e2d92f","C3","batch3","","425","tol_toboard","","","","tol_peg_1","425","425","0","[[2,0,0],[3,0],[1]]","3","[[2,0,0],[3,0],[1]]","14","0","","","","","","3","","","","","","","","",""
"","","","","","poldrack-single-stim","239","472100","0.0-2.0-54.0","63d1b93d9abc8c4b40e2d92f","C3","batch3","","-1","tol_feedback","","","true","","1000","1000","500","","","","","","-1","none","true","2383","3470","","","","","","","","","",""
"","","","","","html-button-response","240","472727","0.0-2.0-55.0","63d1b93d9abc8c4b40e2d92f","C3","batch3","","625.1999999992549","tol_trial_num","<div class = centerbox><p class = center-block-text>problem <strong>16</strong> out of 25 problems</p></div>","0","","","","","","","","","","","","","","","","","","","","","","","","",""
"","","","","","single-stim-button","241","475311","0.0-2.0-56.0-0.0","63d1b93d9abc8c4b40e2d92f","C3","batch3","","2584","tol_tohand","","","","tol_peg_2","2584","2584","0","[[0,0,0],[2,0],[1]]","1","[[2,3,0],[1,0],[0]]","15","0","","","","","","7","","","","","","","","",""
"","","","","","single-stim-button","242","476415","0.0-2.0-56.0-1.0","63d1b93d9abc8c4b40e2d92f","C3","batch3","","1103","tol_toboard","","","","tol_peg_2","1103","1103","0","[[0,0,0],[2,3],[1]]","1","[[2,3,0],[1,0],[0]]","15","0","","","","","","7","","","","","","","","",""
"","","","","","single-stim-button","243","478566","0.0-2.0-56.1-0.1","63d1b93d9abc8c4b40e2d92f","C3","batch3","","2150","tol_tohand","","","","tol_peg_3","2150","2150","0","[[0,0,0],[2,3],[0]]","2","[[2,3,0],[1,0],[0]]","15","0","","","","","","7","","","","","","","","",""
"","","","","","single-stim-button","244","479631","0.0-2.0-56.1-1.1","63d1b93d9abc8c4b40e2d92f","C3","batch3","","1064","tol_toboard","","","","tol_peg_1","1064","1064","0","[[1,0,0],[2,3],[0]]","2","[[2,3,0],[1,0],[0]]","15","0","","","","","","7","","","","","","","","",""
"","","","","","single-stim-button","245","480281","0.0-2.0-56.2-0.2","63d1b93d9abc8c4b40e2d92f","C3","batch3","","649","tol_tohand","","","","tol_peg_2","649","649","0","[[1,0,0],[2,0],[0]]","3","[[2,3,0],[1,0],[0]]","15","0","","","","","","7","","","","","","","","",""
"","","","","","single-stim-button","246","480815","0.0-2.0-56.2-1.2","63d1b93d9abc8c4b40e2d92f","C3","batch3","","533","tol_toboard","","","","tol_peg_3","533","533","0","[[1,0,0],[2,0],[3]]","3","[[2,3,0],[1,0],[0]]","15","0","","","","","","7","","","","","","","","",""
"","","","","","single-stim-button","247","482488","0.0-2.0-56.3-0.3","63d1b93d9abc8c4b40e2d92f","C3","batch3","","1671","tol_tohand","","","","tol_peg_1","1671","1671","0","[[0,0,0],[2,0],[3]]","4","[[2,3,0],[1,0],[0]]","15","0","","","","","","7","","","","","","","","",""
"","","","","","single-stim-button","248","483023","0.0-2.0-56.3-1.3","63d1b93d9abc8c4b40e2d92f","C3","batch3","","535","tol_toboard","","","","tol_peg_2","535","535","0","[[0,0,0],[2,1],[3]]","4","[[2,3,0],[1,0],[0]]","15","0","","","","","","7","","","","","","","","",""
"","","","","","single-stim-button","249","483671","0.0-2.0-56.4-0.4","63d1b93d9abc8c4b40e2d92f","C3","batch3","","647","tol_tohand","","","","tol_peg_2","647","647","0","[[0,0,0],[2,0],[3]]","5","[[2,3,0],[1,0],[0]]","15","0","","","","","","7","","","","","","","","",""
"","","","","","single-stim-button","250","484471","0.0-2.0-56.4-1.4","63d1b93d9abc8c4b40e2d92f","C3","batch3","","799","tol_toboard","","","","tol_peg_1","799","799","0","[[1,0,0],[2,0],[3]]","5","[[2,3,0],[1,0],[0]]","15","0","","","","","","7","","","","","","","","",""
"","","","","","single-stim-button","251","484920","0.0-2.0-56.5-0.5","63d1b93d9abc8c4b40e2d92f","C3","batch3","","447","tol_tohand","","","","tol_peg_2","447","447","0","[[1,0,0],[0,0],[3]]","6","[[2,3,0],[1,0],[0]]","15","0","","","","","","7","","","","","","","","",""
"","","","","","single-stim-button","252","485751","0.0-2.0-56.5-1.5","63d1b93d9abc8c4b40e2d92f","C3","batch3","","831","tol_toboard","","","","tol_peg_1","831","831","0","[[1,2,0],[0,0],[3]]","6","[[2,3,0],[1,0],[0]]","15","0","","","","","","7","","","","","","","","",""
"","","","","","single-stim-button","253","486703","0.0-2.0-56.6-0.6","63d1b93d9abc8c4b40e2d92f","C3","batch3","","951","tol_tohand","","","","tol_peg_3","951","951","0","[[1,2,0],[0,0],[0]]","7","[[2,3,0],[1,0],[0]]","15","0","","","","","","7","","","","","","","","",""
"","","","","","single-stim-button","254","487119","0.0-2.0-56.6-1.6","63d1b93d9abc8c4b40e2d92f","C3","batch3","","416","tol_toboard","","","","tol_peg_2","416","416","0","[[1,2,0],[3,0],[0]]","7","[[2,3,0],[1,0],[0]]","15","0","","","","","","7","","","","","","","","",""
"","","","","","single-stim-button","255","487895","0.0-2.0-56.7-0.7","63d1b93d9abc8c4b40e2d92f","C3","batch3","","775","tol_tohand","","","","tol_peg_1","775","775","0","[[1,0,0],[3,0],[0]]","8","[[2,3,0],[1,0],[0]]","15","0","","","","","","7","","","","","","","","",""
"","","","","","single-stim-button","256","488775","0.0-2.0-56.7-1.7","63d1b93d9abc8c4b40e2d92f","C3","batch3","","879","tol_toboard","","","","tol_peg_2","879","879","0","[[1,0,0],[3,2],[0]]","8","[[2,3,0],[1,0],[0]]","15","0","","","","","","7","","","","","","","","",""
"","","","","","single-stim-button","257","489528","0.0-2.0-56.8-0.8","63d1b93d9abc8c4b40e2d92f","C3","batch3","","751","tol_tohand","","","","tol_peg_1","751","751","0","[[0,0,0],[3,2],[0]]","9","[[2,3,0],[1,0],[0]]","15","0","","","","","","7","","","","","","","","",""
"","","","","","single-stim-button","258","490207","0.0-2.0-56.8-1.8","63d1b93d9abc8c4b40e2d92f","C3","batch3","","679","tol_toboard","","","","tol_peg_3","679","679","0","[[0,0,0],[3,2],[1]]","9","[[2,3,0],[1,0],[0]]","15","0","","","","","","7","","","","","","","","",""
"","","","","","single-stim-button","259","491359","0.0-2.0-56.9-0.9","63d1b93d9abc8c4b40e2d92f","C3","batch3","","1151","tol_tohand","","","","tol_peg_2","1151","1151","0","[[0,0,0],[3,0],[1]]","10","[[2,3,0],[1,0],[0]]","15","0","","","","","","7","","","","","","","","",""
"","","","","","single-stim-button","260","491783","0.0-2.0-56.9-1.9","63d1b93d9abc8c4b40e2d92f","C3","batch3","","423","tol_toboard","","","","tol_peg_1","423","423","0","[[2,0,0],[3,0],[1]]","10","[[2,3,0],[1,0],[0]]","15","0","","","","","","7","","","","","","","","",""
"","","","","","single-stim-button","261","492231","0.0-2.0-56.10-0.10","63d1b93d9abc8c4b40e2d92f","C3","batch3","","446","tol_tohand","","","","tol_peg_2","446","446","0","[[2,0,0],[0,0],[1]]","11","[[2,3,0],[1,0],[0]]","15","0","","","","","","7","","","","","","","","",""
"","","","","","single-stim-button","262","492672","0.0-2.0-56.10-1.10","63d1b93d9abc8c4b40e2d92f","C3","batch3","","440","tol_toboard","","","","tol_peg_1","440","440","0","[[2,3,0],[0,0],[1]]","11","[[2,3,0],[1,0],[0]]","15","0","","","","","","7","","","","","","","","",""
"","","","","","single-stim-button","263","493143","0.0-2.0-56.11-0.11","63d1b93d9abc8c4b40e2d92f","C3","batch3","","471","tol_tohand","","","","tol_peg_3","471","471","0","[[2,3,0],[0,0],[0]]","12","[[2,3,0],[1,0],[0]]","15","0","","","","","","7","","","","","","","","",""
"","","","","","single-stim-button","264","493583","0.0-2.0-56.11-1.11","63d1b93d9abc8c4b40e2d92f","C3","batch3","","439","tol_toboard","","","","tol_peg_2","439","439","0","[[2,3,0],[1,0],[0]]","12","[[2,3,0],[1,0],[0]]","15","0","","","","","","7","","","","","","","","",""
"","","","","","poldrack-single-stim","265","494586","0.0-2.0-57.0","63d1b93d9abc8c4b40e2d92f","C3","batch3","","-1","tol_feedback","","","true","","1000","1000","500","","","","","","-1","none","true","2584","12693","","","","","","","","","",""
"","","","","","html-button-response","266","495358","0.0-2.0-58.0","63d1b93d9abc8c4b40e2d92f","C3","batch3","","771","tol_trial_num","<div class = centerbox><p class = center-block-text>problem <strong>17</strong> out of 25 problems</p></div>","0","","","","","","","","","","","","","","","","","","","","","","","","",""
"","","","","","single-stim-button","267","499415","0.0-2.0-59.0-0.0","63d1b93d9abc8c4b40e2d92f","C3","batch3","","4056","tol_tohand","","","","tol_peg_2","4056","4056","0","[[1,2,0],[0,0],[0]]","1","[[3,1,0],[2,0],[0]]","16","0","","","","","","5","","","","","","","","",""
"","","","","","single-stim-button","268","501271","0.0-2.0-59.0-1.0","63d1b93d9abc8c4b40e2d92f","C3","batch3","","1854","tol_toboard","","","","tol_peg_3","1854","1854","0","[[1,2,0],[0,0],[3]]","1","[[3,1,0],[2,0],[0]]","16","0","","","","","","5","","","","","","","","",""
"","","","","","single-stim-button","269","502311","0.0-2.0-59.1-0.1","63d1b93d9abc8c4b40e2d92f","C3","batch3","","1040","tol_tohand","","","","tol_peg_1","1040","1040","0","[[1,0,0],[0,0],[3]]","2","[[3,1,0],[2,0],[0]]","16","0","","","","","","5","","","","","","","","",""
"","","","","","single-stim-button","270","502823","0.0-2.0-59.1-1.1","63d1b93d9abc8c4b40e2d92f","C3","batch3","","510","tol_toboard","","","","tol_peg_2","510","510","0","[[1,0,0],[2,0],[3]]","2","[[3,1,0],[2,0],[0]]","16","0","","","","","","5","","","","","","","","",""
"","","","","","single-stim-button","271","503263","0.0-2.0-59.2-0.2","63d1b93d9abc8c4b40e2d92f","C3","batch3","","439","tol_tohand","","","","tol_peg_1","439","439","0","[[0,0,0],[2,0],[3]]","3","[[3,1,0],[2,0],[0]]","16","0","","","","","","5","","","","","","","","",""
"","","","","","single-stim-button","272","503647","0.0-2.0-59.2-1.2","63d1b93d9abc8c4b40e2d92f","C3","batch3","","383","tol_toboard","","","","tol_peg_2","383","383","0","[[0,0,0],[2,1],[3]]","3","[[3,1,0],[2,0],[0]]","16","0","","","","","","5","","","","","","","","",""
"","","","","","single-stim-button","273","504111","0.0-2.0-59.3-0.3","63d1b93d9abc8c4b40e2d92f","C3","batch3","","464","tol_tohand","","","","tol_peg_3","464","464","0","[[0,0,0],[2,1],[0]]","4","[[3,1,0],[2,0],[0]]","16","0","","","","","","5","","","","","","","","",""
"","","","","","single-stim-button","274","504560","0.0-2.0-59.3-1.3","63d1b93d9abc8c4b40e2d92f","C3","batch3","","448","tol_toboard","","","","tol_peg_1","448","448","0","[[3,0,0],[2,1],[0]]","4","[[3,1,0],[2,0],[0]]","16","0","","","","","","5","","","","","","","","",""
"","","","","","single-stim-button","275","505215","0.0-2.0-59.4-0.4","63d1b93d9abc8c4b40e2d92f","C3","batch3","","655","tol_tohand","","","","tol_peg_2","655","655","0","[[3,0,0],[2,0],[0]]","5","[[3,1,0],[2,0],[0]]","16","0","","","","","","5","","","","","","","","",""
"","","","","","single-stim-button","276","505631","0.0-2.0-59.4-1.4","63d1b93d9abc8c4b40e2d92f","C3","batch3","","414","tol_toboard","","","","tol_peg_1","414","414","0","[[3,1,0],[2,0],[0]]","5","[[3,1,0],[2,0],[0]]","16","0","","","","","","5","","","","","","","","",""
"","","","","","poldrack-single-stim","277","506637","0.0-2.0-60.0","63d1b93d9abc8c4b40e2d92f","C3","batch3","","-1","tol_feedback","","","true","","1000","1000","500","","","","","","-1","none","true","4056","6654","","","","","","","","","",""
"","","","","","html-button-response","278","507734","0.0-2.0-61.0","63d1b93d9abc8c4b40e2d92f","C3","batch3","","1094.9000000003725","tol_trial_num","<div class = centerbox><p class = center-block-text>problem <strong>18</strong> out of 25 problems</p></div>","0","","","","","","","","","","","","","","","","","","","","","","","","",""
"","","","","","single-stim-button","279","509351","0.0-2.0-62.0-0.0","63d1b93d9abc8c4b40e2d92f","C3","batch3","","1617","tol_tohand","","","","tol_peg_2","1617","1617","0","[[1,2,0],[0,0],[0]]","1","[[3,0,0],[2,0],[1]]","17","0","","","","","","5","","","","","","","","",""
"","","","","","single-stim-button","280","509974","0.0-2.0-62.0-1.0","63d1b93d9abc8c4b40e2d92f","C3","batch3","","623","tol_toboard","","","","tol_peg_3","623","623","0","[[1,2,0],[0,0],[3]]","1","[[3,0,0],[2,0],[1]]","17","0","","","","","","5","","","","","","","","",""
"","","","","","single-stim-button","281","511055","0.0-2.0-62.1-0.1","63d1b93d9abc8c4b40e2d92f","C3","batch3","","1080","tol_tohand","","","","tol_peg_1","1080","1080","0","[[1,0,0],[0,0],[3]]","2","[[3,0,0],[2,0],[1]]","17","0","","","","","","5","","","","","","","","",""
"","","","","","single-stim-button","282","511415","0.0-2.0-62.1-1.1","63d1b93d9abc8c4b40e2d92f","C3","batch3","","359","tol_toboard","","","","tol_peg_2","359","359","0","[[1,0,0],[2,0],[3]]","2","[[3,0,0],[2,0],[1]]","17","0","","","","","","5","","","","","","","","",""
"","","","","","single-stim-button","283","511847","0.0-2.0-62.2-0.2","63d1b93d9abc8c4b40e2d92f","C3","batch3","","432","tol_tohand","","","","tol_peg_1","432","432","0","[[0,0,0],[2,0],[3]]","3","[[3,0,0],[2,0],[1]]","17","0","","","","","","5","","","","","","","","",""
"","","","","","single-stim-button","284","512199","0.0-2.0-62.2-1.2","63d1b93d9abc8c4b40e2d92f","C3","batch3","","351","tol_toboard","","","","tol_peg_2","351","351","0","[[0,0,0],[2,1],[3]]","3","[[3,0,0],[2,0],[1]]","17","0","","","","","","5","","","","","","","","",""
"","","","","","single-stim-button","285","512655","0.0-2.0-62.3-0.3","63d1b93d9abc8c4b40e2d92f","C3","batch3","","455","tol_tohand","","","","tol_peg_3","455","455","0","[[0,0,0],[2,1],[0]]","4","[[3,0,0],[2,0],[1]]","17","0","","","","","","5","","","","","","","","",""
"","","","","","single-stim-button","286","513119","0.0-2.0-62.3-1.3","63d1b93d9abc8c4b40e2d92f","C3","batch3","","463","tol_toboard","","","","tol_peg_1","463","463","0","[[3,0,0],[2,1],[0]]","4","[[3,0,0],[2,0],[1]]","17","0","","","","","","5","","","","","","","","",""
"","","","","","single-stim-button","287","539439","0.0-2.0-62.4-0.4","63d1b93d9abc8c4b40e2d92f","C3","batch3","","26319","tol_tohand","","","","tol_peg_2","26319","26319","0","[[3,0,0],[2,0],[0]]","5","[[3,0,0],[2,0],[1]]","17","0","","","","","","5","","","","","","","","",""
"","","","","","single-stim-button","288","540047","0.0-2.0-62.4-1.4","63d1b93d9abc8c4b40e2d92f","C3","batch3","","607","tol_toboard","","","","tol_peg_2","607","607","0","[[3,0,0],[2,1],[0]]","5","[[3,0,0],[2,0],[1]]","17","0","","","","","","5","","","","","","","","",""
"","","","","","single-stim-button","289","557247","0.0-2.0-62.5-0.5","63d1b93d9abc8c4b40e2d92f","C3","batch3","","17199","tol_tohand","","","","tol_peg_2","17199","17199","0","[[3,0,0],[2,0],[0]]","6","[[3,0,0],[2,0],[1]]","17","0","","","","","","5","","","","","","","","",""
"","","","","","single-stim-button","290","558727","0.0-2.0-62.5-1.5","63d1b93d9abc8c4b40e2d92f","C3","batch3","","1478","tol_toboard","","","","tol_peg_3","1478","1478","0","[[3,0,0],[2,0],[1]]","6","[[3,0,0],[2,0],[1]]","17","0","","","","","","5","","","","","","","","",""
"","","","","","poldrack-single-stim","291","559729","0.0-2.0-63.0","63d1b93d9abc8c4b40e2d92f","C3","batch3","","-1","tol_feedback","","","true","","1000","1000","500","","","","","","-1","none","true","1617","47102","","","","","","","","","",""
"","","","","","html-button-response","292","561647","0.0-2.0-64.0","63d1b93d9abc8c4b40e2d92f","C3","batch3","","1915.5999999996275","tol_trial_num","<div class = centerbox><p class = center-block-text>problem <strong>19</strong> out of 25 problems</p></div>","0","","","","","","","","","","","","","","","","","","","","","","","","",""
"","","","","","single-stim-button","293","563832","0.0-2.0-65.0-0.0","63d1b93d9abc8c4b40e2d92f","C3","batch3","","2183","tol_tohand","","","","tol_peg_2","2183","2183","0","[[1,2,0],[0,0],[0]]","1","[[0,0,0],[1,2],[3]]","18","0","","","","","","7","","","","","","","","",""
"","","","","","single-stim-button","294","573936","0.0-2.0-65.0-1.0","63d1b93d9abc8c4b40e2d92f","C3","batch3","","10104","tol_toboard","","","","tol_peg_3","10104","10104","0","[[1,2,0],[0,0],[3]]","1","[[0,0,0],[1,2],[3]]","18","0","","","","","","7","","","","","","","","",""
"","","","","","single-stim-button","295","584870","0.0-2.0-65.1-0.1","63d1b93d9abc8c4b40e2d92f","C3","batch3","","10933","tol_tohand","","","","tol_peg_3","10933","10933","0","[[1,2,0],[0,0],[0]]","2","[[0,0,0],[1,2],[3]]","18","0","","","","","","7","","","","","","","","",""
"","","","","","single-stim-button","296","585775","0.0-2.0-65.1-1.1","63d1b93d9abc8c4b40e2d92f","C3","batch3","","904","tol_toboard","","","","tol_peg_1","904","904","0","[[1,2,3],[0,0],[0]]","2","[[0,0,0],[1,2],[3]]","18","0","","","","","","7","","","","","","","","",""
"","","","","","single-stim-button","297","586575","0.0-2.0-65.2-0.2","63d1b93d9abc8c4b40e2d92f","C3","batch3","","798","tol_tohand","","","","tol_peg_1","798","798","0","[[1,2,0],[0,0],[0]]","3","[[0,0,0],[1,2],[3]]","18","0","","","","","","7","","","","","","","","",""
"","","","","","single-stim-button","298","586895","0.0-2.0-65.2-1.2","63d1b93d9abc8c4b40e2d92f","C3","batch3","","320","tol_toboard","","","","tol_peg_2","320","320","0","[[1,2,0],[3,0],[0]]","3","[[0,0,0],[1,2],[3]]","18","0","","","","","","7","","","","","","","","",""
"","","","","","single-stim-button","299","587264","0.0-2.0-65.3-0.3","63d1b93d9abc8c4b40e2d92f","C3","batch3","","368","tol_tohand","","","","tol_peg_1","368","368","0","[[1,0,0],[3,0],[0]]","4","[[0,0,0],[1,2],[3]]","18","0","","","","","","7","","","","","","","","",""
"","","","","","single-stim-button","300","588263","0.0-2.0-65.3-1.3","63d1b93d9abc8c4b40e2d92f","C3","batch3","","998","tol_toboard","","","","tol_peg_3","998","998","0","[[1,0,0],[3,0],[2]]","4","[[0,0,0],[1,2],[3]]","18","0","","","","","","7","","","","","","","","",""
"","","","","","single-stim-button","301","588856","0.0-2.0-65.4-0.4","63d1b93d9abc8c4b40e2d92f","C3","batch3","","591","tol_tohand","","","","tol_peg_2","591","591","0","[[1,0,0],[0,0],[2]]","5","[[0,0,0],[1,2],[3]]","18","0","","","","","","7","","","","","","","","",""
"","","","","","single-stim-button","302","592312","0.0-2.0-65.4-1.4","63d1b93d9abc8c4b40e2d92f","C3","batch3","","3455","tol_toboard","","","","tol_peg_1","3455","3455","0","[[1,3,0],[0,0],[2]]","5","[[0,0,0],[1,2],[3]]","18","0","","","","","","7","","","","","","","","",""
"","","","","","single-stim-button","303","594064","0.0-2.0-65.5-0.5","63d1b93d9abc8c4b40e2d92f","C3","batch3","","1752","tol_tohand","","","","tol_peg_1","1752","1752","0","[[1,0,0],[0,0],[2]]","6","[[0,0,0],[1,2],[3]]","18","0","","","","","","7","","","","","","","","",""
"","","","","","single-stim-button","304","594552","0.0-2.0-65.5-1.5","63d1b93d9abc8c4b40e2d92f","C3","batch3","","486","tol_toboard","","","","tol_peg_2","486","486","0","[[1,0,0],[3,0],[2]]","6","[[0,0,0],[1,2],[3]]","18","0","","","","","","7","","","","","","","","",""
"","","","","","single-stim-button","305","595159","0.0-2.0-65.6-0.6","63d1b93d9abc8c4b40e2d92f","C3","batch3","","607","tol_tohand","","","","tol_peg_1","607","607","0","[[0,0,0],[3,0],[2]]","7","[[0,0,0],[1,2],[3]]","18","0","","","","","","7","","","","","","","","",""
"","","","","","single-stim-button","306","595504","0.0-2.0-65.6-1.6","63d1b93d9abc8c4b40e2d92f","C3","batch3","","345","tol_toboard","","","","tol_peg_2","345","345","0","[[0,0,0],[3,1],[2]]","7","[[0,0,0],[1,2],[3]]","18","0","","","","","","7","","","","","","","","",""
"","","","","","single-stim-button","307","596256","0.0-2.0-65.7-0.7","63d1b93d9abc8c4b40e2d92f","C3","batch3","","750","tol_tohand","","","","tol_peg_3","750","750","0","[[0,0,0],[3,1],[0]]","8","[[0,0,0],[1,2],[3]]","18","0","","","","","","7","","","","","","","","",""
"","","","","","single-stim-button","308","597080","0.0-2.0-65.7-1.7","63d1b93d9abc8c4b40e2d92f","C3","batch3","","823","tol_toboard","","","","tol_peg_1","823","823","0","[[2,0,0],[3,1],[0]]","8","[[0,0,0],[1,2],[3]]","18","0","","","","","","7","","","","","","","","",""
"","","","","","single-stim-button","309","597520","0.0-2.0-65.8-0.8","63d1b93d9abc8c4b40e2d92f","C3","batch3","","439","tol_tohand","","","","tol_peg_2","439","439","0","[[2,0,0],[3,0],[0]]","9","[[0,0,0],[1,2],[3]]","18","0","","","","","","7","","","","","","","","",""
"","","","","","single-stim-button","310","598670","0.0-2.0-65.8-1.8","63d1b93d9abc8c4b40e2d92f","C3","batch3","","1150","tol_toboard","","","","tol_peg_1","1150","1150","0","[[2,1,0],[3,0],[0]]","9","[[0,0,0],[1,2],[3]]","18","0","","","","","","7","","","","","","","","",""
"","","","","","single-stim-button","311","599193","0.0-2.0-65.9-0.9","63d1b93d9abc8c4b40e2d92f","C3","batch3","","521","tol_tohand","","","","tol_peg_2","521","521","0","[[2,1,0],[0,0],[0]]","10","[[0,0,0],[1,2],[3]]","18","0","","","","","","7","","","","","","","","",""
"","","","","","single-stim-button","312","600031","0.0-2.0-65.9-1.9","63d1b93d9abc8c4b40e2d92f","C3","batch3","","838","tol_toboard","","","","tol_peg_3","838","838","0","[[2,1,0],[0,0],[3]]","10","[[0,0,0],[1,2],[3]]","18","0","","","","","","7","","","","","","","","",""
"","","","","","single-stim-button","313","600728","0.0-2.0-65.10-0.10","63d1b93d9abc8c4b40e2d92f","C3","batch3","","696","tol_tohand","","","","tol_peg_1","696","696","0","[[2,0,0],[0,0],[3]]","11","[[0,0,0],[1,2],[3]]","18","0","","","","","","7","","","","","","","","",""
"","","","","","single-stim-button","314","601160","0.0-2.0-65.10-1.10","63d1b93d9abc8c4b40e2d92f","C3","batch3","","432","tol_toboard","","","","tol_peg_2","432","432","0","[[2,0,0],[1,0],[3]]","11","[[0,0,0],[1,2],[3]]","18","0","","","","","","7","","","","","","","","",""
"","","","","","single-stim-button","315","601624","0.0-2.0-65.11-0.11","63d1b93d9abc8c4b40e2d92f","C3","batch3","","462","tol_tohand","","","","tol_peg_1","462","462","0","[[0,0,0],[1,0],[3]]","12","[[0,0,0],[1,2],[3]]","18","0","","","","","","7","","","","","","","","",""
"","","","","","single-stim-button","316","602032","0.0-2.0-65.11-1.11","63d1b93d9abc8c4b40e2d92f","C3","batch3","","407","tol_toboard","","","","tol_peg_2","407","407","0","[[0,0,0],[1,2],[3]]","12","[[0,0,0],[1,2],[3]]","18","0","","","","","","7","","","","","","","","",""
"","","","","","poldrack-single-stim","317","603035","0.0-2.0-66.0","63d1b93d9abc8c4b40e2d92f","C3","batch3","","-1","tol_feedback","","","true","","1000","1000","500","","","","","","-1","none","true","2183","20100","","","","","","","","","",""
"","","","","","html-button-response","318","603831","0.0-2.0-67.0","63d1b93d9abc8c4b40e2d92f","C3","batch3","","794.8000000007451","tol_trial_num","<div class = centerbox><p class = center-block-text>problem <strong>20</strong> out of 25 problems</p></div>","0","","","","","","","","","","","","","","","","","","","","","","","","",""
"","","","","","single-stim-button","319","604999","0.0-2.0-68.0-0.0","63d1b93d9abc8c4b40e2d92f","C3","batch3","","1166","tol_tohand","","","","tol_peg_2","1166","1166","0","[[1,2,0],[0,0],[0]]","1","[[2,1,0],[0,0],[3]]","19","0","","","","","","5","","","","","","","","",""
"","","","","","single-stim-button","320","605375","0.0-2.0-68.0-1.0","63d1b93d9abc8c4b40e2d92f","C3","batch3","","376","tol_toboard","","","","tol_peg_3","376","376","0","[[1,2,0],[0,0],[3]]","1","[[2,1,0],[0,0],[3]]","19","0","","","","","","5","","","","","","","","",""
"","","","","","single-stim-button","321","606511","0.0-2.0-68.1-0.1","63d1b93d9abc8c4b40e2d92f","C3","batch3","","1135","tol_tohand","","","","tol_peg_1","1135","1135","0","[[1,0,0],[0,0],[3]]","2","[[2,1,0],[0,0],[3]]","19","0","","","","","","5","","","","","","","","",""
"","","","","","single-stim-button","322","606991","0.0-2.0-68.1-1.1","63d1b93d9abc8c4b40e2d92f","C3","batch3","","478","tol_toboard","","","","tol_peg_2","478","478","0","[[1,0,0],[2,0],[3]]","2","[[2,1,0],[0,0],[3]]","19","0","","","","","","5","","","","","","","","",""
"","","","","","single-stim-button","323","609497","0.0-2.0-68.2-0.2","63d1b93d9abc8c4b40e2d92f","C3","batch3","","2505","tol_tohand","","","","tol_peg_3","2505","2505","0","[[1,0,0],[2,0],[0]]","3","[[2,1,0],[0,0],[3]]","19","0","","","","","","5","","","","","","","","",""
"","","","","","single-stim-button","324","609880","0.0-2.0-68.2-1.2","63d1b93d9abc8c4b40e2d92f","C3","batch3","","382","tol_toboard","","","","tol_peg_2","382","382","0","[[1,0,0],[2,3],[0]]","3","[[2,1,0],[0,0],[3]]","19","0","","","","","","5","","","","","","","","",""
"","","","","","single-stim-button","325","610568","0.0-2.0-68.3-0.3","63d1b93d9abc8c4b40e2d92f","C3","batch3","","688","tol_tohand","","","","tol_peg_1","688","688","0","[[0,0,0],[2,3],[0]]","4","[[2,1,0],[0,0],[3]]","19","0","","","","","","5","","","","","","","","",""
"","","","","","single-stim-button","326","610944","0.0-2.0-68.3-1.3","63d1b93d9abc8c4b40e2d92f","C3","batch3","","374","tol_toboard","","","","tol_peg_3","374","374","0","[[0,0,0],[2,3],[1]]","4","[[2,1,0],[0,0],[3]]","19","0","","","","","","5","","","","","","","","",""
"","","","","","single-stim-button","327","612968","0.0-2.0-68.4-0.4","63d1b93d9abc8c4b40e2d92f","C3","batch3","","2024","tol_tohand","","","","tol_peg_2","2024","2024","0","[[0,0,0],[2,0],[1]]","5","[[2,1,0],[0,0],[3]]","19","0","","","","","","5","","","","","","","","",""
"","","","","","single-stim-button","328","613295","0.0-2.0-68.4-1.4","63d1b93d9abc8c4b40e2d92f","C3","batch3","","326","tol_toboard","","","","tol_peg_1","326","326","0","[[3,0,0],[2,0],[1]]","5","[[2,1,0],[0,0],[3]]","19","0","","","","","","5","","","","","","","","",""
"","","","","","single-stim-button","329","613760","0.0-2.0-68.5-0.5","63d1b93d9abc8c4b40e2d92f","C3","batch3","","463","tol_tohand","","","","tol_peg_2","463","463","0","[[3,0,0],[0,0],[1]]","6","[[2,1,0],[0,0],[3]]","19","0","","","","","","5","","","","","","","","",""
"","","","","","single-stim-button","330","614119","0.0-2.0-68.5-1.5","63d1b93d9abc8c4b40e2d92f","C3","batch3","","359","tol_toboard","","","","tol_peg_1","359","359","0","[[3,2,0],[0,0],[1]]","6","[[2,1,0],[0,0],[3]]","19","0","","","","","","5","","","","","","","","",""
"","","","","","single-stim-button","331","614376","0.0-2.0-68.6-0.6","63d1b93d9abc8c4b40e2d92f","C3","batch3","","255","tol_tohand","","","","tol_peg_1","255","255","0","[[3,0,0],[0,0],[1]]","7","[[2,1,0],[0,0],[3]]","19","0","","","","","","5","","","","","","","","",""
"","","","","","single-stim-button","332","615111","0.0-2.0-68.6-1.6","63d1b93d9abc8c4b40e2d92f","C3","batch3","","735","tol_toboard","","","","tol_peg_1","735","735","0","[[3,2,0],[0,0],[1]]","7","[[2,1,0],[0,0],[3]]","19","0","","","","","","5","","","","","","","","",""
"","","","","","single-stim-button","333","615639","0.0-2.0-68.7-0.7","63d1b93d9abc8c4b40e2d92f","C3","batch3","","527","tol_tohand","","","","tol_peg_3","527","527","0","[[3,2,0],[0,0],[0]]","8","[[2,1,0],[0,0],[3]]","19","0","","","","","","5","","","","","","","","",""
"","","","","","single-stim-button","334","616192","0.0-2.0-68.7-1.7","63d1b93d9abc8c4b40e2d92f","C3","batch3","","551","tol_toboard","","","","tol_peg_2","551","551","0","[[3,2,0],[1,0],[0]]","8","[[2,1,0],[0,0],[3]]","19","0","","","","","","5","","","","","","","","",""
"","","","","","single-stim-button","335","616744","0.0-2.0-68.8-0.8","63d1b93d9abc8c4b40e2d92f","C3","batch3","","551","tol_tohand","","","","tol_peg_1","551","551","0","[[3,0,0],[1,0],[0]]","9","[[2,1,0],[0,0],[3]]","19","0","","","","","","5","","","","","","","","",""
"","","","","","single-stim-button","336","617159","0.0-2.0-68.8-1.8","63d1b93d9abc8c4b40e2d92f","C3","batch3","","415","tol_toboard","","","","tol_peg_3","415","415","0","[[3,0,0],[1,0],[2]]","9","[[2,1,0],[0,0],[3]]","19","0","","","","","","5","","","","","","","","",""
"","","","","","single-stim-button","337","617847","0.0-2.0-68.9-0.9","63d1b93d9abc8c4b40e2d92f","C3","batch3","","687","tol_tohand","","","","tol_peg_1","687","687","0","[[0,0,0],[1,0],[2]]","10","[[2,1,0],[0,0],[3]]","19","0","","","","","","5","","","","","","","","",""
"","","","","","single-stim-button","338","618671","0.0-2.0-68.9-1.9","63d1b93d9abc8c4b40e2d92f","C3","batch3","","823","tol_toboard","","","","tol_peg_2","823","823","0","[[0,0,0],[1,3],[2]]","10","[[2,1,0],[0,0],[3]]","19","0","","","","","","5","","","","","","","","",""
"","","","","","single-stim-button","339","619720","0.0-2.0-68.10-0.10","63d1b93d9abc8c4b40e2d92f","C3","batch3","","1047","tol_tohand","","","","tol_peg_3","1047","1047","0","[[0,0,0],[1,3],[0]]","11","[[2,1,0],[0,0],[3]]","19","0","","","","","","5","","","","","","","","",""
"","","","","","single-stim-button","340","620566","0.0-2.0-68.10-1.10","63d1b93d9abc8c4b40e2d92f","C3","batch3","","846","tol_toboard","","","","tol_peg_1","846","846","0","[[2,0,0],[1,3],[0]]","11","[[2,1,0],[0,0],[3]]","19","0","","","","","","5","","","","","","","","",""
"","","","","","single-stim-button","341","621040","0.0-2.0-68.11-0.11","63d1b93d9abc8c4b40e2d92f","C3","batch3","","473","tol_tohand","","","","tol_peg_2","473","473","0","[[2,0,0],[1,0],[0]]","12","[[2,1,0],[0,0],[3]]","19","0","","","","","","5","","","","","","","","",""
"","","","","","single-stim-button","342","621430","0.0-2.0-68.11-1.11","63d1b93d9abc8c4b40e2d92f","C3","batch3","","389","tol_toboard","","","","tol_peg_3","389","389","0","[[2,0,0],[1,0],[3]]","12","[[2,1,0],[0,0],[3]]","19","0","","","","","","5","","","","","","","","",""
"","","","","","single-stim-button","343","622030","0.0-2.0-68.12-0.12","63d1b93d9abc8c4b40e2d92f","C3","batch3","","598","tol_tohand","","","","tol_peg_2","598","598","0","[[2,0,0],[0,0],[3]]","13","[[2,1,0],[0,0],[3]]","19","0","","","","","","5","","","","","","","","",""
"","","","","","single-stim-button","344","622551","0.0-2.0-68.12-1.12","63d1b93d9abc8c4b40e2d92f","C3","batch3","","520","tol_toboard","","","","tol_peg_1","520","520","0","[[2,1,0],[0,0],[3]]","13","[[2,1,0],[0,0],[3]]","19","0","","","","","","5","","","","","","","","",""
"","","","","","poldrack-single-stim","345","623553","0.0-2.0-69.0","63d1b93d9abc8c4b40e2d92f","C3","batch3","","-1","tol_feedback","","","true","","1000","1000","500","","","","","","-1","none","true","1166","12119","","","","","","","","","",""
"","","","","","html-button-response","346","625014","0.0-2.0-70.0","63d1b93d9abc8c4b40e2d92f","C3","batch3","","1459.4000000003725","tol_trial_num","<div class = centerbox><p class = center-block-text>problem <strong>21</strong> out of 25 problems</p></div>","0","","","","","","","","","","","","","","","","","","","","","","","","",""
"","","","","","single-stim-button","347","664062","0.0-2.0-71.0-0.0","63d1b93d9abc8c4b40e2d92f","C3","batch3","","39048","tol_tohand","","","","tol_peg_1","39048","39048","0","[[1,0,0],[3,0],[0]]","1","[[3,2,0],[0,0],[1]]","20","0","","","","","","6","","","","","","","","",""
"","","","","","single-stim-button","348","664726","0.0-2.0-71.0-1.0","63d1b93d9abc8c4b40e2d92f","C3","batch3","","663","tol_toboard","","","","tol_peg_2","663","663","0","[[1,0,0],[3,2],[0]]","1","[[3,2,0],[0,0],[1]]","20","0","","","","","","6","","","","","","","","",""
"","","","","","single-stim-button","349","665399","0.0-2.0-71.1-0.1","63d1b93d9abc8c4b40e2d92f","C3","batch3","","672","tol_tohand","","","","tol_peg_1","672","672","0","[[0,0,0],[3,2],[0]]","2","[[3,2,0],[0,0],[1]]","20","0","","","","","","6","","","","","","","","",""
"","","","","","single-stim-button","350","668817","0.0-2.0-71.1-1.1","63d1b93d9abc8c4b40e2d92f","C3","batch3","","3418","tol_toboard","","","","tol_peg_1","3418","3418","0","[[1,0,0],[3,2],[0]]","2","[[3,2,0],[0,0],[1]]","20","0","","","","","","6","","","","","","","","",""
"","","","","","single-stim-button","351","669686","0.0-2.0-71.2-0.2","63d1b93d9abc8c4b40e2d92f","C3","batch3","","868","tol_tohand","","","","tol_peg_2","868","868","0","[[1,0,0],[3,0],[0]]","3","[[3,2,0],[0,0],[1]]","20","0","","","","","","6","","","","","","","","",""
"","","","","","single-stim-button","352","670079","0.0-2.0-71.2-1.2","63d1b93d9abc8c4b40e2d92f","C3","batch3","","392","tol_toboard","","","","tol_peg_3","392","392","0","[[1,0,0],[3,0],[2]]","3","[[3,2,0],[0,0],[1]]","20","0","","","","","","6","","","","","","","","",""
"","","","","","single-stim-button","353","671983","0.0-2.0-71.3-0.3","63d1b93d9abc8c4b40e2d92f","C3","batch3","","1902","tol_tohand","","","","tol_peg_2","1902","1902","0","[[1,0,0],[0,0],[2]]","4","[[3,2,0],[0,0],[1]]","20","0","","","","","","6","","","","","","","","",""
"","","","","","single-stim-button","354","672832","0.0-2.0-71.3-1.3","63d1b93d9abc8c4b40e2d92f","C3","batch3","","847","tol_toboard","","","","tol_peg_1","847","847","0","[[1,3,0],[0,0],[2]]","4","[[3,2,0],[0,0],[1]]","20","0","","","","","","6","","","","","","","","",""
"","","","","","single-stim-button","355","673494","0.0-2.0-71.4-0.4","63d1b93d9abc8c4b40e2d92f","C3","batch3","","662","tol_tohand","","","","tol_peg_3","662","662","0","[[1,3,0],[0,0],[0]]","5","[[3,2,0],[0,0],[1]]","20","0","","","","","","6","","","","","","","","",""
