"success","timeout","failed_images","failed_audio","failed_video","trial_type","trial_index","time_elapsed","internal_node_id","subject_id","study_id","session_id","view_history","rt","stimulus","response","task","correct","answer","item","fiar_detect_rt","fiar_detect_correct","total_correct_fiar_detect","post_trial_gap","choices","spm_correct","spm_rt","mouse_click","stim_duration","block_duration","timing_post_trial","current_position","tol_num_moves_made","tol_target","tol_problem_id","tol_rt","key_press","possible_responses","tol_correct","preplanning","tol_rt_per_trial","tol_min_moves"
"true","false","[]","[]","[]","preload","0","1691","0.0-0.0","63d1c1b521f75a8a9f14160f","D2","batch4","","","","","","","","","","","","","","","","","","","","","","","","","","","","","",""
"true","","","","","fullscreen","1","11315","0.0-1.0-0.0","63d1c1b521f75a8a9f14160f","D2","batch4","","","","","","","","","","","","","","","","","","","","","","","","","","","","","",""
"true","","","","","fullscreen","2","16269","0.0-2.0-0.0","63d1c1b521f75a8a9f14160f","D2","batch4","","","","","","","","","","","","","","","","","","","","","","","","","","","","","",""
"","","","","","instructions","3","30418","0.0-2.0-1.0-0.0","63d1c1b521f75a8a9f14160f","D2","batch4","[{""page_index"":0,""viewing_time"":9978.5},{""page_index"":1,""viewing_time"":4170.200000047684}]","14148.900000095367","","","","","","","","","","","","","","","","","","","","","","","","","","","",""
"","","","","","html-button-response","4","32015","0.0-2.0-1.0-1.0-0.0","63d1c1b521f75a8a9f14160f","D2","batch4","","1596","<p class=block-text> Let's answer a few questions <br>","0","pattern_enter_quiz","","","","","","","","","","","","","","","","","","","","","","","","",""
"","","","","","html-button-response","5","34316","0.0-2.0-1.0-1.0-1.0","63d1c1b521f75a8a9f14160f","D2","batch4","","2299.4000000953674","<p class = block-text>True or False: You will have as much time as you want to make each choice. <br></p>","1","pattern_quiz","true","","","","","","","","","","","","","","","","","","","","","","","",""
"","","","","","html-button-response","6","35916","0.0-2.0-1.0-1.0-2.0","63d1c1b521f75a8a9f14160f","D2","batch4","","1598.0999999046326","<p class = block-text>Correct! You should make your choice <strong> as fast as you can</strong>.</p>","0","pattern_quiz_feedback","","","","","","","","","","","","","","","","","","","","","","","","",""
"","","","","","html-button-response","7","40083","0.0-2.0-1.0-1.0-3.0","63d1c1b521f75a8a9f14160f","D2","batch4","","4166.799999952316","<p class = block-text>True or False: You will look for 4 pieces in black or white color connected in a row either horizontally, vertically or diagonally. <br></p>","0","pattern_quiz","true","","","","","","","","","","","","","","","","","","","","","","","",""
"","","","","","html-button-response","8","41367","0.0-2.0-1.0-1.0-4.0","63d1c1b521f75a8a9f14160f","D2","batch4","","1282.5","<p class = block-text>Correct! </p>","0","pattern_quiz_feedback","","","","","","","","","","","","","","","","","","","","","","","","",""
"","","","","","html-button-response","9","44134","0.0-2.0-2.0","63d1c1b521f75a8a9f14160f","D2","batch4","","2765.600000143051","<p class=block-text> Now that you've understood the game, let's do a few practice trials before we start!<br> <br>","0","pattern_enter_practice","","","","","","","","","","","","","","","","","","","","","","","","",""
"","","","","","image-keyboard-response","10","46273","0.0-2.0-3.0-0.0","63d1c1b521f75a8a9f14160f","D2","batch4","","2131.100000143051","stim/prac_yes_18_hor_w1.png","f","pattern_practice","true","f","","","","","","","","","","","","","","","","","","","","","","",""
"","","","","","html-keyboard-response","11","47282","0.0-2.0-3.0-1.0","63d1c1b521f75a8a9f14160f","D2","batch4","","null","<p style=""font-size:30px;color:green;"">Correct!</p>","null","pattern_feedback","","","","","","","","","","","","","","","","","","","","","","","","",""
"","","","","","image-keyboard-response","12","50121","0.0-2.0-3.0-0.1","63d1c1b521f75a8a9f14160f","D2","batch4","","2837.7000000476837","stim/prac_no_18_1.png","j","pattern_practice","true","j","","","","","","","","","","","","","","","","","","","","","","",""
"","","","","","html-keyboard-response","13","51130","0.0-2.0-3.0-1.1","63d1c1b521f75a8a9f14160f","D2","batch4","","null","<p style=""font-size:30px;color:green;"">Correct!</p>","null","pattern_feedback","","","","","","","","","","","","","","","","","","","","","","","","",""
"","","","","","image-keyboard-response","14","52855","0.0-2.0-3.0-0.2","63d1c1b521f75a8a9f14160f","D2","batch4","","1723.9000000953674","stim/prac_no_16_1.png","j","pattern_practice","true","j","","","","","","","","","","","","","","","","","","","","","","",""
"","","","","","html-keyboard-response","15","53866","0.0-2.0-3.0-1.2","63d1c1b521f75a8a9f14160f","D2","batch4","","null","<p style=""font-size:30px;color:green;"">Correct!</p>","null","pattern_feedback","","","","","","","","","","","","","","","","","","","","","","","","",""
"","","","","","image-keyboard-response","16","54592","0.0-2.0-3.0-0.3","63d1c1b521f75a8a9f14160f","D2","batch4","","725.7999999523163","stim/prac_yes_16_ver_w1.png","f","pattern_practice","true","f","","","","","","","","","","","","","","","","","","","","","","",""
"","","","","","html-keyboard-response","17","55602","0.0-2.0-3.0-1.3","63d1c1b521f75a8a9f14160f","D2","batch4","","null","<p style=""font-size:30px;color:green;"">Correct!</p>","null","pattern_feedback","","","","","","","","","","","","","","","","","","","","","","","","",""
"","","","","","image-keyboard-response","18","57735","0.0-2.0-3.0-0.4","63d1c1b521f75a8a9f14160f","D2","batch4","","2131.300000190735","stim/prac_yes_20_dia_b1.png","j","pattern_practice","false","f","","","","","","","","","","","","","","","","","","","","","","",""
"","","","","","html-keyboard-response","19","58745","0.0-2.0-3.0-1.4","63d1c1b521f75a8a9f14160f","D2","batch4","","null","<p style=""font-size:30px;color:red;"">Wrong.</p>","null","pattern_feedback","","","","","","","","","","","","","","","","","","","","","","","","",""
"","","","","","html-button-response","20","66159","0.0-2.0-4.0","63d1c1b521f75a8a9f14160f","D2","batch4","","7413.399999856949","<p class=block-text> Good job! You are done with practice trials!<br>
        You responded correctly on 80% of the trials.<br>
        Press the button below to start official trials. Now you won't see any feedback about your response</p>","0","pattern_enter_official_trials","","","","","","","","","","","","","","","","","","","","","","","","",""
"","","","","","html-keyboard-response","21","66963","0.0-2.0-5.0-0.0","63d1c1b521f75a8a9f14160f","D2","batch4","","null","<p class=block-text>Trial 1 out of 78</p>","null","pattern_show_trial_num","","","","","","","","","","","","","","","","","","","","","","","","",""
"","","","","","image-keyboard-response","22","68495","0.0-2.0-5.0-1.0","63d1c1b521f75a8a9f14160f","D2","batch4","","1530.4000000953674","stim/yes_30_ver_b1_b.png","f","pattern_response","true","f","pattern_54","1530.4000000953674","true","1","","","","","","","","","","","","","","","","","","",""
"","","","","","html-keyboard-response","23","69809","0.0-2.0-5.0-0.1","63d1c1b521f75a8a9f14160f","D2","batch4","","null","<p class=block-text>Trial 2 out of 78</p>","null","pattern_show_trial_num","","","","","","","","","","","","","","","","","","","","","","","","",""
"","","","","","image-keyboard-response","24","72983","0.0-2.0-5.0-1.1","63d1c1b521f75a8a9f14160f","D2","batch4","","3173.100000143051","stim/yes_63_dia_b1.png","j","pattern_response","false","f","pattern_78","3173.100000143051","false","1","","","","","","","","","","","","","","","","","","",""
"","","","","","html-keyboard-response","25","74298","0.0-2.0-5.0-0.2","63d1c1b521f75a8a9f14160f","D2","batch4","","null","<p class=block-text>Trial 3 out of 78</p>","null","pattern_show_trial_num","","","","","","","","","","","","","","","","","","","","","","","","",""
"","","","","","image-keyboard-response","26","76576","0.0-2.0-5.0-1.2","63d1c1b521f75a8a9f14160f","D2","batch4","","2275.7999999523163","stim/no_36_1_b.png","j","pattern_response","true","j","pattern_17","2275.7999999523163","true","2","","","","","","","","","","","","","","","","","","",""
"","","","","","html-keyboard-response","27","77890","0.0-2.0-5.0-0.3","63d1c1b521f75a8a9f14160f","D2","batch4","","null","<p class=block-text>Trial 4 out of 78</p>","null","pattern_show_trial_num","","","","","","","","","","","","","","","","","","","","","","","","",""
"","","","","","image-keyboard-response","28","78886","0.0-2.0-5.0-1.3","63d1c1b521f75a8a9f14160f","D2","batch4","","994.5999999046326","stim/yes_46_ver_b1_b.png","f","pattern_response","true","f","pattern_68","994.5999999046326","true","3","","","","","","","","","","","","","","","","","","",""
"","","","","","html-keyboard-response","29","80201","0.0-2.0-5.0-0.4","63d1c1b521f75a8a9f14160f","D2","batch4","","null","<p class=block-text>Trial 5 out of 78</p>","null","pattern_show_trial_num","","","","","","","","","","","","","","","","","","","","","","","","",""
"","","","","","image-keyboard-response","30","83806","0.0-2.0-5.0-1.4","63d1c1b521f75a8a9f14160f","D2","batch4","","3603.7999999523163","stim/no_45_1_w.png","j","pattern_response","true","j","pattern_25","3603.7999999523163","true","4","","","","","","","","","","","","","","","","","","",""
"","","","","","html-keyboard-response","31","85122","0.0-2.0-5.0-0.5","63d1c1b521f75a8a9f14160f","D2","batch4","","null","<p class=block-text>Trial 6 out of 78</p>","null","pattern_show_trial_num","","","","","","","","","","","","","","","","","","","","","","","","",""
"","","","","","image-keyboard-response","32","87478","0.0-2.0-5.0-1.5","63d1c1b521f75a8a9f14160f","D2","batch4","","2354.800000190735","stim/no_37_2_w.png","j","pattern_response","true","j","pattern_19","2354.800000190735","true","5","","","","","","","","","","","","","","","","","","",""
"","","","","","html-keyboard-response","33","88792","0.0-2.0-5.0-0.6","63d1c1b521f75a8a9f14160f","D2","batch4","","null","<p class=block-text>Trial 7 out of 78</p>","null","pattern_show_trial_num","","","","","","","","","","","","","","","","","","","","","","","","",""
"","","","","","image-keyboard-response","34","90318","0.0-2.0-5.0-1.6","63d1c1b521f75a8a9f14160f","D2","batch4","","1524","stim/no_30_1_b.png","j","pattern_response","true","j","pattern_13","1524","true","6","","","","","","","","","","","","","","","","","","",""
"","","","","","html-keyboard-response","35","91633","0.0-2.0-5.0-0.7","63d1c1b521f75a8a9f14160f","D2","batch4","","null","<p class=block-text>Trial 8 out of 78</p>","null","pattern_show_trial_num","","","","","","","","","","","","","","","","","","","","","","","","",""
"","","","","","image-keyboard-response","36","92926","0.0-2.0-5.0-1.7","63d1c1b521f75a8a9f14160f","D2","batch4","","1290.9000000953674","stim/yes_17_ver_b1_b.png","f","pattern_response","true","f","pattern_46","1290.9000000953674","true","7","","","","","","","","","","","","","","","","","","",""
"","","","","","html-keyboard-response","37","94241","0.0-2.0-5.0-0.8","63d1c1b521f75a8a9f14160f","D2","batch4","","null","<p class=block-text>Trial 9 out of 78</p>","null","pattern_show_trial_num","","","","","","","","","","","","","","","","","","","","","","","","",""
"","","","","","image-keyboard-response","38","95780","0.0-2.0-5.0-1.8","63d1c1b521f75a8a9f14160f","D2","batch4","","1537.8000001907349","stim/no_22_1_b.png","j","pattern_response","true","j","pattern_07","1537.8000001907349","true","8","","","","","","","","","","","","","","","","","","",""
"","","","","","html-keyboard-response","39","97096","0.0-2.0-5.0-0.9","63d1c1b521f75a8a9f14160f","D2","batch4","","null","<p class=block-text>Trial 10 out of 78</p>","null","pattern_show_trial_num","","","","","","","","","","","","","","","","","","","","","","","","",""
"","","","","","image-keyboard-response","40","101821","0.0-2.0-5.0-1.9","63d1c1b521f75a8a9f14160f","D2","batch4","","4723.599999904633","stim/yes_44_ver_w1_w.png","j","pattern_response","false","f","pattern_66","4723.599999904633","false","8","","","","","","","","","","","","","","","","","","",""
"","","","","","html-keyboard-response","41","103135","0.0-2.0-5.0-0.10","63d1c1b521f75a8a9f14160f","D2","batch4","","null","<p class=block-text>Trial 11 out of 78</p>","null","pattern_show_trial_num","","","","","","","","","","","","","","","","","","","","","","","","",""
"","","","","","image-keyboard-response","42","105854","0.0-2.0-5.0-1.10","63d1c1b521f75a8a9f14160f","D2","batch4","","2716.9000000953674","stim/no_28_2.png","j","pattern_response","true","j","pattern_11","2716.9000000953674","true","9","","","","","","","","","","","","","","","","","","",""
"","","","","","html-keyboard-response","43","107169","0.0-2.0-5.0-0.11","63d1c1b521f75a8a9f14160f","D2","batch4","","null","<p class=block-text>Trial 12 out of 78</p>","null","pattern_show_trial_num","","","","","","","","","","","","","","","","","","","","","","","","",""
"","","","","","image-keyboard-response","44","111702","0.0-2.0-5.0-1.11","63d1c1b521f75a8a9f14160f","D2","batch4","","4531.899999856949","stim/no_53_1_b.png","j","pattern_response","true","j","pattern_33","4531.899999856949","true","10","","","","","","","","","","","","","","","","","","",""
"","","","","","html-keyboard-response","45","113015","0.0-2.0-5.0-0.12","63d1c1b521f75a8a9f14160f","D2","batch4","","null","<p class=block-text>Trial 13 out of 78</p>","null","pattern_show_trial_num","","","","","","","","","","","","","","","","","","","","","","","","",""
"","","","","","image-keyboard-response","46","115686","0.0-2.0-5.0-1.12","63d1c1b521f75a8a9f14160f","D2","batch4","","2669.9000000953674","stim/no_47_1_b.png","j","pattern_response","true","j","pattern_27","2669.9000000953674","true","11","","","","","","","","","","","","","","","","","","",""
"","","","","","html-keyboard-response","47","116999","0.0-2.0-5.0-0.13","63d1c1b521f75a8a9f14160f","D2","batch4","","null","<p class=block-text>Trial 14 out of 78</p>","null","pattern_show_trial_num","","","","","","","","","","","","","","","","","","","","","","","","",""
"","","","","","image-keyboard-response","48","122180","0.0-2.0-5.0-1.13","63d1c1b521f75a8a9f14160f","D2","batch4","","5179.799999952316","stim/no_67_1.png","j","pattern_response","true","j","pattern_39","5179.799999952316","true","12","","","","","","","","","","","","","","","","","","",""
"","","","","","html-keyboard-response","49","123495","0.0-2.0-5.0-0.14","63d1c1b521f75a8a9f14160f","D2","batch4","","null","<p class=block-text>Trial 15 out of 78</p>","null","pattern_show_trial_num","","","","","","","","","","","","","","","","","","","","","","","","",""
"","","","","","image-keyboard-response","50","126997","0.0-2.0-5.0-1.14","63d1c1b521f75a8a9f14160f","D2","batch4","","3501.699999809265","stim/no_49_2_b.png","j","pattern_response","true","j","pattern_29","3501.699999809265","true","13","","","","","","","","","","","","","","","","","","",""
"","","","","","html-keyboard-response","51","128312","0.0-2.0-5.0-0.15","63d1c1b521f75a8a9f14160f","D2","batch4","","null","<p class=block-text>Trial 16 out of 78</p>","null","pattern_show_trial_num","","","","","","","","","","","","","","","","","","","","","","","","",""
"","","","","","image-keyboard-response","52","132509","0.0-2.0-5.0-1.15","63d1c1b521f75a8a9f14160f","D2","batch4","","4196.299999952316","stim/no_33_1_b.png","j","pattern_response","true","j","pattern_15","4196.299999952316","true","14","","","","","","","","","","","","","","","","","","",""
"","","","","","html-keyboard-response","53","133824","0.0-2.0-5.0-0.16","63d1c1b521f75a8a9f14160f","D2","batch4","","null","<p class=block-text>Trial 17 out of 78</p>","null","pattern_show_trial_num","","","","","","","","","","","","","","","","","","","","","","","","",""
"","","","","","image-keyboard-response","54","134973","0.0-2.0-5.0-1.16","63d1c1b521f75a8a9f14160f","D2","batch4","","1148.5","stim/yes_23_ver_b1.png","f","pattern_response","true","f","pattern_48","1148.5","true","15","","","","","","","","","","","","","","","","","","",""
"","","","","","html-keyboard-response","55","136288","0.0-2.0-5.0-0.17","63d1c1b521f75a8a9f14160f","D2","batch4","","null","<p class=block-text>Trial 18 out of 78</p>","null","pattern_show_trial_num","","","","","","","","","","","","","","","","","","","","","","","","",""
"","","","","","image-keyboard-response","56","139182","0.0-2.0-5.0-1.17","63d1c1b521f75a8a9f14160f","D2","batch4","","2892.899999856949","stim/yes_51_dia_b1.png","f","pattern_response","true","f","pattern_72","2892.899999856949","true","16","","","","","","","","","","","","","","","","","","",""
"","","","","","html-keyboard-response","57","140495","0.0-2.0-5.0-0.18","63d1c1b521f75a8a9f14160f","D2","batch4","","null","<p class=block-text>Trial 19 out of 78</p>","null","pattern_show_trial_num","","","","","","","","","","","","","","","","","","","","","","","","",""
"","","","","","image-keyboard-response","58","142163","0.0-2.0-5.0-1.18","63d1c1b521f75a8a9f14160f","D2","batch4","","1667.2999999523163","stim/yes_26_dia_w2_w.png","f","pattern_response","true","f","pattern_50","1667.2999999523163","true","17","","","","","","","","","","","","","","","","","","",""
"","","","","","html-keyboard-response","59","143478","0.0-2.0-5.0-0.19","63d1c1b521f75a8a9f14160f","D2","batch4","","null","<p class=block-text>Trial 20 out of 78</p>","null","pattern_show_trial_num","","","","","","","","","","","","","","","","","","","","","","","","",""
"","","","","","image-keyboard-response","60","144364","0.0-2.0-5.0-1.19","63d1c1b521f75a8a9f14160f","D2","batch4","","885.6000001430511","stim/yes_15_dia_b1u_b.png","f","pattern_response","true","f","pattern_44","885.6000001430511","true","18","","","","","","","","","","","","","","","","","","",""
"","","","","","html-keyboard-response","61","145679","0.0-2.0-5.0-0.20","63d1c1b521f75a8a9f14160f","D2","batch4","","null","<p class=block-text>Trial 21 out of 78</p>","null","pattern_show_trial_num","","","","","","","","","","","","","","","","","","","","","","","","",""
"","","","","","image-keyboard-response","62","146637","0.0-2.0-5.0-1.20","63d1c1b521f75a8a9f14160f","D2","batch4","","956.5","stim/yes_12_hor_w1_w.png","f","pattern_response","true","f","pattern_42","956.5","true","19","","","","","","","","","","","","","","","","","","",""
"","","","","","html-keyboard-response","63","147951","0.0-2.0-5.0-0.21","63d1c1b521f75a8a9f14160f","D2","batch4","","null","<p class=block-text>Trial 22 out of 78</p>","null","pattern_show_trial_num","","","","","","","","","","","","","","","","","","","","","","","","",""
"","","","","","image-keyboard-response","64","148940","0.0-2.0-5.0-1.21","63d1c1b521f75a8a9f14160f","D2","batch4","","988.0999999046326","stim/yes_39_hor_w1_w.png","f","pattern_response","true","f","pattern_62","988.0999999046326","true","20","","","","","","","","","","","","","","","","","","",""
"","","","","","html-keyboard-response","65","150255","0.0-2.0-5.0-0.22","63d1c1b521f75a8a9f14160f","D2","batch4","","null","<p class=block-text>Trial 23 out of 78</p>","null","pattern_show_trial_num","","","","","","","","","","","","","","","","","","","","","","","","",""
"","","","","","image-keyboard-response","66","151613","0.0-2.0-5.0-1.22","63d1c1b521f75a8a9f14160f","D2","batch4","","1357","stim/no_12_1.png","j","pattern_response","true","j","pattern_01","1357","true","21","","","","","","","","","","","","","","","","","","",""
"","","","","","html-keyboard-response","67","152930","0.0-2.0-5.0-0.23","63d1c1b521f75a8a9f14160f","D2","batch4","","null","<p class=block-text>Trial 24 out of 78</p>","null","pattern_show_trial_num","","","","","","","","","","","","","","","","","","","","","","","","",""
"","","","","","image-keyboard-response","68","153965","0.0-2.0-5.0-1.23","63d1c1b521f75a8a9f14160f","D2","batch4","","1034.3000001907349","stim/yes_37_hor_w1_w.png","f","pattern_response","true","f","pattern_60","1034.3000001907349","true","22","","","","","","","","","","","","","","","","","","",""
"","","","","","html-keyboard-response","69","155279","0.0-2.0-5.0-0.24","63d1c1b521f75a8a9f14160f","D2","batch4","","null","<p class=block-text>Trial 25 out of 78</p>","null","pattern_show_trial_num","","","","","","","","","","","","","","","","","","","","","","","","",""
"","","","","","image-keyboard-response","70","156108","0.0-2.0-5.0-1.24","63d1c1b521f75a8a9f14160f","D2","batch4","","828.5","stim/yes_53_ver_b1_b.png","f","pattern_response","true","f","pattern_74","828.5","true","23","","","","","","","","","","","","","","","","","","",""
"","","","","","html-keyboard-response","71","157422","0.0-2.0-5.0-0.25","63d1c1b521f75a8a9f14160f","D2","batch4","","null","<p class=block-text>Trial 26 out of 78</p>","null","pattern_show_trial_num","","","","","","","","","","","","","","","","","","","","","","","","",""
"","","","","","image-keyboard-response","72","161612","0.0-2.0-5.0-1.25","63d1c1b521f75a8a9f14160f","D2","batch4","","4189.200000047684","stim/no_39_1_w.png","j","pattern_response","true","j","pattern_21","4189.200000047684","true","24","","","","","","","","","","","","","","","","","","",""
"","","","","","html-keyboard-response","73","162926","0.0-2.0-5.0-0.26","63d1c1b521f75a8a9f14160f","D2","batch4","","null","<p class=block-text>Trial 27 out of 78</p>","null","pattern_show_trial_num","","","","","","","","","","","","","","","","","","","","","","","","",""
"","","","","","image-keyboard-response","74","164749","0.0-2.0-5.0-1.26","63d1c1b521f75a8a9f14160f","D2","batch4","","1821.5","stim/no_18_1_b.png","j","pattern_response","true","j","pattern_05","1821.5","true","25","","","","","","","","","","","","","","","","","","",""
"","","","","","html-keyboard-response","75","166062","0.0-2.0-5.0-0.27","63d1c1b521f75a8a9f14160f","D2","batch4","","null","<p class=block-text>Trial 28 out of 78</p>","null","pattern_show_trial_num","","","","","","","","","","","","","","","","","","","","","","","","",""
"","","","","","image-keyboard-response","76","166939","0.0-2.0-5.0-1.27","63d1c1b521f75a8a9f14160f","D2","batch4","","876.3000001907349","stim/yes_36_ver_w1_w.png","f","pattern_response","true","f","pattern_58","876.3000001907349","true","26","","","","","","","","","","","","","","","","","","",""
"","","","","","html-keyboard-response","77","168254","0.0-2.0-5.0-0.28","63d1c1b521f75a8a9f14160f","D2","batch4","","null","<p class=block-text>Trial 29 out of 78</p>","null","pattern_show_trial_num","","","","","","","","","","","","","","","","","","","","","","","","",""
"","","","","","image-keyboard-response","78","174171","0.0-2.0-5.0-1.28","63d1c1b521f75a8a9f14160f","D2","batch4","","5915.899999856949","stim/no_58_1_w.png","j","pattern_response","true","j","pattern_35","5915.899999856949","true","27","","","","","","","","","","","","","","","","","","",""
"","","","","","html-keyboard-response","79","175486","0.0-2.0-5.0-0.29","63d1c1b521f75a8a9f14160f","D2","batch4","","null","<p class=block-text>Trial 30 out of 78</p>","null","pattern_show_trial_num","","","","","","","","","","","","","","","","","","","","","","","","",""
"","","","","","image-keyboard-response","80","178036","0.0-2.0-5.0-1.29","63d1c1b521f75a8a9f14160f","D2","batch4","","2548.7999999523163","stim/no_25_1_b.png","j","pattern_response","true","j","pattern_09","2548.7999999523163","true","28","","","","","","","","","","","","","","","","","","",""
"","","","","","html-keyboard-response","81","179348","0.0-2.0-5.0-0.30","63d1c1b521f75a8a9f14160f","D2","batch4","","null","<p class=block-text>Trial 31 out of 78</p>","null","pattern_show_trial_num","","","","","","","","","","","","","","","","","","","","","","","","",""
"","","","","","image-keyboard-response","82","180411","0.0-2.0-5.0-1.30","63d1c1b521f75a8a9f14160f","D2","batch4","","1061.3999998569489","stim/yes_29_hor_b1_b.png","f","pattern_response","true","f","pattern_52","1061.3999998569489","true","29","","","","","","","","","","","","","","","","","","",""
"","","","","","html-keyboard-response","83","181726","0.0-2.0-5.0-0.31","63d1c1b521f75a8a9f14160f","D2","batch4","","null","<p class=block-text>Trial 32 out of 78</p>","null","pattern_show_trial_num","","","","","","","","","","","","","","","","","","","","","","","","",""
"","","","","","image-keyboard-response","84","182635","0.0-2.0-5.0-1.31","63d1c1b521f75a8a9f14160f","D2","batch4","","908.6000001430511","stim/no_15_1_w.png","j","pattern_response","true","j","pattern_03","908.6000001430511","true","30","","","","","","","","","","","","","","","","","","",""
"","","","","","html-keyboard-response","85","183950","0.0-2.0-5.0-0.32","63d1c1b521f75a8a9f14160f","D2","batch4","","null","<p class=block-text>Trial 33 out of 78</p>","null","pattern_show_trial_num","","","","","","","","","","","","","","","","","","","","","","","","",""
"","","","","","image-keyboard-response","86","184931","0.0-2.0-5.0-1.32","63d1c1b521f75a8a9f14160f","D2","batch4","","979.9000000953674","stim/yes_49_hor_w1_b.png","f","pattern_response","true","f","pattern_70","979.9000000953674","true","31","","","","","","","","","","","","","","","","","","",""
"","","","","","html-keyboard-response","87","186245","0.0-2.0-5.0-0.33","63d1c1b521f75a8a9f14160f","D2","batch4","","null","<p class=block-text>Trial 34 out of 78</p>","null","pattern_show_trial_num","","","","","","","","","","","","","","","","","","","","","","","","",""
"","","","","","image-keyboard-response","88","190603","0.0-2.0-5.0-1.33","63d1c1b521f75a8a9f14160f","D2","batch4","","4357.100000143051","stim/yes_58_dia_w1_w.png","f","pattern_response","true","f","pattern_76","4357.100000143051","true","32","","","","","","","","","","","","","","","","","","",""
"","","","","","html-keyboard-response","89","191917","0.0-2.0-5.0-0.34","63d1c1b521f75a8a9f14160f","D2","batch4","","null","<p class=block-text>Trial 35 out of 78</p>","null","pattern_show_trial_num","","","","","","","","","","","","","","","","","","","","","","","","",""
"","","","","","image-keyboard-response","90","193163","0.0-2.0-5.0-1.34","63d1c1b521f75a8a9f14160f","D2","batch4","","1244.2000000476837","stim/yes_42_dia_w1_w.png","f","pattern_response","true","f","pattern_64","1244.2000000476837","true","33","","","","","","","","","","","","","","","","","","",""
"","","","","","html-keyboard-response","91","194477","0.0-2.0-5.0-0.35","63d1c1b521f75a8a9f14160f","D2","batch4","","null","<p class=block-text>Trial 36 out of 78</p>","null","pattern_show_trial_num","","","","","","","","","","","","","","","","","","","","","","","","",""
"","","","","","image-keyboard-response","92","199553","0.0-2.0-5.0-1.35","63d1c1b521f75a8a9f14160f","D2","batch4","","5075.5","stim/no_43_2_b.png","j","pattern_response","true","j","pattern_23","5075.5","true","34","","","","","","","","","","","","","","","","","","",""
"","","","","","html-keyboard-response","93","200869","0.0-2.0-5.0-0.36","63d1c1b521f75a8a9f14160f","D2","batch4","","null","<p class=block-text>Trial 37 out of 78</p>","null","pattern_show_trial_num","","","","","","","","","","","","","","","","","","","","","","","","",""
"","","","","","image-keyboard-response","94","204131","0.0-2.0-5.0-1.36","63d1c1b521f75a8a9f14160f","D2","batch4","","3261.0999999046326","stim/yes_33_dia_w1_w.png","f","pattern_response","true","f","pattern_56","3261.0999999046326","true","35","","","","","","","","","","","","","","","","","","",""
"","","","","","html-keyboard-response","95","205445","0.0-2.0-5.0-0.37","63d1c1b521f75a8a9f14160f","D2","batch4","","null","<p class=block-text>Trial 38 out of 78</p>","null","pattern_show_trial_num","","","","","","","","","","","","","","","","","","","","","","","","",""
"","","","","","image-keyboard-response","96","209986","0.0-2.0-5.0-1.37","63d1c1b521f75a8a9f14160f","D2","batch4","","4540.5","stim/yes_70_ver_b1.png","j","pattern_response","false","f","pattern_80","4540.5","false","35","","","","","","","","","","","","","","","","","","",""
"","","","","","html-keyboard-response","97","211299","0.0-2.0-5.0-0.38","63d1c1b521f75a8a9f14160f","D2","batch4","","null","<p class=block-text>Trial 39 out of 78</p>","null","pattern_show_trial_num","","","","","","","","","","","","","","","","","","","","","","","","",""
"","","","","","image-keyboard-response","98","216226","0.0-2.0-5.0-1.38","63d1c1b521f75a8a9f14160f","D2","batch4","","4926.599999904633","stim/no_51_1.png","j","pattern_response","true","j","pattern_31","4926.599999904633","true","36","","","","","","","","","","","","","","","","","","",""
"","","","","","image-keyboard-response","99","218938","0.0-2.0-6.0","63d1c1b521f75a8a9f14160f","D2","batch4","","2206.699999809265","stim/empty_board.png","j","attention_check","true","j","","","","","500","[""f"",""j""]","","","","","","","","","","","","","","","","",""
"","","","","","html-keyboard-response","100","219748","0.0-2.0-7.0-0.0","63d1c1b521f75a8a9f14160f","D2","batch4","","null","<p class=block-text>Trial 40 out of 78</p>","null","pattern_show_trial_num","","","","","","","","","","","","","","","","","","","","","","","","",""
"","","","","","image-keyboard-response","101","222425","0.0-2.0-7.0-1.0","63d1c1b521f75a8a9f14160f","D2","batch4","","2675.7000000476837","stim/no_32_1_w.png","j","pattern_response","true","j","pattern_14","2675.7000000476837","true","37","","","","","","","","","","","","","","","","","","",""
"","","","","","html-keyboard-response","102","223740","0.0-2.0-7.0-0.1","63d1c1b521f75a8a9f14160f","D2","batch4","","null","<p class=block-text>Trial 41 out of 78</p>","null","pattern_show_trial_num","","","","","","","","","","","","","","","","","","","","","","","","",""
"","","","","","image-keyboard-response","103","224666","0.0-2.0-7.0-1.1","63d1c1b521f75a8a9f14160f","D2","batch4","","924.2000000476837","stim/yes_55_hor_w1_w.png","f","pattern_response","true","f","pattern_75","924.2000000476837","true","38","","","","","","","","","","","","","","","","","","",""
"","","","","","html-keyboard-response","104","225980","0.0-2.0-7.0-0.2","63d1c1b521f75a8a9f14160f","D2","batch4","","null","<p class=block-text>Trial 42 out of 78</p>","null","pattern_show_trial_num","","","","","","","","","","","","","","","","","","","","","","","","",""
"","","","","","image-keyboard-response","105","227762","0.0-2.0-7.0-1.2","63d1c1b521f75a8a9f14160f","D2","batch4","","1780.9000000953674","stim/yes_48_dia_w1_w.png","f","pattern_response","true","f","pattern_69","1780.9000000953674","true","39","","","","","","","","","","","","","","","","","","",""
"","","","","","html-keyboard-response","106","229076","0.0-2.0-7.0-0.3","63d1c1b521f75a8a9f14160f","D2","batch4","","null","<p class=block-text>Trial 43 out of 78</p>","null","pattern_show_trial_num","","","","","","","","","","","","","","","","","","","","","","","","",""
"","","","","","image-keyboard-response","107","236081","0.0-2.0-7.0-1.3","63d1c1b521f75a8a9f14160f","D2","batch4","","7003.799999952316","stim/no_65_1_b.png","j","pattern_response","true","j","pattern_38","7003.799999952316","true","40","","","","","","","","","","","","","","","","","","",""
"","","","","","html-keyboard-response","108","237395","0.0-2.0-7.0-0.4","63d1c1b521f75a8a9f14160f","D2","batch4","","null","<p class=block-text>Trial 44 out of 78</p>","null","pattern_show_trial_num","","","","","","","","","","","","","","","","","","","","","","","","",""
"","","","","","image-keyboard-response","109","239417","0.0-2.0-7.0-1.4","63d1c1b521f75a8a9f14160f","D2","batch4","","2020.5","stim/yes_45_hor_b2_b.png","f","pattern_response","true","f","pattern_67","2020.5","true","41","","","","","","","","","","","","","","","","","","",""
"","","","","","html-keyboard-response","110","240731","0.0-2.0-7.0-0.5","63d1c1b521f75a8a9f14160f","D2","batch4","","null","<p class=block-text>Trial 45 out of 78</p>","null","pattern_show_trial_num","","","","","","","","","","","","","","","","","","","","","","","","",""
"","","","","","image-keyboard-response","111","242799","0.0-2.0-7.0-1.5","63d1c1b521f75a8a9f14160f","D2","batch4","","2066.899999856949","stim/no_29_1_b.png","j","pattern_response","true","j","pattern_12","2066.899999856949","true","42","","","","","","","","","","","","","","","","","","",""
"","","","","","html-keyboard-response","112","244115","0.0-2.0-7.0-0.6","63d1c1b521f75a8a9f14160f","D2","batch4","","null","<p class=block-text>Trial 46 out of 78</p>","null","pattern_show_trial_num","","","","","","","","","","","","","","","","","","","","","","","","",""
"","","","","","image-keyboard-response","113","246457","0.0-2.0-7.0-1.6","63d1c1b521f75a8a9f14160f","D2","batch4","","2340.7000000476837","stim/no_26_1_w.png","j","pattern_response","true","j","pattern_10","2340.7000000476837","true","43","","","","","","","","","","","","","","","","","","",""
"","","","","","html-keyboard-response","114","247769","0.0-2.0-7.0-0.7","63d1c1b521f75a8a9f14160f","D2","batch4","","null","<p class=block-text>Trial 47 out of 78</p>","null","pattern_show_trial_num","","","","","","","","","","","","","","","","","","","","","","","","",""
"","","","","","image-keyboard-response","115","250841","0.0-2.0-7.0-1.7","63d1c1b521f75a8a9f14160f","D2","batch4","","3070.300000190735","stim/yes_50_dia_w1.png","j","pattern_response","false","f","pattern_71","3070.300000190735","false","43","","","","","","","","","","","","","","","","","","",""
"","","","","","html-keyboard-response","116","252155","0.0-2.0-7.0-0.8","63d1c1b521f75a8a9f14160f","D2","batch4","","null","<p class=block-text>Trial 48 out of 78</p>","null","pattern_show_trial_num","","","","","","","","","","","","","","","","","","","","","","","","",""
"","","","","","image-keyboard-response","117","253280","0.0-2.0-7.0-1.8","63d1c1b521f75a8a9f14160f","D2","batch4","","1124.4000000953674","stim/yes_38_hor_b1_b.png","f","pattern_response","true","f","pattern_61","1124.4000000953674","true","44","","","","","","","","","","","","","","","","","","",""
"","","","","","html-keyboard-response","118","254594","0.0-2.0-7.0-0.9","63d1c1b521f75a8a9f14160f","D2","batch4","","null","<p class=block-text>Trial 49 out of 78</p>","null","pattern_show_trial_num","","","","","","","","","","","","","","","","","","","","","","","","",""
"","","","","","image-keyboard-response","119","257543","0.0-2.0-7.0-1.9","63d1c1b521f75a8a9f14160f","D2","batch4","","2947.4000000953674","stim/no_46_1_b.png","j","pattern_response","true","j","pattern_26","2947.4000000953674","true","45","","","","","","","","","","","","","","","","","","",""
"","","","","","html-keyboard-response","120","258859","0.0-2.0-7.0-0.10","63d1c1b521f75a8a9f14160f","D2","batch4","","null","<p class=block-text>Trial 50 out of 78</p>","null","pattern_show_trial_num","","","","","","","","","","","","","","","","","","","","","","","","",""
"","","","","","image-keyboard-response","121","261815","0.0-2.0-7.0-1.10","63d1c1b521f75a8a9f14160f","D2","batch4","","2955.300000190735","stim/yes_40_dia_b1_b.png","f","pattern_response","true","f","pattern_63","2955.300000190735","true","46","","","","","","","","","","","","","","","","","","",""
"","","","","","html-keyboard-response","122","263130","0.0-2.0-7.0-0.11","63d1c1b521f75a8a9f14160f","D2","batch4","","null","<p class=block-text>Trial 51 out of 78</p>","null","pattern_show_trial_num","","","","","","","","","","","","","","","","","","","","","","","","",""
"","","","","","image-keyboard-response","123","264559","0.0-2.0-7.0-1.11","63d1c1b521f75a8a9f14160f","D2","batch4","","1427","stim/yes_60_ver_b1_b.png","f","pattern_response","true","f","pattern_77","1427","true","47","","","","","","","","","","","","","","","","","","",""
"","","","","","html-keyboard-response","124","265873","0.0-2.0-7.0-0.12","63d1c1b521f75a8a9f14160f","D2","batch4","","null","<p class=block-text>Trial 52 out of 78</p>","null","pattern_show_trial_num","","","","","","","","","","","","","","","","","","","","","","","","",""
"","","","","","image-keyboard-response","125","266840","0.0-2.0-7.0-1.12","63d1c1b521f75a8a9f14160f","D2","batch4","","966","stim/no_13_2_b.png","j","pattern_response","true","j","pattern_02","966","true","48","","","","","","","","","","","","","","","","","","",""
"","","","","","html-keyboard-response","126","268154","0.0-2.0-7.0-0.13","63d1c1b521f75a8a9f14160f","D2","batch4","","null","<p class=block-text>Trial 53 out of 78</p>","null","pattern_show_trial_num","","","","","","","","","","","","","","","","","","","","","","","","",""
"","","","","","image-keyboard-response","127","272119","0.0-2.0-7.0-1.13","63d1c1b521f75a8a9f14160f","D2","batch4","","3964.5999999046326","stim/no_48_1_w.png","f","pattern_response","false","j","pattern_28","3964.5999999046326","false","48","","","","","","","","","","","","","","","","","","",""
"","","","","","html-keyboard-response","128","273434","0.0-2.0-7.0-0.14","63d1c1b521f75a8a9f14160f","D2","batch4","","null","<p class=block-text>Trial 54 out of 78</p>","null","pattern_show_trial_num","","","","","","","","","","","","","","","","","","","","","","","","",""
"","","","","","image-keyboard-response","129","274727","0.0-2.0-7.0-1.14","63d1c1b521f75a8a9f14160f","D2","batch4","","1292.5","stim/yes_28_ver_b1.png","f","pattern_response","true","f","pattern_51","1292.5","true","49","","","","","","","","","","","","","","","","","","",""
"","","","","","html-keyboard-response","130","276041","0.0-2.0-7.0-0.15","63d1c1b521f75a8a9f14160f","D2","batch4","","null","<p class=block-text>Trial 55 out of 78</p>","null","pattern_show_trial_num","","","","","","","","","","","","","","","","","","","","","","","","",""
"","","","","","image-keyboard-response","131","277495","0.0-2.0-7.0-1.15","63d1c1b521f75a8a9f14160f","D2","batch4","","1453.7000000476837","stim/yes_29_ver_w1.png","f","pattern_response","true","f","pattern_53","1453.7000000476837","true","50","","","","","","","","","","","","","","","","","","",""
"","","","","","html-keyboard-response","132","278808","0.0-2.0-7.0-0.16","63d1c1b521f75a8a9f14160f","D2","batch4","","null","<p class=block-text>Trial 56 out of 78</p>","null","pattern_show_trial_num","","","","","","","","","","","","","","","","","","","","","","","","",""
"","","","","","image-keyboard-response","133","282791","0.0-2.0-7.0-1.16","63d1c1b521f75a8a9f14160f","D2","batch4","","3982.4000000953674","stim/no_44_1.png","j","pattern_response","true","j","pattern_24","3982.4000000953674","true","51","","","","","","","","","","","","","","","","","","",""
"","","","","","html-keyboard-response","134","284105","0.0-2.0-7.0-0.17","63d1c1b521f75a8a9f14160f","D2","batch4","","null","<p class=block-text>Trial 57 out of 78</p>","null","pattern_show_trial_num","","","","","","","","","","","","","","","","","","","","","","","","",""
"","","","","","image-keyboard-response","135","288582","0.0-2.0-7.0-1.17","63d1c1b521f75a8a9f14160f","D2","batch4","","4475.599999904633","stim/no_50_1.png","f","pattern_response","false","j","pattern_30","4475.599999904633","false","51","","","","","","","","","","","","","","","","","","",""
"","","","","","html-keyboard-response","136","289897","0.0-2.0-7.0-0.18","63d1c1b521f75a8a9f14160f","D2","batch4","","null","<p class=block-text>Trial 58 out of 78</p>","null","pattern_show_trial_num","","","","","","","","","","","","","","","","","","","","","","","","",""
"","","","","","image-keyboard-response","137","291045","0.0-2.0-7.0-1.18","63d1c1b521f75a8a9f14160f","D2","batch4","","1146.7000000476837","stim/yes_52_ver_w1.png","f","pattern_response","true","f","pattern_73","1146.7000000476837","true","52","","","","","","","","","","","","","","","","","","",""
"","","","","","html-keyboard-response","138","292353","0.0-2.0-7.0-0.19","63d1c1b521f75a8a9f14160f","D2","batch4","","null","<p class=block-text>Trial 59 out of 78</p>","null","pattern_show_trial_num","","","","","","","","","","","","","","","","","","","","","","","","",""
"","","","","","image-keyboard-response","139","294294","0.0-2.0-7.0-1.19","63d1c1b521f75a8a9f14160f","D2","batch4","","1939.5","stim/no_23_1.png","j","pattern_response","true","j","pattern_08","1939.5","true","53","","","","","","","","","","","","","","","","","","",""
"","","","","","html-keyboard-response","140","295609","0.0-2.0-7.0-0.20","63d1c1b521f75a8a9f14160f","D2","batch4","","null","<p class=block-text>Trial 60 out of 78</p>","null","pattern_show_trial_num","","","","","","","","","","","","","","","","","","","","","","","","",""
"","","","","","image-keyboard-response","141","299414","0.0-2.0-7.0-1.20","63d1c1b521f75a8a9f14160f","D2","batch4","","3804.600000143051","stim/no_55_1_w.png","j","pattern_response","true","j","pattern_34","3804.600000143051","true","54","","","","","","","","","","","","","","","","","","",""
"","","","","","html-keyboard-response","142","300729","0.0-2.0-7.0-0.21","63d1c1b521f75a8a9f14160f","D2","batch4","","null","<p class=block-text>Trial 61 out of 78</p>","null","pattern_show_trial_num","","","","","","","","","","","","","","","","","","","","","","","","",""
"","","","","","image-keyboard-response","143","303014","0.0-2.0-7.0-1.21","63d1c1b521f75a8a9f14160f","D2","batch4","","2284.2000000476837","stim/no_36_2_w.png","j","pattern_response","true","j","pattern_18","2284.2000000476837","true","55","","","","","","","","","","","","","","","","","","",""
"","","","","","html-keyboard-response","144","304328","0.0-2.0-7.0-0.22","63d1c1b521f75a8a9f14160f","D2","batch4","","null","<p class=block-text>Trial 62 out of 78</p>","null","pattern_show_trial_num","","","","","","","","","","","","","","","","","","","","","","","","",""
"","","","","","image-keyboard-response","145","306759","0.0-2.0-7.0-1.22","63d1c1b521f75a8a9f14160f","D2","batch4","","2429.399999856949","stim/yes_67_hor_b1.png","f","pattern_response","true","f","pattern_79","2429.399999856949","true","56","","","","","","","","","","","","","","","","","","",""
"","","","","","html-keyboard-response","146","308072","0.0-2.0-7.0-0.23","63d1c1b521f75a8a9f14160f","D2","batch4","","null","<p class=block-text>Trial 63 out of 78</p>","null","pattern_show_trial_num","","","","","","","","","","","","","","","","","","","","","","","","",""
"","","","","","image-keyboard-response","147","313133","0.0-2.0-7.0-1.23","63d1c1b521f75a8a9f14160f","D2","batch4","","5060","stim/no_70_2.png","j","pattern_response","true","j","pattern_40","5060","true","57","","","","","","","","","","","","","","","","","","",""
"","","","","","html-keyboard-response","148","314441","0.0-2.0-7.0-0.24","63d1c1b521f75a8a9f14160f","D2","batch4","","null","<p class=block-text>Trial 64 out of 78</p>","null","pattern_show_trial_num","","","","","","","","","","","","","","","","","","","","","","","","",""
"","","","","","image-keyboard-response","149","316446","0.0-2.0-7.0-1.24","63d1c1b521f75a8a9f14160f","D2","batch4","","2003.1000001430511","stim/yes_31_hor_b1.png","f","pattern_response","true","f","pattern_55","2003.1000001430511","true","58","","","","","","","","","","","","","","","","","","",""
"","","","","","html-keyboard-response","150","317760","0.0-2.0-7.0-0.25","63d1c1b521f75a8a9f14160f","D2","batch4","","null","<p class=block-text>Trial 65 out of 78</p>","null","pattern_show_trial_num","","","","","","","","","","","","","","","","","","","","","","","","",""
"","","","","","image-keyboard-response","151","319300","0.0-2.0-7.0-1.25","63d1c1b521f75a8a9f14160f","D2","batch4","","1539.5","stim/no_20_1_w.png","j","pattern_response","true","j","pattern_06","1539.5","true","59","","","","","","","","","","","","","","","","","","",""
"","","","","","html-keyboard-response","152","320616","0.0-2.0-7.0-0.26","63d1c1b521f75a8a9f14160f","D2","batch4","","null","<p class=block-text>Trial 66 out of 78</p>","null","pattern_show_trial_num","","","","","","","","","","","","","","","","","","","","","","","","",""
"","","","","","image-keyboard-response","153","323413","0.0-2.0-7.0-1.26","63d1c1b521f75a8a9f14160f","D2","batch4","","2796.2000000476837","stim/yes_35_dia_b1.png","j","pattern_response","false","f","pattern_57","2796.2000000476837","false","59","","","","","","","","","","","","","","","","","","",""
"","","","","","html-keyboard-response","154","324727","0.0-2.0-7.0-0.27","63d1c1b521f75a8a9f14160f","D2","batch4","","null","<p class=block-text>Trial 67 out of 78</p>","null","pattern_show_trial_num","","","","","","","","","","","","","","","","","","","","","","","","",""
"","","","","","image-keyboard-response","155","326621","0.0-2.0-7.0-1.27","63d1c1b521f75a8a9f14160f","D2","batch4","","1893.8000001907349","stim/yes_37_dia_w1.png","f","pattern_response","true","f","pattern_59","1893.8000001907349","true","60","","","","","","","","","","","","","","","","","","",""
"","","","","","html-keyboard-response","156","327935","0.0-2.0-7.0-0.28","63d1c1b521f75a8a9f14160f","D2","batch4","","null","<p class=block-text>Trial 68 out of 78</p>","null","pattern_show_trial_num","","","","","","","","","","","","","","","","","","","","","","","","",""
"","","","","","image-keyboard-response","157","331485","0.0-2.0-7.0-1.28","63d1c1b521f75a8a9f14160f","D2","batch4","","3548.7000000476837","stim/no_38_1_b.png","j","pattern_response","true","j","pattern_20","3548.7000000476837","true","61","","","","","","","","","","","","","","","","","","",""
"","","","","","html-keyboard-response","158","332798","0.0-2.0-7.0-0.29","63d1c1b521f75a8a9f14160f","D2","batch4","","null","<p class=block-text>Trial 69 out of 78</p>","null","pattern_show_trial_num","","","","","","","","","","","","","","","","","","","","","","","","",""
"","","","","","image-keyboard-response","159","337365","0.0-2.0-7.0-1.29","63d1c1b521f75a8a9f14160f","D2","batch4","","4565.299999952316","stim/no_42_1_w.png","j","pattern_response","true","j","pattern_22","4565.299999952316","true","62","","","","","","","","","","","","","","","","","","",""
"","","","","","html-keyboard-response","160","338678","0.0-2.0-7.0-0.30","63d1c1b521f75a8a9f14160f","D2","batch4","","null","<p class=block-text>Trial 70 out of 78</p>","null","pattern_show_trial_num","","","","","","","","","","","","","","","","","","","","","","","","",""
"","","","","","image-keyboard-response","161","340563","0.0-2.0-7.0-1.30","63d1c1b521f75a8a9f14160f","D2","batch4","","1884.0999999046326","stim/no_17_1_w.png","j","pattern_response","true","j","pattern_04","1884.0999999046326","true","63","","","","","","","","","","","","","","","","","","",""
"","","","","","html-keyboard-response","162","341879","0.0-2.0-7.0-0.31","63d1c1b521f75a8a9f14160f","D2","batch4","","null","<p class=block-text>Trial 71 out of 78</p>","null","pattern_show_trial_num","","","","","","","","","","","","","","","","","","","","","","","","",""
"","","","","","image-keyboard-response","163","346125","0.0-2.0-7.0-1.31","63d1c1b521f75a8a9f14160f","D2","batch4","","4245.400000095367","stim/no_52_1.png","j","pattern_response","true","j","pattern_32","4245.400000095367","true","64","","","","","","","","","","","","","","","","","","",""
"","","","","","html-keyboard-response","164","347438","0.0-2.0-7.0-0.32","63d1c1b521f75a8a9f14160f","D2","batch4","","null","<p class=block-text>Trial 72 out of 78</p>","null","pattern_show_trial_num","","","","","","","","","","","","","","","","","","","","","","","","",""
"","","","","","image-keyboard-response","165","348516","0.0-2.0-7.0-1.32","63d1c1b521f75a8a9f14160f","D2","batch4","","1076.5","stim/yes_43_ver_w1_w.png","f","pattern_response","true","f","pattern_65","1076.5","true","65","","","","","","","","","","","","","","","","","","",""
"","","","","","html-keyboard-response","166","349830","0.0-2.0-7.0-0.33","63d1c1b521f75a8a9f14160f","D2","batch4","","null","<p class=block-text>Trial 73 out of 78</p>","null","pattern_show_trial_num","","","","","","","","","","","","","","","","","","","","","","","","",""
"","","","","","image-keyboard-response","167","353780","0.0-2.0-7.0-1.33","63d1c1b521f75a8a9f14160f","D2","batch4","","3948.899999856949","stim/no_62_1_w.png","j","pattern_response","true","j","pattern_36","3948.899999856949","true","66","","","","","","","","","","","","","","","","","","",""
"","","","","","html-keyboard-response","168","355094","0.0-2.0-7.0-0.34","63d1c1b521f75a8a9f14160f","D2","batch4","","null","<p class=block-text>Trial 74 out of 78</p>","null","pattern_show_trial_num","","","","","","","","","","","","","","","","","","","","","","","","",""
"","","","","","image-keyboard-response","169","356140","0.0-2.0-7.0-1.34","63d1c1b521f75a8a9f14160f","D2","batch4","","1044.2000000476837","stim/yes_25_hor_b1_b.png","f","pattern_response","true","f","pattern_49","1044.2000000476837","true","67","","","","","","","","","","","","","","","","","","",""
"","","","","","html-keyboard-response","170","357454","0.0-2.0-7.0-0.35","63d1c1b521f75a8a9f14160f","D2","batch4","","null","<p class=block-text>Trial 75 out of 78</p>","null","pattern_show_trial_num","","","","","","","","","","","","","","","","","","","","","","","","",""
"","","","","","image-keyboard-response","171","358627","0.0-2.0-7.0-1.35","63d1c1b521f75a8a9f14160f","D2","batch4","","1172.7000000476837","stim/yes_17_dia_w1.png","f","pattern_response","true","f","pattern_45","1172.7000000476837","true","68","","","","","","","","","","","","","","","","","","",""
"","","","","","html-keyboard-response","172","359942","0.0-2.0-7.0-0.36","63d1c1b521f75a8a9f14160f","D2","batch4","","null","<p class=block-text>Trial 76 out of 78</p>","null","pattern_show_trial_num","","","","","","","","","","","","","","","","","","","","","","","","",""
"","","","","","image-keyboard-response","173","360684","0.0-2.0-7.0-1.36","63d1c1b521f75a8a9f14160f","D2","batch4","","740.6000001430511","stim/yes_22_ver_w1.png","f","pattern_response","true","f","pattern_47","740.6000001430511","true","69","","","","","","","","","","","","","","","","","","",""
"","","","","","html-keyboard-response","174","361998","0.0-2.0-7.0-0.37","63d1c1b521f75a8a9f14160f","D2","batch4","","null","<p class=block-text>Trial 77 out of 78</p>","null","pattern_show_trial_num","","","","","","","","","","","","","","","","","","","","","","","","",""
"","","","","","image-keyboard-response","175","363236","0.0-2.0-7.0-1.37","63d1c1b521f75a8a9f14160f","D2","batch4","","1236.5999999046326","stim/yes_14_hor_b1_w.png","f","pattern_response","true","f","pattern_43","1236.5999999046326","true","70","","","","","","","","","","","","","","","","","","",""
"","","","","","html-keyboard-response","176","364550","0.0-2.0-7.0-0.38","63d1c1b521f75a8a9f14160f","D2","batch4","","null","<p class=block-text>Trial 78 out of 78</p>","null","pattern_show_trial_num","","","","","","","","","","","","","","","","","","","","","","","","",""
"","","","","","image-keyboard-response","177","367580","0.0-2.0-7.0-1.38","63d1c1b521f75a8a9f14160f","D2","batch4","","3029.2000000476837","stim/no_34_1_b.png","j","pattern_response","true","j","pattern_16","3029.2000000476837","true","71","","","","","","","","","","","","","","","","","","",""
"","","","","","html-button-response","178","373141","0.0-2.0-8.0","63d1c1b521f75a8a9f14160f","D2","batch4","","5053.299999952316","<p class = block-text>This concludes the 4-in-a-row detection game.Thank you for your responses!<br>
            You responded correctly on 91% of the trials.<br>
            When you are ready, press ""Continue"" button to continue </p>","0","","","","","","","","","","","","","","","","","","","","","","","","","",""
"true","","","","","fullscreen","179","381444","0.0-3.0-0.0","63d1c1b521f75a8a9f14160f","D2","batch4","","","","","spm_fullscreen","","","","","","","","","","","","","","","","","","","","","","","","",""
"","","","","","html-button-response","180","390976","0.0-3.0-1.0","63d1c1b521f75a8a9f14160f","D2","batch4","","9531.600000143051","<p class = block-text><b>Instructions</b> <br>This is a widely used intelligence test in research. <br>In this test, a figure with a missing piece will be presented.<br>Below the figure are alternative pieces to complete the figure, only one of which is correct.<br> Different figures might involve different principles for obtaining the missing piece<br>Your job is to select the most logical piece to complete the figure.</p>","0","","","","","","","","","","","","","","","","","","","","","","","","","",""
"","","","","","html-keyboard-response","181","391781","0.0-3.0-2.0-0.0","63d1c1b521f75a8a9f14160f","D2","batch4","","null","<p class=block-text>Trial 1 out of 60</p>","null","spm_show_trial_num","","","","","","","","","","","","","","","","","","","","","","","","",""
"","","","","","image-button-response","182","397295","0.0-3.0-2.0-1.0","63d1c1b521f75a8a9f14160f","D2","batch4","","5509.799999952316","img/question_1_1.jpeg","3","spm_respsonse","1","4","mat_01","","","","","","1","5509.799999952316","","","","","","","","","","","","","","",""
"","","","","","html-keyboard-response","183","398357","0.0-3.0-2.0-0.1","63d1c1b521f75a8a9f14160f","D2","batch4","","null","<p class=block-text>Trial 2 out of 60</p>","null","spm_show_trial_num","","","","","","","","","","","","","","","","","","","","","","","","",""
"","","","","","image-button-response","184","402264","0.0-3.0-2.0-1.1","63d1c1b521f75a8a9f14160f","D2","batch4","","3904.9000000953674","img/question_1_2.jpeg","4","spm_respsonse","1","5","mat_02","","","","","","1","3904.9000000953674","","","","","","","","","","","","","","",""
"","","","","","html-keyboard-response","185","403323","0.0-3.0-2.0-0.2","63d1c1b521f75a8a9f14160f","D2","batch4","","null","<p class=block-text>Trial 3 out of 60</p>","null","spm_show_trial_num","","","","","","","","","","","","","","","","","","","","","","","","",""
"","","","","","image-button-response","186","405947","0.0-3.0-2.0-1.2","63d1c1b521f75a8a9f14160f","D2","batch4","","2621.9000000953674","img/question_1_3.jpeg","0","spm_respsonse","1","1","mat_03","","","","","","1","2621.9000000953674","","","","","","","","","","","","","","",""
"","","","","","html-keyboard-response","187","407011","0.0-3.0-2.0-0.3","63d1c1b521f75a8a9f14160f","D2","batch4","","null","<p class=block-text>Trial 4 out of 60</p>","null","spm_show_trial_num","","","","","","","","","","","","","","","","","","","","","","","","",""
"","","","","","image-button-response","188","409231","0.0-3.0-2.0-1.3","63d1c1b521f75a8a9f14160f","D2","batch4","","2218.5999999046326","img/question_1_4.jpeg","1","spm_respsonse","1","2","mat_04","","","","","","1","2218.5999999046326","","","","","","","","","","","","","","",""
"","","","","","html-keyboard-response","189","410292","0.0-3.0-2.0-0.4","63d1c1b521f75a8a9f14160f","D2","batch4","","null","<p class=block-text>Trial 5 out of 60</p>","null","spm_show_trial_num","","","","","","","","","","","","","","","","","","","","","","","","",""
"","","","","","image-button-response","190","413932","0.0-3.0-2.0-1.4","63d1c1b521f75a8a9f14160f","D2","batch4","","3638.4000000953674","img/question_1_5.jpeg","5","spm_respsonse","1","6","mat_05","","","","","","1","3638.4000000953674","","","","","","","","","","","","","","",""
"","","","","","html-keyboard-response","191","414995","0.0-3.0-2.0-0.5","63d1c1b521f75a8a9f14160f","D2","batch4","","null","<p class=block-text>Trial 6 out of 60</p>","null","spm_show_trial_num","","","","","","","","","","","","","","","","","","","","","","","","",""
"","","","","","image-button-response","192","418115","0.0-3.0-2.0-1.5","63d1c1b521f75a8a9f14160f","D2","batch4","","3119.2000000476837","img/question_1_6.jpeg","2","spm_respsonse","1","3","mat_06","","","","","","1","3119.2000000476837","","","","","","","","","","","","","","",""
"","","","","","html-keyboard-response","193","419180","0.0-3.0-2.0-0.6","63d1c1b521f75a8a9f14160f","D2","batch4","","null","<p class=block-text>Trial 7 out of 60</p>","null","spm_show_trial_num","","","","","","","","","","","","","","","","","","","","","","","","",""
"","","","","","image-button-response","194","423616","0.0-3.0-2.0-1.6","63d1c1b521f75a8a9f14160f","D2","batch4","","4434.799999952316","img/question_1_7.jpeg","5","spm_respsonse","1","6","mat_07","","","","","","1","4434.799999952316","","","","","","","","","","","","","","",""
"","","","","","html-keyboard-response","195","424685","0.0-3.0-2.0-0.7","63d1c1b521f75a8a9f14160f","D2","batch4","","null","<p class=block-text>Trial 8 out of 60</p>","null","spm_show_trial_num","","","","","","","","","","","","","","","","","","","","","","","","",""
"","","","","","image-button-response","196","429834","0.0-3.0-2.0-1.7","63d1c1b521f75a8a9f14160f","D2","batch4","","5147.700000047684","img/question_1_8.jpeg","1","spm_respsonse","1","2","mat_08","","","","","","1","5147.700000047684","","","","","","","","","","","","","","",""
"","","","","","html-keyboard-response","197","430899","0.0-3.0-2.0-0.8","63d1c1b521f75a8a9f14160f","D2","batch4","","null","<p class=block-text>Trial 9 out of 60</p>","null","spm_show_trial_num","","","","","","","","","","","","","","","","","","","","","","","","",""
"","","","","","image-button-response","198","436002","0.0-3.0-2.0-1.8","63d1c1b521f75a8a9f14160f","D2","batch4","","5101.100000143051","img/question_1_9.jpeg","0","spm_respsonse","1","1","mat_09","","","","","","1","5101.100000143051","","","","","","","","","","","","","","",""
"","","","","","html-keyboard-response","199","437067","0.0-3.0-2.0-0.9","63d1c1b521f75a8a9f14160f","D2","batch4","","null","<p class=block-text>Trial 10 out of 60</p>","null","spm_show_trial_num","","","","","","","","","","","","","","","","","","","","","","","","",""
"","","","","","image-button-response","200","441569","0.0-3.0-2.0-1.9","63d1c1b521f75a8a9f14160f","D2","batch4","","4500.399999856949","img/question_1_10.jpeg","2","spm_respsonse","1","3","mat_10","","","","","","1","4500.399999856949","","","","","","","","","","","","","","",""
"","","","","","html-keyboard-response","201","442635","0.0-3.0-2.0-0.10","63d1c1b521f75a8a9f14160f","D2","batch4","","null","<p class=block-text>Trial 11 out of 60</p>","null","spm_show_trial_num","","","","","","","","","","","","","","","","","","","","","","","","",""
"","","","","","image-button-response","202","449187","0.0-3.0-2.0-1.10","63d1c1b521f75a8a9f14160f","D2","batch4","","6551.100000143051","img/question_1_11.jpeg","4","spm_respsonse","0","4","mat_11","","","","","","0","6551.100000143051","","","","","","","","","","","","","","",""
"","","","","","html-keyboard-response","203","450250","0.0-3.0-2.0-0.11","63d1c1b521f75a8a9f14160f","D2","batch4","","null","<p class=block-text>Trial 12 out of 60</p>","null","spm_show_trial_num","","","","","","","","","","","","","","","","","","","","","","","","",""
"","","","","","image-button-response","204","455488","0.0-3.0-2.0-1.11","63d1c1b521f75a8a9f14160f","D2","batch4","","5235.700000047684","img/question_1_12.jpeg","5","spm_respsonse","0","5","mat_12","","","","","","0","5235.700000047684","","","","","","","","","","","","","","",""
"","","","","","html-keyboard-response","205","456554","0.0-3.0-2.0-0.12","63d1c1b521f75a8a9f14160f","D2","batch4","","null","<p class=block-text>Trial 13 out of 60</p>","null","spm_show_trial_num","","","","","","","","","","","","","","","","","","","","","","","","",""
"","","","","","image-button-response","206","459172","0.0-3.0-2.0-1.12","63d1c1b521f75a8a9f14160f","D2","batch4","","2616.7000000476837","img/question_2_1.jpeg","1","spm_respsonse","1","2","mat_13","","","","","","1","2616.7000000476837","","","","","","","","","","","","","","",""
"","","","","","html-keyboard-response","207","460227","0.0-3.0-2.0-0.13","63d1c1b521f75a8a9f14160f","D2","batch4","","null","<p class=block-text>Trial 14 out of 60</p>","null","spm_show_trial_num","","","","","","","","","","","","","","","","","","","","","","","","",""
"","","","","","image-button-response","208","463389","0.0-3.0-2.0-1.13","63d1c1b521f75a8a9f14160f","D2","batch4","","3160.2000000476837","img/question_2_2.jpeg","2","spm_respsonse","0","6","mat_14","","","","","","0","3160.2000000476837","","","","","","","","","","","","","","",""
"","","","","","html-keyboard-response","209","464450","0.0-3.0-2.0-0.14","63d1c1b521f75a8a9f14160f","D2","batch4","","null","<p class=block-text>Trial 15 out of 60</p>","null","spm_show_trial_num","","","","","","","","","","","","","","","","","","","","","","","","",""
"","","","","","image-button-response","210","467572","0.0-3.0-2.0-1.14","63d1c1b521f75a8a9f14160f","D2","batch4","","3121","img/question_2_3.jpeg","0","spm_respsonse","1","1","mat_15","","","","","","1","3121","","","","","","","","","","","","","","",""
"","","","","","html-keyboard-response","211","468634","0.0-3.0-2.0-0.15","63d1c1b521f75a8a9f14160f","D2","batch4","","null","<p class=block-text>Trial 16 out of 60</p>","null","spm_show_trial_num","","","","","","","","","","","","","","","","","","","","","","","","",""
"","","","","","image-button-response","212","470789","0.0-3.0-2.0-1.15","63d1c1b521f75a8a9f14160f","D2","batch4","","2152.9000000953674","img/question_2_4.jpeg","1","spm_respsonse","1","2","mat_16","","","","","","1","2152.9000000953674","","","","","","","","","","","","","","",""
"","","","","","html-keyboard-response","213","471850","0.0-3.0-2.0-0.16","63d1c1b521f75a8a9f14160f","D2","batch4","","null","<p class=block-text>Trial 17 out of 60</p>","null","spm_show_trial_num","","","","","","","","","","","","","","","","","","","","","","","","",""
"","","","","","image-button-response","214","475008","0.0-3.0-2.0-1.16","63d1c1b521f75a8a9f14160f","D2","batch4","","3157.2000000476837","img/question_2_5.jpeg","4","spm_respsonse","0","1","mat_17","","","","","","0","3157.2000000476837","","","","","","","","","","","","","","",""
"","","","","","html-keyboard-response","215","476073","0.0-3.0-2.0-0.17","63d1c1b521f75a8a9f14160f","D2","batch4","","null","<p class=block-text>Trial 18 out of 60</p>","null","spm_show_trial_num","","","","","","","","","","","","","","","","","","","","","","","","",""
"","","","","","image-button-response","216","479208","0.0-3.0-2.0-1.17","63d1c1b521f75a8a9f14160f","D2","batch4","","3133.0999999046326","img/question_2_6.jpeg","3","spm_respsonse","0","3","mat_18","","","","","","0","3133.0999999046326","","","","","","","","","","","","","","",""
"","","","","","html-keyboard-response","217","480275","0.0-3.0-2.0-0.18","63d1c1b521f75a8a9f14160f","D2","batch4","","null","<p class=block-text>Trial 19 out of 60</p>","null","spm_show_trial_num","","","","","","","","","","","","","","","","","","","","","","","","",""
"","","","","","image-button-response","218","501478","0.0-3.0-2.0-1.18","63d1c1b521f75a8a9f14160f","D2","batch4","","21201.700000047684","img/question_2_7.jpeg","5","spm_respsonse","0","5","mat_19","","","","","","0","21201.700000047684","","","","","","","","","","","","","","",""
"","","","","","html-keyboard-response","219","502544","0.0-3.0-2.0-0.19","63d1c1b521f75a8a9f14160f","D2","batch4","","null","<p class=block-text>Trial 20 out of 60</p>","null","spm_show_trial_num","","","","","","","","","","","","","","","","","","","","","","","","",""
"","","","","","image-button-response","220","509044","0.0-3.0-2.0-1.19","63d1c1b521f75a8a9f14160f","D2","batch4","","6499.399999856949","img/question_2_8.jpeg","5","spm_respsonse","1","6","mat_20","","","","","","1","6499.399999856949","","","","","","","","","","","","","","",""
"","","","","","html-keyboard-response","221","510110","0.0-3.0-2.0-0.20","63d1c1b521f75a8a9f14160f","D2","batch4","","null","<p class=block-text>Trial 21 out of 60</p>","null","spm_show_trial_num","","","","","","","","","","","","","","","","","","","","","","","","",""
"","","","","","image-button-response","222","513630","0.0-3.0-2.0-1.20","63d1c1b521f75a8a9f14160f","D2","batch4","","3518","img/question_2_9.jpeg","3","spm_respsonse","1","4","mat_21","","","","","","1","3518","","","","","","","","","","","","","","",""
"","","","","","html-keyboard-response","223","514694","0.0-3.0-2.0-0.21","63d1c1b521f75a8a9f14160f","D2","batch4","","null","<p class=block-text>Trial 22 out of 60</p>","null","spm_show_trial_num","","","","","","","","","","","","","","","","","","","","","","","","",""
"","","","","","image-button-response","224","518230","0.0-3.0-2.0-1.21","63d1c1b521f75a8a9f14160f","D2","batch4","","3534.600000143051","img/question_2_10.jpeg","2","spm_respsonse","1","3","mat_22","","","","","","1","3534.600000143051","","","","","","","","","","","","","","",""
"","","","","","html-keyboard-response","225","519295","0.0-3.0-2.0-0.22","63d1c1b521f75a8a9f14160f","D2","batch4","","null","<p class=block-text>Trial 23 out of 60</p>","null","spm_show_trial_num","","","","","","","","","","","","","","","","","","","","","","","","",""
"","","","","","image-button-response","226","523281","0.0-3.0-2.0-1.22","63d1c1b521f75a8a9f14160f","D2","batch4","","3984.2999999523163","img/question_2_11.jpeg","3","spm_respsonse","1","4","mat_23","","","","","","1","3984.2999999523163","","","","","","","","","","","","","","",""
"","","","","","html-keyboard-response","227","524343","0.0-3.0-2.0-0.23","63d1c1b521f75a8a9f14160f","D2","batch4","","null","<p class=block-text>Trial 24 out of 60</p>","null","spm_show_trial_num","","","","","","","","","","","","","","","","","","","","","","","","",""
"","","","","","image-button-response","228","532783","0.0-3.0-2.0-1.23","63d1c1b521f75a8a9f14160f","D2","batch4","","8438.399999856949","img/question_2_12.jpeg","4","spm_respsonse","1","5","mat_24","","","","","","1","8438.399999856949","","","","","","","","","","","","","","",""
"","","","","","html-button-response","229","535334","0.0-3.0-3.0","63d1c1b521f75a8a9f14160f","D2","batch4","","2293.800000190735","<p class = block-text>Attention check: Please choose 1<br></p>","0","attention_check","true","","","","","","","","","","","","","","","","","","","","","","","",""
"","","","","","html-keyboard-response","230","536143","0.0-3.0-4.0-0.0","63d1c1b521f75a8a9f14160f","D2","batch4","","null","<p class=block-text>Trial 25 out of 60</p>","null","spm_show_trial_num","","","","","","","","","","","","","","","","","","","","","","","","",""
"","","","","","image-button-response","231","541034","0.0-3.0-4.0-1.0","63d1c1b521f75a8a9f14160f","D2","batch4","","4889.799999952316","img/question_3_1.jpeg","7","spm_respsonse","1","8","mat_25","","","","","","1","4889.799999952316","","","","","","","","","","","","","","",""
"","","","","","html-keyboard-response","232","542093","0.0-3.0-4.0-0.1","63d1c1b521f75a8a9f14160f","D2","batch4","","null","<p class=block-text>Trial 26 out of 60</p>","null","spm_show_trial_num","","","","","","","","","","","","","","","","","","","","","","","","",""
"","","","","","image-button-response","233","548903","0.0-3.0-4.0-1.1","63d1c1b521f75a8a9f14160f","D2","batch4","","6808.599999904633","img/question_3_2.jpeg","1","spm_respsonse","1","2","mat_26","","","","","","1","6808.599999904633","","","","","","","","","","","","","","",""
"","","","","","html-keyboard-response","234","549966","0.0-3.0-4.0-0.2","63d1c1b521f75a8a9f14160f","D2","batch4","","null","<p class=block-text>Trial 27 out of 60</p>","null","spm_show_trial_num","","","","","","","","","","","","","","","","","","","","","","","","",""
"","","","","","image-button-response","235","565655","0.0-3.0-4.0-1.2","63d1c1b521f75a8a9f14160f","D2","batch4","","15687.400000095367","img/question_3_3.jpeg","2","spm_respsonse","1","3","mat_27","","","","","","1","15687.400000095367","","","","","","","","","","","","","","",""
"","","","","","html-keyboard-response","236","566718","0.0-3.0-4.0-0.3","63d1c1b521f75a8a9f14160f","D2","batch4","","null","<p class=block-text>Trial 28 out of 60</p>","null","spm_show_trial_num","","","","","","","","","","","","","","","","","","","","","","","","",""
"","","","","","image-button-response","237","581390","0.0-3.0-4.0-1.3","63d1c1b521f75a8a9f14160f","D2","batch4","","14671.5","img/question_3_4.jpeg","7","spm_respsonse","1","8","mat_28","","","","","","1","14671.5","","","","","","","","","","","","","","",""
"","","","","","html-keyboard-response","238","582452","0.0-3.0-4.0-0.4","63d1c1b521f75a8a9f14160f","D2","batch4","","null","<p class=block-text>Trial 29 out of 60</p>","null","spm_show_trial_num","","","","","","","","","","","","","","","","","","","","","","","","",""
"","","","","","image-button-response","239","586709","0.0-3.0-4.0-1.4","63d1c1b521f75a8a9f14160f","D2","batch4","","4253.599999904633","img/question_3_5.jpeg","6","spm_respsonse","1","7","mat_29","","","","","","1","4253.599999904633","","","","","","","","","","","","","","",""
"","","","","","html-keyboard-response","240","587771","0.0-3.0-4.0-0.5","63d1c1b521f75a8a9f14160f","D2","batch4","","null","<p class=block-text>Trial 30 out of 60</p>","null","spm_show_trial_num","","","","","","","","","","","","","","","","","","","","","","","","",""
"","","","","","image-button-response","241","596309","0.0-3.0-4.0-1.5","63d1c1b521f75a8a9f14160f","D2","batch4","","8536.299999952316","img/question_3_6.jpeg","3","spm_respsonse","1","4","mat_30","","","","","","1","8536.299999952316","","","","","","","","","","","","","","",""
"","","","","","html-keyboard-response","242","597371","0.0-3.0-4.0-0.6","63d1c1b521f75a8a9f14160f","D2","batch4","","null","<p class=block-text>Trial 31 out of 60</p>","null","spm_show_trial_num","","","","","","","","","","","","","","","","","","","","","","","","",""
"","","","","","image-button-response","243","607195","0.0-3.0-4.0-1.6","63d1c1b521f75a8a9f14160f","D2","batch4","","9823.699999809265","img/question_3_7.jpeg","3","spm_respsonse","0","5","mat_31","","","","","","0","9823.699999809265","","","","","","","","","","","","","","",""
"","","","","","html-keyboard-response","244","608256","0.0-3.0-4.0-0.7","63d1c1b521f75a8a9f14160f","D2","batch4","","null","<p class=block-text>Trial 32 out of 60</p>","null","spm_show_trial_num","","","","","","","","","","","","","","","","","","","","","","","","",""
"","","","","","image-button-response","245","618631","0.0-3.0-4.0-1.7","63d1c1b521f75a8a9f14160f","D2","batch4","","10373","img/question_3_8.jpeg","0","spm_respsonse","1","1","mat_32","","","","","","1","10373","","","","","","","","","","","","","","",""
"","","","","","html-keyboard-response","246","619691","0.0-3.0-4.0-0.8","63d1c1b521f75a8a9f14160f","D2","batch4","","null","<p class=block-text>Trial 33 out of 60</p>","null","spm_show_trial_num","","","","","","","","","","","","","","","","","","","","","","","","",""
"","","","","","image-button-response","247","627965","0.0-3.0-4.0-1.8","63d1c1b521f75a8a9f14160f","D2","batch4","","8272.599999904633","img/question_3_9.jpeg","6","spm_respsonse","1","7","mat_33","","","","","","1","8272.599999904633","","","","","","","","","","","","","","",""
"","","","","","html-keyboard-response","248","629026","0.0-3.0-4.0-0.9","63d1c1b521f75a8a9f14160f","D2","batch4","","null","<p class=block-text>Trial 34 out of 60</p>","null","spm_show_trial_num","","","","","","","","","","","","","","","","","","","","","","","","",""
"","","","","","image-button-response","249","635633","0.0-3.0-4.0-1.9","63d1c1b521f75a8a9f14160f","D2","batch4","","6604.700000047684","img/question_3_10.jpeg","7","spm_respsonse","0","6","mat_34","","","","","","0","6604.700000047684","","","","","","","","","","","","","","",""
"","","","","","html-keyboard-response","250","636697","0.0-3.0-4.0-0.10","63d1c1b521f75a8a9f14160f","D2","batch4","","null","<p class=block-text>Trial 35 out of 60</p>","null","spm_show_trial_num","","","","","","","","","","","","","","","","","","","","","","","","",""
"","","","","","image-button-response","251","668521","0.0-3.0-4.0-1.10","63d1c1b521f75a8a9f14160f","D2","batch4","","31823.60000014305","img/question_3_11.jpeg","5","spm_respsonse","0","1","mat_35","","","","","","0","31823.60000014305","","","","","","","","","","","","","","",""
"","","","","","html-keyboard-response","252","669584","0.0-3.0-4.0-0.11","63d1c1b521f75a8a9f14160f","D2","batch4","","null","<p class=block-text>Trial 36 out of 60</p>","null","spm_show_trial_num","","","","","","","","","","","","","","","","","","","","","","","","",""
"","","","","","image-button-response","253","676422","0.0-3.0-4.0-1.11","63d1c1b521f75a8a9f14160f","D2","batch4","","6837.400000095367","img/question_3_12.jpeg","3","spm_respsonse","0","2","mat_36","","","","","","0","6837.400000095367","","","","","","","","","","","","","","",""
"","","","","","html-keyboard-response","254","677488","0.0-3.0-4.0-0.12","63d1c1b521f75a8a9f14160f","D2","batch4","","null","<p class=block-text>Trial 37 out of 60</p>","null","spm_show_trial_num","","","","","","","","","","","","","","","","","","","","","","","","",""
"","","","","","image-button-response","255","680156","0.0-3.0-4.0-1.12","63d1c1b521f75a8a9f14160f","D2","batch4","","2665.9000000953674","img/question_4_1.jpeg","2","spm_respsonse","1","3","mat_37","","","","","","1","2665.9000000953674","","","","","","","","","","","","","","",""
"","","","","","html-keyboard-response","256","681217","0.0-3.0-4.0-0.13","63d1c1b521f75a8a9f14160f","D2","batch4","","null","<p class=block-text>Trial 38 out of 60</p>","null","spm_show_trial_num","","","","","","","","","","","","","","","","","","","","","","","","",""
"","","","","","image-button-response","257","688425","0.0-3.0-4.0-1.13","63d1c1b521f75a8a9f14160f","D2","batch4","","7207.400000095367","img/question_4_2.jpeg","3","spm_respsonse","1","4","mat_38","","","","","","1","7207.400000095367","","","","","","","","","","","","","","",""
"","","","","","html-keyboard-response","258","689484","0.0-3.0-4.0-0.14","63d1c1b521f75a8a9f14160f","D2","batch4","","null","<p class=block-text>Trial 39 out of 60</p>","null","spm_show_trial_num","","","","","","","","","","","","","","","","","","","","","","","","",""
"","","","","","image-button-response","259","697975","0.0-3.0-4.0-1.14","63d1c1b521f75a8a9f14160f","D2","batch4","","8490","img/question_4_3.jpeg","2","spm_respsonse","1","3","mat_39","","","","","","1","8490","","","","","","","","","","","","","","",""
"","","","","","html-keyboard-response","260","699040","0.0-3.0-4.0-0.15","63d1c1b521f75a8a9f14160f","D2","batch4","","null","<p class=block-text>Trial 40 out of 60</p>","null","spm_show_trial_num","","","","","","","","","","","","","","","","","","","","","","","","",""
"","","","","","image-button-response","261","707544","0.0-3.0-4.0-1.15","63d1c1b521f75a8a9f14160f","D2","batch4","","8503.200000047684","img/question_4_4.jpeg","6","spm_respsonse","1","7","mat_40","","","","","","1","8503.200000047684","","","","","","","","","","","","","","",""
"","","","","","html-keyboard-response","262","708608","0.0-3.0-4.0-0.16","63d1c1b521f75a8a9f14160f","D2","batch4","","null","<p class=block-text>Trial 41 out of 60</p>","null","spm_show_trial_num","","","","","","","","","","","","","","","","","","","","","","","","",""
"","","","","","image-button-response","263","717063","0.0-3.0-4.0-1.16","63d1c1b521f75a8a9f14160f","D2","batch4","","8453.400000095367","img/question_4_5.jpeg","7","spm_respsonse","1","8","mat_41","","","","","","1","8453.400000095367","","","","","","","","","","","","","","",""
"","","","","","html-keyboard-response","264","718127","0.0-3.0-4.0-0.17","63d1c1b521f75a8a9f14160f","D2","batch4","","null","<p class=block-text>Trial 42 out of 60</p>","null","spm_show_trial_num","","","","","","","","","","","","","","","","","","","","","","","","",""
"","","","","","image-button-response","265","726114","0.0-3.0-4.0-1.17","63d1c1b521f75a8a9f14160f","D2","batch4","","7984.799999952316","img/question_4_6.jpeg","5","spm_respsonse","1","6","mat_42","","","","","","1","7984.799999952316","","","","","","","","","","","","","","",""
"","","","","","html-keyboard-response","266","727170","0.0-3.0-4.0-0.18","63d1c1b521f75a8a9f14160f","D2","batch4","","null","<p class=block-text>Trial 43 out of 60</p>","null","spm_show_trial_num","","","","","","","","","","","","","","","","","","","","","","","","",""
"","","","","","image-button-response","267","742150","0.0-3.0-4.0-1.18","63d1c1b521f75a8a9f14160f","D2","batch4","","14979.599999904633","img/question_4_7.jpeg","4","spm_respsonse","1","5","mat_43","","","","","","1","14979.599999904633","","","","","","","","","","","","","","",""
"","","","","","html-keyboard-response","268","743214","0.0-3.0-4.0-0.19","63d1c1b521f75a8a9f14160f","D2","batch4","","null","<p class=block-text>Trial 44 out of 60</p>","null","spm_show_trial_num","","","","","","","","","","","","","","","","","","","","","","","","",""
"","","","","","image-button-response","269","752668","0.0-3.0-4.0-1.19","63d1c1b521f75a8a9f14160f","D2","batch4","","9452.400000095367","img/question_4_8.jpeg","0","spm_respsonse","0","4","mat_44","","","","","","0","9452.400000095367","","","","","","","","","","","","","","",""
"","","","","","html-keyboard-response","270","753734","0.0-3.0-4.0-0.20","63d1c1b521f75a8a9f14160f","D2","batch4","","null","<p class=block-text>Trial 45 out of 60</p>","null","spm_show_trial_num","","","","","","","","","","","","","","","","","","","","","","","","",""
"","","","","","image-button-response","271","768336","0.0-3.0-4.0-1.20","63d1c1b521f75a8a9f14160f","D2","batch4","","14601.5","img/question_4_9.jpeg","0","spm_respsonse","1","1","mat_45","","","","","","1","14601.5","","","","","","","","","","","","","","",""
"","","","","","html-keyboard-response","272","769397","0.0-3.0-4.0-0.21","63d1c1b521f75a8a9f14160f","D2","batch4","","null","<p class=block-text>Trial 46 out of 60</p>","null","spm_show_trial_num","","","","","","","","","","","","","","","","","","","","","","","","",""
"","","","","","image-button-response","273","779389","0.0-3.0-4.0-1.21","63d1c1b521f75a8a9f14160f","D2","batch4","","9990.700000047684","img/question_4_10.jpeg","1","spm_respsonse","1","2","mat_46","","","","","","1","9990.700000047684","","","","","","","","","","","","","","",""
"","","","","","html-keyboard-response","274","780448","0.0-3.0-4.0-0.22","63d1c1b521f75a8a9f14160f","D2","batch4","","null","<p class=block-text>Trial 47 out of 60</p>","null","spm_show_trial_num","","","","","","","","","","","","","","","","","","","","","","","","",""
"","","","","","image-button-response","275","799925","0.0-3.0-4.0-1.22","63d1c1b521f75a8a9f14160f","D2","batch4","","19475.89999985695","img/question_4_11.jpeg","5","spm_respsonse","0","5","mat_47","","","","","","0","19475.89999985695","","","","","","","","","","","","","","",""
"","","","","","html-keyboard-response","276","800987","0.0-3.0-4.0-0.23","63d1c1b521f75a8a9f14160f","D2","batch4","","null","<p class=block-text>Trial 48 out of 60</p>","null","spm_show_trial_num","","","","","","","","","","","","","","","","","","","","","","","","",""
"","","","","","image-button-response","277","823212","0.0-3.0-4.0-1.23","63d1c1b521f75a8a9f14160f","D2","batch4","","22223.89999985695","img/question_4_12.jpeg","7","spm_respsonse","0","6","mat_48","","","","","","0","22223.89999985695","","","","","","","","","","","","","","",""
"","","","","","html-keyboard-response","278","824274","0.0-3.0-4.0-0.24","63d1c1b521f75a8a9f14160f","D2","batch4","","null","<p class=block-text>Trial 49 out of 60</p>","null","spm_show_trial_num","","","","","","","","","","","","","","","","","","","","","","","","",""
"","","","","","image-button-response","279","836349","0.0-3.0-4.0-1.24","63d1c1b521f75a8a9f14160f","D2","batch4","","12073.299999952316","img/question_5_1.jpeg","6","spm_respsonse","1","7","mat_49","","","","","","1","12073.299999952316","","","","","","","","","","","","","","",""
"","","","","","html-keyboard-response","280","837409","0.0-3.0-4.0-0.25","63d1c1b521f75a8a9f14160f","D2","batch4","","null","<p class=block-text>Trial 50 out of 60</p>","null","spm_show_trial_num","","","","","","","","","","","","","","","","","","","","","","","","",""
"","","","","","image-button-response","281","864853","0.0-3.0-4.0-1.25","63d1c1b521f75a8a9f14160f","D2","batch4","","27443.400000095367","img/question_5_2.jpeg","2","spm_respsonse","0","6","mat_50","","","","","","0","27443.400000095367","","","","","","","","","","","","","","",""
"","","","","","html-keyboard-response","282","865913","0.0-3.0-4.0-0.26","63d1c1b521f75a8a9f14160f","D2","batch4","","null","<p class=block-text>Trial 51 out of 60</p>","null","spm_show_trial_num","","","","","","","","","","","","","","","","","","","","","","","","",""
"","","","","","image-button-response","283","881656","0.0-3.0-4.0-1.26","63d1c1b521f75a8a9f14160f","D2","batch4","","15741.400000095367","img/question_5_3.jpeg","7","spm_respsonse","1","8","mat_51","","","","","","1","15741.400000095367","","","","","","","","","","","","","","",""
"","","","","","html-keyboard-response","284","882719","0.0-3.0-4.0-0.27","63d1c1b521f75a8a9f14160f","D2","batch4","","null","<p class=block-text>Trial 52 out of 60</p>","null","spm_show_trial_num","","","","","","","","","","","","","","","","","","","","","","","","",""
"","","","","","image-button-response","285","886840","0.0-3.0-4.0-1.27","63d1c1b521f75a8a9f14160f","D2","batch4","","4118.799999952316","img/question_5_4.jpeg","2","spm_respsonse","0","2","mat_52","","","","","","0","4118.799999952316","","","","","","","","","","","","","","",""
"","","","","","html-keyboard-response","286","887904","0.0-3.0-4.0-0.28","63d1c1b521f75a8a9f14160f","D2","batch4","","null","<p class=block-text>Trial 53 out of 60</p>","null","spm_show_trial_num","","","","","","","","","","","","","","","","","","","","","","","","",""
"","","","","","image-button-response","287","903126","0.0-3.0-4.0-1.28","63d1c1b521f75a8a9f14160f","D2","batch4","","15219.400000095367","img/question_5_5.jpeg","6","spm_respsonse","0","1","mat_53","","","","","","0","15219.400000095367","","","","","","","","","","","","","","",""
"","","","","","html-keyboard-response","288","904190","0.0-3.0-4.0-0.29","63d1c1b521f75a8a9f14160f","D2","batch4","","null","<p class=block-text>Trial 54 out of 60</p>","null","spm_show_trial_num","","","","","","","","","","","","","","","","","","","","","","","","",""
"","","","","","image-button-response","289","921212","0.0-3.0-4.0-1.29","63d1c1b521f75a8a9f14160f","D2","batch4","","17020.900000095367","img/question_5_6.jpeg","6","spm_respsonse","0","5","mat_54","","","","","","0","17020.900000095367","","","","","","","","","","","","","","",""
"","","","","","html-keyboard-response","290","922279","0.0-3.0-4.0-0.30","63d1c1b521f75a8a9f14160f","D2","batch4","","null","<p class=block-text>Trial 55 out of 60</p>","null","spm_show_trial_num","","","","","","","","","","","","","","","","","","","","","","","","",""
"","","","","","image-button-response","291","944633","0.0-3.0-4.0-1.30","63d1c1b521f75a8a9f14160f","D2","batch4","","22353.5","img/question_5_7.jpeg","3","spm_respsonse","0","1","mat_55","","","","","","0","22353.5","","","","","","","","","","","","","","",""
"","","","","","html-keyboard-response","292","945694","0.0-3.0-4.0-0.31","63d1c1b521f75a8a9f14160f","D2","batch4","","null","<p class=block-text>Trial 56 out of 60</p>","null","spm_show_trial_num","","","","","","","","","","","","","","","","","","","","","","","","",""
"","","","","","image-button-response","293","960153","0.0-3.0-4.0-1.31","63d1c1b521f75a8a9f14160f","D2","batch4","","14457.799999952316","img/question_5_8.jpeg","4","spm_respsonse","0","6","mat_56","","","","","","0","14457.799999952316","","","","","","","","","","","","","","",""
"","","","","","html-keyboard-response","294","961213","0.0-3.0-4.0-0.32","63d1c1b521f75a8a9f14160f","D2","batch4","","null","<p class=block-text>Trial 57 out of 60</p>","null","spm_show_trial_num","","","","","","","","","","","","","","","","","","","","","","","","",""
"","","","","","image-button-response","295","975288","0.0-3.0-4.0-1.32","63d1c1b521f75a8a9f14160f","D2","batch4","","14074.299999952316","img/question_5_9.jpeg","0","spm_respsonse","0","3","mat_57","","","","","","0","14074.299999952316","","","","","","","","","","","","","","",""
"","","","","","html-keyboard-response","296","976356","0.0-3.0-4.0-0.33","63d1c1b521f75a8a9f14160f","D2","batch4","","null","<p class=block-text>Trial 58 out of 60</p>","null","spm_show_trial_num","","","","","","","","","","","","","","","","","","","","","","","","",""
"","","","","","image-button-response","297","985624","0.0-3.0-4.0-1.33","63d1c1b521f75a8a9f14160f","D2","batch4","","9265.799999952316","img/question_5_10.jpeg","3","spm_respsonse","0","2","mat_58","","","","","","0","9265.799999952316","","","","","","","","","","","","","","",""
"","","","","","html-keyboard-response","298","986684","0.0-3.0-4.0-0.34","63d1c1b521f75a8a9f14160f","D2","batch4","","null","<p class=block-text>Trial 59 out of 60</p>","null","spm_show_trial_num","","","","","","","","","","","","","","","","","","","","","","","","",""
"","","","","","image-button-response","299","995250","0.0-3.0-4.0-1.34","63d1c1b521f75a8a9f14160f","D2","batch4","","8564.699999809265","img/question_5_11.jpeg","2","spm_respsonse","0","4","mat_59","","","","","","0","8564.699999809265","","","","","","","","","","","","","","",""
"","","","","","html-keyboard-response","300","996315","0.0-3.0-4.0-0.35","63d1c1b521f75a8a9f14160f","D2","batch4","","null","<p class=block-text>Trial 60 out of 60</p>","null","spm_show_trial_num","","","","","","","","","","","","","","","","","","","","","","","","",""
"","","","","","image-button-response","301","1014348","0.0-3.0-4.0-1.35","63d1c1b521f75a8a9f14160f","D2","batch4","","18031.200000047684","img/question_5_12.jpeg","1","spm_respsonse","0","5","mat_60","","","","","","0","18031.200000047684","","","","","","","","","","","","","","",""
"","","","","","html-button-response","302","1017330","0.0-3.0-5.0","63d1c1b521f75a8a9f14160f","D2","batch4","","2726","<p class= block-text>This concludes the Standard Progressive Matrix game. Thank you for your responses!<br> When you are ready, click the button continue</p>","0","spm_goodbye","","","","","","","","","","","","","","","","","","","","","","","","",""
"true","","","","","fullscreen","303","1020250","0.0-4.0-0.0","63d1c1b521f75a8a9f14160f","D2","batch4","","","","","","","","","","","","","","","","","","","","","","","","","","","","","",""
"","","","","","instructions","304","1070859","0.0-4.0-1.0-0.0-0.0","63d1c1b521f75a8a9f14160f","D2","batch4","[{""page_index"":0,""viewing_time"":10699.299999952316},{""page_index"":1,""viewing_time"":5601.099999904633},{""page_index"":2,""viewing_time"":3982.800000190735},{""page_index"":3,""viewing_time"":9636.699999809265},{""page_index"":4,""viewing_time"":6551.5},{""page_index"":5,""viewing_time"":10419.600000143051},{""page_index"":6,""viewing_time"":3719.7999999523163}]","50611","","","tol-instructions","","","","","","","","","","","","","","","","","","","","","","","","",""
"","","","","","html-button-response","305","1072586","0.0-4.0-1.0-1.0-0.0","63d1c1b521f75a8a9f14160f","D2","batch4","","1726","<p class=block-text> Let's answer a few questions <br>","0","tol_enter_quiz","","","","","","","","","","","","","","","","","","","","","","","","",""
"","","","","","html-button-response","306","1076192","0.0-4.0-1.0-1.0-1.0","63d1c1b521f75a8a9f14160f","D2","batch4","","3602.2999999523163","<p class = block-text>True or False: You can only move the ball on top of a peg. <br></p>","0","tol_quiz","true","","","","","","","","","","","","","","","","","","","","","","","",""
"","","","","","html-button-response","307","1077792","0.0-4.0-1.0-1.0-2.0","63d1c1b521f75a8a9f14160f","D2","batch4","","1598.5999999046326","<p class = block-text>Correct! You can only move the ball on top of a peg.</p>","0","tol_quiz_feedback","","","","","","","","","","","","","","","","","","","","","","","","",""
"","","","","","html-button-response","308","1083756","0.0-4.0-1.0-1.0-3.0","63d1c1b521f75a8a9f14160f","D2","batch4","","5967.5","<p class = block-text>True or False: You should try to match your board with the target board with fewest moves possible. <br></p>","0","tol_quiz","true","","","","","","","","","","","","","","","","","","","","","","","",""
"","","","","","html-button-response","309","1085056","0.0-4.0-1.0-1.0-4.0","63d1c1b521f75a8a9f14160f","D2","batch4","","1299.7999999523163","<p class = block-text>Correct! </p>","0","tol_quiz_feedback","","","","","","","","","","","","","","","","","","","","","","","","",""
"","","","","","html-button-response","310","1087139","0.0-4.0-2.0","63d1c1b521f75a8a9f14160f","D2","batch4","","2082.100000143051","<p class=block-text> Now that you've understood the game, let's practice a few easier examples before we start!<br> <br>","0","","","","","","","","","","","","","","","","","","","","","","","","","",""
"","","","","","single-stim-button","311","1089523","0.0-4.0-3.0-0.0","63d1c1b521f75a8a9f14160f","D2","batch4","","2382","","","tol_practice","","","","","","","","","","","tol_peg_2","2382","2382","0","[[1,2,0],[0,0],[0]]","1","[[1,2,0],[0,0],[3]]","practice","2382","","","","","",""
"","","","","","single-stim-button","312","1090672","0.0-4.0-3.0-1.0","63d1c1b521f75a8a9f14160f","D2","batch4","","1148","","","tol_practice","","","","","","","","","","","tol_peg_3","1148","1148","0","[[1,2,0],[0,0],[3]]","1","[[1,2,0],[0,0],[3]]","practice","1148","","","","","",""
"","","","","","poldrack-single-stim","313","1091680","0.0-4.0-4.0","63d1c1b521f75a8a9f14160f","D2","batch4","","-1","","","tol_feedback","true","","","","","","","","","","","1000","1000","500","","","","","","-1","none","true","","0",""
"","","","","","single-stim-button","314","1095455","0.0-4.0-5.0-0.0","63d1c1b521f75a8a9f14160f","D2","batch4","","3774","","","tol_practice","","","","","","","","","","","tol_peg_1","3774","3774","0","[[1,0,0],[3,0],[0]]","2","[[0,0,0],[3,1],[2]]","practice","3774","","","","","",""
"","","","","","single-stim-button","315","1097237","0.0-4.0-5.0-1.0","63d1c1b521f75a8a9f14160f","D2","batch4","","1781","","","tol_practice","","","","","","","","","","","tol_peg_3","1781","1781","0","[[1,0,0],[3,0],[2]]","2","[[0,0,0],[3,1],[2]]","practice","1781","","","","","",""
"","","","","","single-stim-button","316","1098188","0.0-4.0-5.1-0.1","63d1c1b521f75a8a9f14160f","D2","batch4","","950","","","tol_practice","","","","","","","","","","","tol_peg_1","950","950","0","[[0,0,0],[3,0],[2]]","3","[[0,0,0],[3,1],[2]]","practice","950","","","","","",""
"","","","","","single-stim-button","317","1099520","0.0-4.0-5.1-1.1","63d1c1b521f75a8a9f14160f","D2","batch4","","1331","","","tol_practice","","","","","","","","","","","tol_peg_2","1331","1331","0","[[0,0,0],[3,1],[2]]","3","[[0,0,0],[3,1],[2]]","practice","1331","","","","","",""
"","","","","","poldrack-single-stim","318","1100526","0.0-4.0-6.0","63d1c1b521f75a8a9f14160f","D2","batch4","","-1","","","tol_feedback","true","","","","","","","","","","","1000","1000","500","","","","","","-1","none","true","","0",""
"","","","","","single-stim-button","319","1103387","0.0-4.0-7.0-0.0","63d1c1b521f75a8a9f14160f","D2","batch4","","2861","","","tol_practice","","","","","","","","","","","tol_peg_2","2861","2861","0","[[1,2,0],[0,0],[0]]","4","[[1,0,0],[2,0],[3]]","practice","2861","","","","","",""
"","","","","","single-stim-button","320","1104819","0.0-4.0-7.0-1.0","63d1c1b521f75a8a9f14160f","D2","batch4","","1431","","","tol_practice","","","","","","","","","","","tol_peg_3","1431","1431","0","[[1,2,0],[0,0],[3]]","4","[[1,0,0],[2,0],[3]]","practice","1431","","","","","",""
"","","","","","single-stim-button","321","1106039","0.0-4.0-7.1-0.1","63d1c1b521f75a8a9f14160f","D2","batch4","","1218","","","tol_practice","","","","","","","","","","","tol_peg_1","1218","1218","0","[[1,0,0],[0,0],[3]]","5","[[1,0,0],[2,0],[3]]","practice","1218","","","","","",""
"","","","","","single-stim-button","322","1107655","0.0-4.0-7.1-1.1","63d1c1b521f75a8a9f14160f","D2","batch4","","1616","","","tol_practice","","","","","","","","","","","tol_peg_2","1616","1616","0","[[1,0,0],[2,0],[3]]","5","[[1,0,0],[2,0],[3]]","practice","1616","","","","","",""
"","","","","","poldrack-single-stim","323","1108660","0.0-4.0-8.0","63d1c1b521f75a8a9f14160f","D2","batch4","","-1","","","tol_feedback","true","","","","","","","","","","","1000","1000","500","","","","","","-1","none","true","","0",""
"","","","","","html-button-response","324","1111220","0.0-4.0-9.0","63d1c1b521f75a8a9f14160f","D2","batch4","","2560.100000143051","<div class = centerbox><p class = center-block-text>Great job! You are done with practice trials<br>You are about to start official trials.<br> <br> Problem <strong>1</strong> out of 25 problems</p></div>","0","tol_instruction","","","","","","","","","","","","","","","","","","","","","","","","",""
"","","","","","single-stim-button","325","1118654","0.0-4.0-10.0-0.0","63d1c1b521f75a8a9f14160f","D2","batch4","","6426","","","tol_tohand","","","","","","","","","","","tol_peg_2","6426","6426","0","[[1,2,0],[0,0],[0]]","1","[[1,3,0],[2,0],[0]]","0","0","","","","","","3"
"","","","","","single-stim-button","326","1119888","0.0-4.0-10.0-1.0","63d1c1b521f75a8a9f14160f","D2","batch4","","1233","","","tol_toboard","","","","","","","","","","","tol_peg_3","1233","1233","0","[[1,2,0],[0,0],[3]]","1","[[1,3,0],[2,0],[0]]","0","0","","","","","","3"
"","","","","","single-stim-button","327","1121090","0.0-4.0-10.1-0.1","63d1c1b521f75a8a9f14160f","D2","batch4","","1201","","","tol_tohand","","","","","","","","","","","tol_peg_1","1201","1201","0","[[1,0,0],[0,0],[3]]","2","[[1,3,0],[2,0],[0]]","0","0","","","","","","3"
"","","","","","single-stim-button","328","1122489","0.0-4.0-10.1-1.1","63d1c1b521f75a8a9f14160f","D2","batch4","","1397","","","tol_toboard","","","","","","","","","","","tol_peg_2","1397","1397","0","[[1,0,0],[2,0],[3]]","2","[[1,3,0],[2,0],[0]]","0","0","","","","","","3"
"","","","","","single-stim-button","329","1123504","0.0-4.0-10.2-0.2","63d1c1b521f75a8a9f14160f","D2","batch4","","1015","","","tol_tohand","","","","","","","","","","","tol_peg_3","1015","1015","0","[[1,0,0],[2,0],[0]]","3","[[1,3,0],[2,0],[0]]","0","0","","","","","","3"
"","","","","","single-stim-button","330","1124558","0.0-4.0-10.2-1.2","63d1c1b521f75a8a9f14160f","D2","batch4","","1053","","","tol_toboard","","","","","","","","","","","tol_peg_1","1053","1053","0","[[1,3,0],[2,0],[0]]","3","[[1,3,0],[2,0],[0]]","0","0","","","","","","3"
"","","","","","poldrack-single-stim","331","1125562","0.0-4.0-11.0","63d1c1b521f75a8a9f14160f","D2","batch4","","-1","","","tol_feedback","true","","","","","","","","","","","1000","1000","500","","","","","","-1","none","true","6426","8642",""
"","","","","","html-button-response","332","1126671","0.0-4.0-12.0","63d1c1b521f75a8a9f14160f","D2","batch4","","1108.0999999046326","<div class = centerbox><p class = center-block-text>problem <strong>2</strong> out of 25 problems</p></div>","0","tol_trial_num","","","","","","","","","","","","","","","","","","","","","","","","",""
"","","","","","single-stim-button","333","1134539","0.0-4.0-13.0-0.0","63d1c1b521f75a8a9f14160f","D2","batch4","","7867","","","tol_tohand","","","","","","","","","","","tol_peg_1","7867","7867","0","[[1,0,0],[3,0],[0]]","1","[[2,1,3],[0,0],[0]]","1","0","","","","","","5"
"","","","","","single-stim-button","334","1135773","0.0-4.0-13.0-1.0","63d1c1b521f75a8a9f14160f","D2","batch4","","1233","","","tol_toboard","","","","","","","","","","","tol_peg_3","1233","1233","0","[[1,0,0],[3,0],[2]]","1","[[2,1,3],[0,0],[0]]","1","0","","","","","","5"
"","","","","","single-stim-button","335","1136689","0.0-4.0-13.1-0.1","63d1c1b521f75a8a9f14160f","D2","batch4","","915","","","tol_tohand","","","","","","","","","","","tol_peg_1","915","915","0","[[0,0,0],[3,0],[2]]","2","[[2,1,3],[0,0],[0]]","1","0","","","","","","5"
"","","","","","single-stim-button","336","1139506","0.0-4.0-13.1-1.1","63d1c1b521f75a8a9f14160f","D2","batch4","","2816","","","tol_toboard","","","","","","","","","","","tol_peg_2","2816","2816","0","[[0,0,0],[3,1],[2]]","2","[[2,1,3],[0,0],[0]]","1","0","","","","","","5"
"","","","","","single-stim-button","337","1140256","0.0-4.0-13.2-0.2","63d1c1b521f75a8a9f14160f","D2","batch4","","750","","","tol_tohand","","","","","","","","","","","tol_peg_3","750","750","0","[[0,0,0],[3,1],[0]]","3","[[2,1,3],[0,0],[0]]","1","0","","","","","","5"
"","","","","","single-stim-button","338","1141307","0.0-4.0-13.2-1.2","63d1c1b521f75a8a9f14160f","D2","batch4","","1050","","","tol_toboard","","","","","","","","","","","tol_peg_1","1050","1050","0","[[2,0,0],[3,1],[0]]","3","[[2,1,3],[0,0],[0]]","1","0","","","","","","5"
"","","","","","single-stim-button","339","1142059","0.0-4.0-13.3-0.3","63d1c1b521f75a8a9f14160f","D2","batch4","","750","","","tol_tohand","","","","","","","","","","","tol_peg_2","750","750","0","[[2,0,0],[3,0],[0]]","4","[[2,1,3],[0,0],[0]]","1","0","","","","","","5"
"","","","","","single-stim-button","340","1143006","0.0-4.0-13.3-1.3","63d1c1b521f75a8a9f14160f","D2","batch4","","947","","","tol_toboard","","","","","","","","","","","tol_peg_1","947","947","0","[[2,1,0],[3,0],[0]]","4","[[2,1,3],[0,0],[0]]","1","0","","","","","","5"
"","","","","","single-stim-button","341","1143624","0.0-4.0-13.4-0.4","63d1c1b521f75a8a9f14160f","D2","batch4","","617","","","tol_tohand","","","","","","","","","","","tol_peg_2","617","617","0","[[2,1,0],[0,0],[0]]","5","[[2,1,3],[0,0],[0]]","1","0","","","","","","5"
"","","","","","single-stim-button","342","1144490","0.0-4.0-13.4-1.4","63d1c1b521f75a8a9f14160f","D2","batch4","","865","","","tol_toboard","","","","","","","","","","","tol_peg_1","865","865","0","[[2,1,3],[0,0],[0]]","5","[[2,1,3],[0,0],[0]]","1","0","","","","","","5"
"","","","","","poldrack-single-stim","343","1145496","0.0-4.0-14.0","63d1c1b521f75a8a9f14160f","D2","batch4","","-1","","","tol_feedback","true","","","","","","","","","","","1000","1000","500","","","","","","-1","none","true","7867","10899",""
"","","","","","html-button-response","344","1146641","0.0-4.0-15.0","63d1c1b521f75a8a9f14160f","D2","batch4","","1144","<div class = centerbox><p class = center-block-text>problem <strong>3</strong> out of 25 problems</p></div>","0","tol_trial_num","","","","","","","","","","","","","","","","","","","","","","","","",""
"","","","","","single-stim-button","345","1151844","0.0-4.0-16.0-0.0","63d1c1b521f75a8a9f14160f","D2","batch4","","5202","","","tol_tohand","","","","","","","","","","","tol_peg_1","5202","5202","0","[[2,0,0],[0,0],[1]]","1","[[1,2,0],[3,0],[0]]","2","0","","","","","","4"
"","","","","","single-stim-button","346","1153159","0.0-4.0-16.0-1.0","63d1c1b521f75a8a9f14160f","D2","batch4","","1313","","","tol_toboard","","","","","","","","","","","tol_peg_2","1313","1313","0","[[2,0,0],[3,0],[1]]","1","[[1,2,0],[3,0],[0]]","2","0","","","","","","4"
"","","","","","single-stim-button","347","1154659","0.0-4.0-16.1-0.1","63d1c1b521f75a8a9f14160f","D2","batch4","","1498","","","tol_tohand","","","","","","","","","","","tol_peg_1","1498","1498","0","[[0,0,0],[3,0],[1]]","2","[[1,2,0],[3,0],[0]]","2","0","","","","","","4"
