"success","timeout","failed_images","failed_audio","failed_video","trial_type","trial_index","time_elapsed","internal_node_id","subject_id","study_id","session_id","task","rt","stimulus","response","item","answer","correct","spm_correct","spm_rt","view_history","fiar_detect_rt","fiar_detect_correct","total_correct_fiar_detect","post_trial_gap","choices","mouse_click","stim_duration","block_duration","timing_post_trial","current_position","tol_num_moves_made","tol_target","tol_problem_id","tol_rt","key_press","possible_responses","tol_correct","preplanning","tol_rt_per_trial","tol_min_moves"
"true","false","[]","[]","[]","preload","0","1027","0.0-0.0","63d143b0a7426abcb7905b7e","B2","batch2","","","","","","","","","","","","","","","","","","","","","","","","","","","","","",""
"true","","","","","fullscreen","1","8287","0.0-1.0-0.0","63d143b0a7426abcb7905b7e","B2","batch2","","","","","","","","","","","","","","","","","","","","","","","","","","","","","",""
"true","","","","","fullscreen","2","12031","0.0-2.0-0.0","63d143b0a7426abcb7905b7e","B2","batch2","spm_fullscreen","","","","","","","","","","","","","","","","","","","","","","","","","","","","",""
"","","","","","html-button-response","3","19118","0.0-2.0-1.0","63d143b0a7426abcb7905b7e","B2","batch2","","7087","<p class = block-text><b>Instructions</b> <br>This is a widely used intelligence test in research. <br>In this test, a figure with a missing piece will be presented.<br>Below the figure are alternative pieces to complete the figure, only one of which is correct.<br> Different figures might involve different principles for obtaining the missing piece<br>Your job is to select the most logical piece to complete the figure.</p>","0","","","","","","","","","","","","","","","","","","","","","","","","","",""
"","","","","","html-keyboard-response","4","19923","0.0-2.0-2.0-0.0","63d143b0a7426abcb7905b7e","B2","batch2","spm_show_trial_num","null","<p class=block-text>Trial 1 out of 60</p>","null","","","","","","","","","","","","","","","","","","","","","","","","","",""
"","","","","","image-button-response","5","22986","0.0-2.0-2.0-1.0","63d143b0a7426abcb7905b7e","B2","batch2","spm_respsonse","3055","img/question_1_1.jpeg","3","mat_01","4","1","1","3055","","","","","","","","","","","","","","","","","","","","",""
"","","","","","html-keyboard-response","6","24051","0.0-2.0-2.0-0.1","63d143b0a7426abcb7905b7e","B2","batch2","spm_show_trial_num","null","<p class=block-text>Trial 2 out of 60</p>","null","","","","","","","","","","","","","","","","","","","","","","","","","",""
"","","","","","image-button-response","7","25872","0.0-2.0-2.0-1.1","63d143b0a7426abcb7905b7e","B2","batch2","spm_respsonse","1819","img/question_1_2.jpeg","4","mat_02","5","1","1","1819","","","","","","","","","","","","","","","","","","","","",""
"","","","","","html-keyboard-response","8","26940","0.0-2.0-2.0-0.2","63d143b0a7426abcb7905b7e","B2","batch2","spm_show_trial_num","null","<p class=block-text>Trial 3 out of 60</p>","null","","","","","","","","","","","","","","","","","","","","","","","","","",""
"","","","","","image-button-response","9","29638","0.0-2.0-2.0-1.2","63d143b0a7426abcb7905b7e","B2","batch2","spm_respsonse","2697","img/question_1_3.jpeg","0","mat_03","1","1","1","2697","","","","","","","","","","","","","","","","","","","","",""
"","","","","","html-keyboard-response","10","30699","0.0-2.0-2.0-0.3","63d143b0a7426abcb7905b7e","B2","batch2","spm_show_trial_num","null","<p class=block-text>Trial 4 out of 60</p>","null","","","","","","","","","","","","","","","","","","","","","","","","","",""
"","","","","","image-button-response","11","32664","0.0-2.0-2.0-1.3","63d143b0a7426abcb7905b7e","B2","batch2","spm_respsonse","1963","img/question_1_4.jpeg","1","mat_04","2","1","1","1963","","","","","","","","","","","","","","","","","","","","",""
"","","","","","html-keyboard-response","12","33734","0.0-2.0-2.0-0.4","63d143b0a7426abcb7905b7e","B2","batch2","spm_show_trial_num","null","<p class=block-text>Trial 5 out of 60</p>","null","","","","","","","","","","","","","","","","","","","","","","","","","",""
"","","","","","image-button-response","13","36746","0.0-2.0-2.0-1.4","63d143b0a7426abcb7905b7e","B2","batch2","spm_respsonse","3011","img/question_1_5.jpeg","5","mat_05","6","1","1","3011","","","","","","","","","","","","","","","","","","","","",""
"","","","","","html-keyboard-response","14","37814","0.0-2.0-2.0-0.5","63d143b0a7426abcb7905b7e","B2","batch2","spm_show_trial_num","null","<p class=block-text>Trial 6 out of 60</p>","null","","","","","","","","","","","","","","","","","","","","","","","","","",""
"","","","","","image-button-response","15","40362","0.0-2.0-2.0-1.5","63d143b0a7426abcb7905b7e","B2","batch2","spm_respsonse","2547","img/question_1_6.jpeg","2","mat_06","3","1","1","2547","","","","","","","","","","","","","","","","","","","","",""
"","","","","","html-keyboard-response","16","41425","0.0-2.0-2.0-0.6","63d143b0a7426abcb7905b7e","B2","batch2","spm_show_trial_num","null","<p class=block-text>Trial 7 out of 60</p>","null","","","","","","","","","","","","","","","","","","","","","","","","","",""
"","","","","","image-button-response","17","44184","0.0-2.0-2.0-1.6","63d143b0a7426abcb7905b7e","B2","batch2","spm_respsonse","2758","img/question_1_7.jpeg","5","mat_07","6","1","1","2758","","","","","","","","","","","","","","","","","","","","",""
"","","","","","html-keyboard-response","18","45250","0.0-2.0-2.0-0.7","63d143b0a7426abcb7905b7e","B2","batch2","spm_show_trial_num","null","<p class=block-text>Trial 8 out of 60</p>","null","","","","","","","","","","","","","","","","","","","","","","","","","",""
"","","","","","image-button-response","19","50450","0.0-2.0-2.0-1.7","63d143b0a7426abcb7905b7e","B2","batch2","spm_respsonse","5199","img/question_1_8.jpeg","1","mat_08","2","1","1","5199","","","","","","","","","","","","","","","","","","","","",""
"","","","","","html-keyboard-response","20","51517","0.0-2.0-2.0-0.8","63d143b0a7426abcb7905b7e","B2","batch2","spm_show_trial_num","null","<p class=block-text>Trial 9 out of 60</p>","null","","","","","","","","","","","","","","","","","","","","","","","","","",""
"","","","","","image-button-response","21","54532","0.0-2.0-2.0-1.8","63d143b0a7426abcb7905b7e","B2","batch2","spm_respsonse","3015","img/question_1_9.jpeg","0","mat_09","1","1","1","3015","","","","","","","","","","","","","","","","","","","","",""
"","","","","","html-keyboard-response","22","55597","0.0-2.0-2.0-0.9","63d143b0a7426abcb7905b7e","B2","batch2","spm_show_trial_num","null","<p class=block-text>Trial 10 out of 60</p>","null","","","","","","","","","","","","","","","","","","","","","","","","","",""
"","","","","","image-button-response","23","59135","0.0-2.0-2.0-1.9","63d143b0a7426abcb7905b7e","B2","batch2","spm_respsonse","3536","img/question_1_10.jpeg","2","mat_10","3","1","1","3536","","","","","","","","","","","","","","","","","","","","",""
"","","","","","html-keyboard-response","24","60205","0.0-2.0-2.0-0.10","63d143b0a7426abcb7905b7e","B2","batch2","spm_show_trial_num","null","<p class=block-text>Trial 11 out of 60</p>","null","","","","","","","","","","","","","","","","","","","","","","","","","",""
"","","","","","image-button-response","25","64830","0.0-2.0-2.0-1.10","63d143b0a7426abcb7905b7e","B2","batch2","spm_respsonse","4625","img/question_1_11.jpeg","3","mat_11","4","1","1","4625","","","","","","","","","","","","","","","","","","","","",""
"","","","","","html-keyboard-response","26","65899","0.0-2.0-2.0-0.11","63d143b0a7426abcb7905b7e","B2","batch2","spm_show_trial_num","null","<p class=block-text>Trial 12 out of 60</p>","null","","","","","","","","","","","","","","","","","","","","","","","","","",""
"","","","","","image-button-response","27","71001","0.0-2.0-2.0-1.11","63d143b0a7426abcb7905b7e","B2","batch2","spm_respsonse","5100","img/question_1_12.jpeg","5","mat_12","5","0","0","5100","","","","","","","","","","","","","","","","","","","","",""
"","","","","","html-keyboard-response","28","72066","0.0-2.0-2.0-0.12","63d143b0a7426abcb7905b7e","B2","batch2","spm_show_trial_num","null","<p class=block-text>Trial 13 out of 60</p>","null","","","","","","","","","","","","","","","","","","","","","","","","","",""
"","","","","","image-button-response","29","73607","0.0-2.0-2.0-1.12","63d143b0a7426abcb7905b7e","B2","batch2","spm_respsonse","1538","img/question_2_1.jpeg","1","mat_13","2","1","1","1538","","","","","","","","","","","","","","","","","","","","",""
"","","","","","html-keyboard-response","30","74672","0.0-2.0-2.0-0.13","63d143b0a7426abcb7905b7e","B2","batch2","spm_show_trial_num","null","<p class=block-text>Trial 14 out of 60</p>","null","","","","","","","","","","","","","","","","","","","","","","","","","",""
"","","","","","image-button-response","31","81664","0.0-2.0-2.0-1.13","63d143b0a7426abcb7905b7e","B2","batch2","spm_respsonse","6990","img/question_2_2.jpeg","5","mat_14","6","1","1","6990","","","","","","","","","","","","","","","","","","","","",""
"","","","","","html-keyboard-response","32","82729","0.0-2.0-2.0-0.14","63d143b0a7426abcb7905b7e","B2","batch2","spm_show_trial_num","null","<p class=block-text>Trial 15 out of 60</p>","null","","","","","","","","","","","","","","","","","","","","","","","","","",""
"","","","","","image-button-response","33","85176","0.0-2.0-2.0-1.14","63d143b0a7426abcb7905b7e","B2","batch2","spm_respsonse","2445","img/question_2_3.jpeg","0","mat_15","1","1","1","2445","","","","","","","","","","","","","","","","","","","","",""
"","","","","","html-keyboard-response","34","86244","0.0-2.0-2.0-0.15","63d143b0a7426abcb7905b7e","B2","batch2","spm_show_trial_num","null","<p class=block-text>Trial 16 out of 60</p>","null","","","","","","","","","","","","","","","","","","","","","","","","","",""
"","","","","","image-button-response","35","88799","0.0-2.0-2.0-1.15","63d143b0a7426abcb7905b7e","B2","batch2","spm_respsonse","2554","img/question_2_4.jpeg","1","mat_16","2","1","1","2554","","","","","","","","","","","","","","","","","","","","",""
"","","","","","html-keyboard-response","36","89862","0.0-2.0-2.0-0.16","63d143b0a7426abcb7905b7e","B2","batch2","spm_show_trial_num","null","<p class=block-text>Trial 17 out of 60</p>","null","","","","","","","","","","","","","","","","","","","","","","","","","",""
"","","","","","image-button-response","37","94306","0.0-2.0-2.0-1.16","63d143b0a7426abcb7905b7e","B2","batch2","spm_respsonse","4442","img/question_2_5.jpeg","0","mat_17","1","1","1","4442","","","","","","","","","","","","","","","","","","","","",""
"","","","","","html-keyboard-response","38","95367","0.0-2.0-2.0-0.17","63d143b0a7426abcb7905b7e","B2","batch2","spm_show_trial_num","null","<p class=block-text>Trial 18 out of 60</p>","null","","","","","","","","","","","","","","","","","","","","","","","","","",""
"","","","","","image-button-response","39","97714","0.0-2.0-2.0-1.17","63d143b0a7426abcb7905b7e","B2","batch2","spm_respsonse","2345","img/question_2_6.jpeg","2","mat_18","3","1","1","2345","","","","","","","","","","","","","","","","","","","","",""
"","","","","","html-keyboard-response","40","98778","0.0-2.0-2.0-0.18","63d143b0a7426abcb7905b7e","B2","batch2","spm_show_trial_num","null","<p class=block-text>Trial 19 out of 60</p>","null","","","","","","","","","","","","","","","","","","","","","","","","","",""
"","","","","","image-button-response","41","101763","0.0-2.0-2.0-1.18","63d143b0a7426abcb7905b7e","B2","batch2","spm_respsonse","2983","img/question_2_7.jpeg","4","mat_19","5","1","1","2983","","","","","","","","","","","","","","","","","","","","",""
"","","","","","html-keyboard-response","42","102827","0.0-2.0-2.0-0.19","63d143b0a7426abcb7905b7e","B2","batch2","spm_show_trial_num","null","<p class=block-text>Trial 20 out of 60</p>","null","","","","","","","","","","","","","","","","","","","","","","","","","",""
"","","","","","image-button-response","43","106342","0.0-2.0-2.0-1.19","63d143b0a7426abcb7905b7e","B2","batch2","spm_respsonse","3513","img/question_2_8.jpeg","5","mat_20","6","1","1","3513","","","","","","","","","","","","","","","","","","","","",""
"","","","","","html-keyboard-response","44","107407","0.0-2.0-2.0-0.20","63d143b0a7426abcb7905b7e","B2","batch2","spm_show_trial_num","null","<p class=block-text>Trial 21 out of 60</p>","null","","","","","","","","","","","","","","","","","","","","","","","","","",""
"","","","","","image-button-response","45","110242","0.0-2.0-2.0-1.20","63d143b0a7426abcb7905b7e","B2","batch2","spm_respsonse","2834","img/question_2_9.jpeg","3","mat_21","4","1","1","2834","","","","","","","","","","","","","","","","","","","","",""
"","","","","","html-keyboard-response","46","111303","0.0-2.0-2.0-0.21","63d143b0a7426abcb7905b7e","B2","batch2","spm_show_trial_num","null","<p class=block-text>Trial 22 out of 60</p>","null","","","","","","","","","","","","","","","","","","","","","","","","","",""
"","","","","","image-button-response","47","114625","0.0-2.0-2.0-1.21","63d143b0a7426abcb7905b7e","B2","batch2","spm_respsonse","3321","img/question_2_10.jpeg","2","mat_22","3","1","1","3321","","","","","","","","","","","","","","","","","","","","",""
"","","","","","html-keyboard-response","48","115687","0.0-2.0-2.0-0.22","63d143b0a7426abcb7905b7e","B2","batch2","spm_show_trial_num","null","<p class=block-text>Trial 23 out of 60</p>","null","","","","","","","","","","","","","","","","","","","","","","","","","",""
"","","","","","image-button-response","49","119981","0.0-2.0-2.0-1.22","63d143b0a7426abcb7905b7e","B2","batch2","spm_respsonse","4292","img/question_2_11.jpeg","4","mat_23","4","0","0","4292","","","","","","","","","","","","","","","","","","","","",""
"","","","","","html-keyboard-response","50","121045","0.0-2.0-2.0-0.23","63d143b0a7426abcb7905b7e","B2","batch2","spm_show_trial_num","null","<p class=block-text>Trial 24 out of 60</p>","null","","","","","","","","","","","","","","","","","","","","","","","","","",""
"","","","","","image-button-response","51","126406","0.0-2.0-2.0-1.23","63d143b0a7426abcb7905b7e","B2","batch2","spm_respsonse","5358","img/question_2_12.jpeg","5","mat_24","5","0","0","5358","","","","","","","","","","","","","","","","","","","","",""
"","","","","","html-button-response","52","128449","0.0-2.0-3.0","63d143b0a7426abcb7905b7e","B2","batch2","attention_check","1785","<p class = block-text>Attention check: Please choose 1<br></p>","0","","","true","","","","","","","","","","","","","","","","","","","","","","",""
"","","","","","html-keyboard-response","53","129257","0.0-2.0-4.0-0.0","63d143b0a7426abcb7905b7e","B2","batch2","spm_show_trial_num","null","<p class=block-text>Trial 25 out of 60</p>","null","","","","","","","","","","","","","","","","","","","","","","","","","",""
"","","","","","image-button-response","54","135883","0.0-2.0-4.0-1.0","63d143b0a7426abcb7905b7e","B2","batch2","spm_respsonse","6624","img/question_3_1.jpeg","7","mat_25","8","1","1","6624","","","","","","","","","","","","","","","","","","","","",""
"","","","","","html-keyboard-response","55","136950","0.0-2.0-4.0-0.1","63d143b0a7426abcb7905b7e","B2","batch2","spm_show_trial_num","null","<p class=block-text>Trial 26 out of 60</p>","null","","","","","","","","","","","","","","","","","","","","","","","","","",""
"","","","","","image-button-response","56","143926","0.0-2.0-4.0-1.1","63d143b0a7426abcb7905b7e","B2","batch2","spm_respsonse","6974","img/question_3_2.jpeg","1","mat_26","2","1","1","6974","","","","","","","","","","","","","","","","","","","","",""
"","","","","","html-keyboard-response","57","144988","0.0-2.0-4.0-0.2","63d143b0a7426abcb7905b7e","B2","batch2","spm_show_trial_num","null","<p class=block-text>Trial 27 out of 60</p>","null","","","","","","","","","","","","","","","","","","","","","","","","","",""
"","","","","","image-button-response","58","148582","0.0-2.0-4.0-1.2","63d143b0a7426abcb7905b7e","B2","batch2","spm_respsonse","3592","img/question_3_3.jpeg","2","mat_27","3","1","1","3592","","","","","","","","","","","","","","","","","","","","",""
"","","","","","html-keyboard-response","59","149645","0.0-2.0-4.0-0.3","63d143b0a7426abcb7905b7e","B2","batch2","spm_show_trial_num","null","<p class=block-text>Trial 28 out of 60</p>","null","","","","","","","","","","","","","","","","","","","","","","","","","",""
"","","","","","image-button-response","60","153632","0.0-2.0-4.0-1.3","63d143b0a7426abcb7905b7e","B2","batch2","spm_respsonse","3985","img/question_3_4.jpeg","7","mat_28","8","1","1","3985","","","","","","","","","","","","","","","","","","","","",""
"","","","","","html-keyboard-response","61","154696","0.0-2.0-4.0-0.4","63d143b0a7426abcb7905b7e","B2","batch2","spm_show_trial_num","null","<p class=block-text>Trial 29 out of 60</p>","null","","","","","","","","","","","","","","","","","","","","","","","","","",""
"","","","","","image-button-response","62","158912","0.0-2.0-4.0-1.4","63d143b0a7426abcb7905b7e","B2","batch2","spm_respsonse","4213","img/question_3_5.jpeg","6","mat_29","7","1","1","4213","","","","","","","","","","","","","","","","","","","","",""
"","","","","","html-keyboard-response","63","159971","0.0-2.0-4.0-0.5","63d143b0a7426abcb7905b7e","B2","batch2","spm_show_trial_num","null","<p class=block-text>Trial 30 out of 60</p>","null","","","","","","","","","","","","","","","","","","","","","","","","","",""
"","","","","","image-button-response","64","163570","0.0-2.0-4.0-1.5","63d143b0a7426abcb7905b7e","B2","batch2","spm_respsonse","3597","img/question_3_6.jpeg","3","mat_30","4","1","1","3597","","","","","","","","","","","","","","","","","","","","",""
"","","","","","html-keyboard-response","65","164636","0.0-2.0-4.0-0.6","63d143b0a7426abcb7905b7e","B2","batch2","spm_show_trial_num","null","<p class=block-text>Trial 31 out of 60</p>","null","","","","","","","","","","","","","","","","","","","","","","","","","",""
"","","","","","image-button-response","66","168944","0.0-2.0-4.0-1.6","63d143b0a7426abcb7905b7e","B2","batch2","spm_respsonse","4306","img/question_3_7.jpeg","4","mat_31","5","1","1","4306","","","","","","","","","","","","","","","","","","","","",""
"","","","","","html-keyboard-response","67","170003","0.0-2.0-4.0-0.7","63d143b0a7426abcb7905b7e","B2","batch2","spm_show_trial_num","null","<p class=block-text>Trial 32 out of 60</p>","null","","","","","","","","","","","","","","","","","","","","","","","","","",""
"","","","","","image-button-response","68","178041","0.0-2.0-4.0-1.7","63d143b0a7426abcb7905b7e","B2","batch2","spm_respsonse","8036","img/question_3_8.jpeg","0","mat_32","1","1","1","8036","","","","","","","","","","","","","","","","","","","","",""
"","","","","","html-keyboard-response","69","179106","0.0-2.0-4.0-0.8","63d143b0a7426abcb7905b7e","B2","batch2","spm_show_trial_num","null","<p class=block-text>Trial 33 out of 60</p>","null","","","","","","","","","","","","","","","","","","","","","","","","","",""
"","","","","","image-button-response","70","188522","0.0-2.0-4.0-1.8","63d143b0a7426abcb7905b7e","B2","batch2","spm_respsonse","9415","img/question_3_9.jpeg","5","mat_33","7","0","0","9415","","","","","","","","","","","","","","","","","","","","",""
"","","","","","html-keyboard-response","71","189588","0.0-2.0-4.0-0.9","63d143b0a7426abcb7905b7e","B2","batch2","spm_show_trial_num","null","<p class=block-text>Trial 34 out of 60</p>","null","","","","","","","","","","","","","","","","","","","","","","","","","",""
"","","","","","image-button-response","72","195658","0.0-2.0-4.0-1.9","63d143b0a7426abcb7905b7e","B2","batch2","spm_respsonse","6068","img/question_3_10.jpeg","7","mat_34","6","0","0","6068","","","","","","","","","","","","","","","","","","","","",""
"","","","","","html-keyboard-response","73","196722","0.0-2.0-4.0-0.10","63d143b0a7426abcb7905b7e","B2","batch2","spm_show_trial_num","null","<p class=block-text>Trial 35 out of 60</p>","null","","","","","","","","","","","","","","","","","","","","","","","","","",""
"","","","","","image-button-response","74","206276","0.0-2.0-4.0-1.10","63d143b0a7426abcb7905b7e","B2","batch2","spm_respsonse","9552","img/question_3_11.jpeg","4","mat_35","1","0","0","9552","","","","","","","","","","","","","","","","","","","","",""
"","","","","","html-keyboard-response","75","207340","0.0-2.0-4.0-0.11","63d143b0a7426abcb7905b7e","B2","batch2","spm_show_trial_num","null","<p class=block-text>Trial 36 out of 60</p>","null","","","","","","","","","","","","","","","","","","","","","","","","","",""
"","","","","","image-button-response","76","217790","0.0-2.0-4.0-1.11","63d143b0a7426abcb7905b7e","B2","batch2","spm_respsonse","10449","img/question_3_12.jpeg","3","mat_36","2","0","0","10449","","","","","","","","","","","","","","","","","","","","",""
"","","","","","html-keyboard-response","77","218860","0.0-2.0-4.0-0.12","63d143b0a7426abcb7905b7e","B2","batch2","spm_show_trial_num","null","<p class=block-text>Trial 37 out of 60</p>","null","","","","","","","","","","","","","","","","","","","","","","","","","",""
"","","","","","image-button-response","78","221408","0.0-2.0-4.0-1.12","63d143b0a7426abcb7905b7e","B2","batch2","spm_respsonse","2545","img/question_4_1.jpeg","2","mat_37","3","1","1","2545","","","","","","","","","","","","","","","","","","","","",""
"","","","","","html-keyboard-response","79","222476","0.0-2.0-4.0-0.13","63d143b0a7426abcb7905b7e","B2","batch2","spm_show_trial_num","null","<p class=block-text>Trial 38 out of 60</p>","null","","","","","","","","","","","","","","","","","","","","","","","","","",""
"","","","","","image-button-response","80","226709","0.0-2.0-4.0-1.13","63d143b0a7426abcb7905b7e","B2","batch2","spm_respsonse","4231","img/question_4_2.jpeg","3","mat_38","4","1","1","4231","","","","","","","","","","","","","","","","","","","","",""
"","","","","","html-keyboard-response","81","227771","0.0-2.0-4.0-0.14","63d143b0a7426abcb7905b7e","B2","batch2","spm_show_trial_num","null","<p class=block-text>Trial 39 out of 60</p>","null","","","","","","","","","","","","","","","","","","","","","","","","","",""
"","","","","","image-button-response","82","232497","0.0-2.0-4.0-1.14","63d143b0a7426abcb7905b7e","B2","batch2","spm_respsonse","4724","img/question_4_3.jpeg","2","mat_39","3","1","1","4724","","","","","","","","","","","","","","","","","","","","",""
"","","","","","html-keyboard-response","83","233561","0.0-2.0-4.0-0.15","63d143b0a7426abcb7905b7e","B2","batch2","spm_show_trial_num","null","<p class=block-text>Trial 40 out of 60</p>","null","","","","","","","","","","","","","","","","","","","","","","","","","",""
"","","","","","image-button-response","84","237822","0.0-2.0-4.0-1.15","63d143b0a7426abcb7905b7e","B2","batch2","spm_respsonse","4258","img/question_4_4.jpeg","6","mat_40","7","1","1","4258","","","","","","","","","","","","","","","","","","","","",""
"","","","","","html-keyboard-response","85","238891","0.0-2.0-4.0-0.16","63d143b0a7426abcb7905b7e","B2","batch2","spm_show_trial_num","null","<p class=block-text>Trial 41 out of 60</p>","null","","","","","","","","","","","","","","","","","","","","","","","","","",""
"","","","","","image-button-response","86","243502","0.0-2.0-4.0-1.16","63d143b0a7426abcb7905b7e","B2","batch2","spm_respsonse","4610","img/question_4_5.jpeg","7","mat_41","8","1","1","4610","","","","","","","","","","","","","","","","","","","","",""
"","","","","","html-keyboard-response","87","244568","0.0-2.0-4.0-0.17","63d143b0a7426abcb7905b7e","B2","batch2","spm_show_trial_num","null","<p class=block-text>Trial 42 out of 60</p>","null","","","","","","","","","","","","","","","","","","","","","","","","","",""
"","","","","","image-button-response","88","265868","0.0-2.0-4.0-1.17","63d143b0a7426abcb7905b7e","B2","batch2","spm_respsonse","21299","img/question_4_6.jpeg","5","mat_42","6","1","1","21299","","","","","","","","","","","","","","","","","","","","",""
"","","","","","html-keyboard-response","89","266935","0.0-2.0-4.0-0.18","63d143b0a7426abcb7905b7e","B2","batch2","spm_show_trial_num","null","<p class=block-text>Trial 43 out of 60</p>","null","","","","","","","","","","","","","","","","","","","","","","","","","",""
"","","","","","image-button-response","90","278908","0.0-2.0-4.0-1.18","63d143b0a7426abcb7905b7e","B2","batch2","spm_respsonse","11972","img/question_4_7.jpeg","4","mat_43","5","1","1","11972","","","","","","","","","","","","","","","","","","","","",""
"","","","","","html-keyboard-response","91","279975","0.0-2.0-4.0-0.19","63d143b0a7426abcb7905b7e","B2","batch2","spm_show_trial_num","null","<p class=block-text>Trial 44 out of 60</p>","null","","","","","","","","","","","","","","","","","","","","","","","","","",""
"","","","","","image-button-response","92","287100","0.0-2.0-4.0-1.19","63d143b0a7426abcb7905b7e","B2","batch2","spm_respsonse","7124","img/question_4_8.jpeg","3","mat_44","4","1","1","7124","","","","","","","","","","","","","","","","","","","","",""
"","","","","","html-keyboard-response","93","288166","0.0-2.0-4.0-0.20","63d143b0a7426abcb7905b7e","B2","batch2","spm_show_trial_num","null","<p class=block-text>Trial 45 out of 60</p>","null","","","","","","","","","","","","","","","","","","","","","","","","","",""
"","","","","","image-button-response","94","297901","0.0-2.0-4.0-1.20","63d143b0a7426abcb7905b7e","B2","batch2","spm_respsonse","9733","img/question_4_9.jpeg","0","mat_45","1","1","1","9733","","","","","","","","","","","","","","","","","","","","",""
"","","","","","html-keyboard-response","95","298966","0.0-2.0-4.0-0.21","63d143b0a7426abcb7905b7e","B2","batch2","spm_show_trial_num","null","<p class=block-text>Trial 46 out of 60</p>","null","","","","","","","","","","","","","","","","","","","","","","","","","",""
"","","","","","image-button-response","96","309102","0.0-2.0-4.0-1.21","63d143b0a7426abcb7905b7e","B2","batch2","spm_respsonse","10135","img/question_4_10.jpeg","4","mat_46","2","0","0","10135","","","","","","","","","","","","","","","","","","","","",""
"","","","","","html-keyboard-response","97","310165","0.0-2.0-4.0-0.22","63d143b0a7426abcb7905b7e","B2","batch2","spm_show_trial_num","null","<p class=block-text>Trial 47 out of 60</p>","null","","","","","","","","","","","","","","","","","","","","","","","","","",""
"","","","","","image-button-response","98","325164","0.0-2.0-4.0-1.22","63d143b0a7426abcb7905b7e","B2","batch2","spm_respsonse","14998","img/question_4_11.jpeg","5","mat_47","5","0","0","14998","","","","","","","","","","","","","","","","","","","","",""
"","","","","","html-keyboard-response","99","326232","0.0-2.0-4.0-0.23","63d143b0a7426abcb7905b7e","B2","batch2","spm_show_trial_num","null","<p class=block-text>Trial 48 out of 60</p>","null","","","","","","","","","","","","","","","","","","","","","","","","","",""
"","","","","","image-button-response","100","337162","0.0-2.0-4.0-1.23","63d143b0a7426abcb7905b7e","B2","batch2","spm_respsonse","10929","img/question_4_12.jpeg","7","mat_48","6","0","0","10929","","","","","","","","","","","","","","","","","","","","",""
"","","","","","html-keyboard-response","101","338232","0.0-2.0-4.0-0.24","63d143b0a7426abcb7905b7e","B2","batch2","spm_show_trial_num","null","<p class=block-text>Trial 49 out of 60</p>","null","","","","","","","","","","","","","","","","","","","","","","","","","",""
"","","","","","image-button-response","102","344633","0.0-2.0-4.0-1.24","63d143b0a7426abcb7905b7e","B2","batch2","spm_respsonse","6400","img/question_5_1.jpeg","6","mat_49","7","1","1","6400","","","","","","","","","","","","","","","","","","","","",""
"","","","","","html-keyboard-response","103","345700","0.0-2.0-4.0-0.25","63d143b0a7426abcb7905b7e","B2","batch2","spm_show_trial_num","null","<p class=block-text>Trial 50 out of 60</p>","null","","","","","","","","","","","","","","","","","","","","","","","","","",""
"","","","","","image-button-response","104","354057","0.0-2.0-4.0-1.25","63d143b0a7426abcb7905b7e","B2","batch2","spm_respsonse","8356","img/question_5_2.jpeg","1","mat_50","6","0","0","8356","","","","","","","","","","","","","","","","","","","","",""
"","","","","","html-keyboard-response","105","355127","0.0-2.0-4.0-0.26","63d143b0a7426abcb7905b7e","B2","batch2","spm_show_trial_num","null","<p class=block-text>Trial 51 out of 60</p>","null","","","","","","","","","","","","","","","","","","","","","","","","","",""
"","","","","","image-button-response","106","365338","0.0-2.0-4.0-1.26","63d143b0a7426abcb7905b7e","B2","batch2","spm_respsonse","10210","img/question_5_3.jpeg","7","mat_51","8","1","1","10210","","","","","","","","","","","","","","","","","","","","",""
"","","","","","html-keyboard-response","107","366398","0.0-2.0-4.0-0.27","63d143b0a7426abcb7905b7e","B2","batch2","spm_show_trial_num","null","<p class=block-text>Trial 52 out of 60</p>","null","","","","","","","","","","","","","","","","","","","","","","","","","",""
"","","","","","image-button-response","108","376871","0.0-2.0-4.0-1.27","63d143b0a7426abcb7905b7e","B2","batch2","spm_respsonse","10472","img/question_5_4.jpeg","7","mat_52","2","0","0","10472","","","","","","","","","","","","","","","","","","","","",""
"","","","","","html-keyboard-response","109","377938","0.0-2.0-4.0-0.28","63d143b0a7426abcb7905b7e","B2","batch2","spm_show_trial_num","null","<p class=block-text>Trial 53 out of 60</p>","null","","","","","","","","","","","","","","","","","","","","","","","","","",""
"","","","","","image-button-response","110","381880","0.0-2.0-4.0-1.28","63d143b0a7426abcb7905b7e","B2","batch2","spm_respsonse","3940","img/question_5_5.jpeg","5","mat_53","1","0","0","3940","","","","","","","","","","","","","","","","","","","","",""
"","","","","","html-keyboard-response","111","382946","0.0-2.0-4.0-0.29","63d143b0a7426abcb7905b7e","B2","batch2","spm_show_trial_num","null","<p class=block-text>Trial 54 out of 60</p>","null","","","","","","","","","","","","","","","","","","","","","","","","","",""
"","","","","","image-button-response","112","387295","0.0-2.0-4.0-1.29","63d143b0a7426abcb7905b7e","B2","batch2","spm_respsonse","4348","img/question_5_6.jpeg","4","mat_54","5","1","1","4348","","","","","","","","","","","","","","","","","","","","",""
"","","","","","html-keyboard-response","113","388361","0.0-2.0-4.0-0.30","63d143b0a7426abcb7905b7e","B2","batch2","spm_show_trial_num","null","<p class=block-text>Trial 55 out of 60</p>","null","","","","","","","","","","","","","","","","","","","","","","","","","",""
"","","","","","image-button-response","114","398475","0.0-2.0-4.0-1.30","63d143b0a7426abcb7905b7e","B2","batch2","spm_respsonse","10113","img/question_5_7.jpeg","6","mat_55","1","0","0","10113","","","","","","","","","","","","","","","","","","","","",""
"","","","","","html-keyboard-response","115","399538","0.0-2.0-4.0-0.31","63d143b0a7426abcb7905b7e","B2","batch2","spm_show_trial_num","null","<p class=block-text>Trial 56 out of 60</p>","null","","","","","","","","","","","","","","","","","","","","","","","","","",""
"","","","","","image-button-response","116","405506","0.0-2.0-4.0-1.31","63d143b0a7426abcb7905b7e","B2","batch2","spm_respsonse","5966","img/question_5_8.jpeg","5","mat_56","6","1","1","5966","","","","","","","","","","","","","","","","","","","","",""
"","","","","","html-keyboard-response","117","406569","0.0-2.0-4.0-0.32","63d143b0a7426abcb7905b7e","B2","batch2","spm_show_trial_num","null","<p class=block-text>Trial 57 out of 60</p>","null","","","","","","","","","","","","","","","","","","","","","","","","","",""
"","","","","","image-button-response","118","411523","0.0-2.0-4.0-1.32","63d143b0a7426abcb7905b7e","B2","batch2","spm_respsonse","4953","img/question_5_9.jpeg","7","mat_57","3","0","0","4953","","","","","","","","","","","","","","","","","","","","",""
"","","","","","html-keyboard-response","119","412586","0.0-2.0-4.0-0.33","63d143b0a7426abcb7905b7e","B2","batch2","spm_show_trial_num","null","<p class=block-text>Trial 58 out of 60</p>","null","","","","","","","","","","","","","","","","","","","","","","","","","",""
"","","","","","image-button-response","120","423727","0.0-2.0-4.0-1.33","63d143b0a7426abcb7905b7e","B2","batch2","spm_respsonse","11140","img/question_5_10.jpeg","5","mat_58","2","0","0","11140","","","","","","","","","","","","","","","","","","","","",""
"","","","","","html-keyboard-response","121","424795","0.0-2.0-4.0-0.34","63d143b0a7426abcb7905b7e","B2","batch2","spm_show_trial_num","null","<p class=block-text>Trial 59 out of 60</p>","null","","","","","","","","","","","","","","","","","","","","","","","","","",""
"","","","","","image-button-response","122","433516","0.0-2.0-4.0-1.34","63d143b0a7426abcb7905b7e","B2","batch2","spm_respsonse","8718","img/question_5_11.jpeg","6","mat_59","4","0","0","8718","","","","","","","","","","","","","","","","","","","","",""
"","","","","","html-keyboard-response","123","434579","0.0-2.0-4.0-0.35","63d143b0a7426abcb7905b7e","B2","batch2","spm_show_trial_num","null","<p class=block-text>Trial 60 out of 60</p>","null","","","","","","","","","","","","","","","","","","","","","","","","","",""
"","","","","","image-button-response","124","454575","0.0-2.0-4.0-1.35","63d143b0a7426abcb7905b7e","B2","batch2","spm_respsonse","19995","img/question_5_12.jpeg","0","mat_60","5","0","0","19995","","","","","","","","","","","","","","","","","","","","",""
"","","","","","html-button-response","125","456093","0.0-2.0-5.0","63d143b0a7426abcb7905b7e","B2","batch2","spm_goodbye","1261","<p class= block-text>This concludes the Standard Progressive Matrix game. Thank you for your responses!<br> When you are ready, click the button continue</p>","0","","","","","","","","","","","","","","","","","","","","","","","","","",""
"true","","","","","fullscreen","126","481536","0.0-3.0-0.0","63d143b0a7426abcb7905b7e","B2","batch2","","","","","","","","","","","","","","","","","","","","","","","","","","","","","",""
"","","","","","instructions","127","495230","0.0-3.0-1.0-0.0","63d143b0a7426abcb7905b7e","B2","batch2","","13692","","","","","","","","[{""page_index"":0,""viewing_time"":5492},{""page_index"":1,""viewing_time"":3414},{""page_index"":0,""viewing_time"":3279},{""page_index"":1,""viewing_time"":1507}]","","","","","","","","","","","","","","","","","","","",""
"","","","","","html-button-response","128","497250","0.0-3.0-1.0-1.0-0.0","63d143b0a7426abcb7905b7e","B2","batch2","pattern_enter_quiz","2020","<p class=block-text> Let's answer a few questions <br>","0","","","","","","","","","","","","","","","","","","","","","","","","","",""
"","","","","","html-button-response","129","500110","0.0-3.0-1.0-1.0-1.0","63d143b0a7426abcb7905b7e","B2","batch2","pattern_quiz","2859","<p class = block-text>True or False: You will have as much time as you want to make each choice. <br></p>","0","","","false","","","","","","","","","","","","","","","","","","","","","","",""
"","","","","","html-button-response","130","502340","0.0-3.0-1.0-1.0-2.0","63d143b0a7426abcb7905b7e","B2","batch2","pattern_quiz_feedback","2229","<p class = block-text>Incorrect. Remember, You should make your choice as fast as you can.</p>","0","","","","","","","","","","","","","","","","","","","","","","","","","",""
"","","","","","html-button-response","131","505860","0.0-3.0-1.0-1.0-3.0","63d143b0a7426abcb7905b7e","B2","batch2","pattern_quiz","3521","<p class = block-text>True or False: You will look for 4 pieces in black or white color connected in a row either horizontally, vertically or diagonally. <br></p>","0","","","true","","","","","","","","","","","","","","","","","","","","","","",""
"","","","","","html-button-response","132","506544","0.0-3.0-1.0-1.0-4.0","63d143b0a7426abcb7905b7e","B2","batch2","pattern_quiz_feedback","682","<p class = block-text>Correct! </p>","0","","","","","","","","","","","","","","","","","","","","","","","","","",""
"","","","","","html-button-response","133","508683","0.0-3.0-1.0-2.0-0.0","63d143b0a7426abcb7905b7e","B2","batch2","","2137","<p class = block-text>You made too many incorrect choices.</p><p class = block-text>You will now repeat the instruction and quiz</p>","0","","","","","","","","","","","","","","","","","","","","","","","","","",""
"","","","","","instructions","134","510634","0.0-3.0-1.1-0.1","63d143b0a7426abcb7905b7e","B2","batch2","","1952","","","","","","","","[{""page_index"":0,""viewing_time"":1091},{""page_index"":1,""viewing_time"":861}]","","","","","","","","","","","","","","","","","","","",""
"","","","","","html-button-response","135","511522","0.0-3.0-1.1-1.1-0.1","63d143b0a7426abcb7905b7e","B2","batch2","pattern_enter_quiz","888","<p class=block-text> Let's answer a few questions <br>","0","","","","","","","","","","","","","","","","","","","","","","","","","",""
"","","","","","html-button-response","136","513186","0.0-3.0-1.1-1.1-1.1","63d143b0a7426abcb7905b7e","B2","batch2","pattern_quiz","1664","<p class = block-text>True or False: You will have as much time as you want to make each choice. <br></p>","1","","","true","","","","","","","","","","","","","","","","","","","","","","",""
"","","","","","html-button-response","137","513799","0.0-3.0-1.1-1.1-2.1","63d143b0a7426abcb7905b7e","B2","batch2","pattern_quiz_feedback","611","<p class = block-text>Correct! You should make your choice <strong> as fast as you can</strong>.</p>","0","","","","","","","","","","","","","","","","","","","","","","","","","",""
"","","","","","html-button-response","138","516589","0.0-3.0-1.1-1.1-3.1","63d143b0a7426abcb7905b7e","B2","batch2","pattern_quiz","2789","<p class = block-text>True or False: You will look for 4 pieces in black or white color connected in a row either horizontally, vertically or diagonally. <br></p>","0","","","true","","","","","","","","","","","","","","","","","","","","","","",""
"","","","","","html-button-response","139","517300","0.0-3.0-1.1-1.1-4.1","63d143b0a7426abcb7905b7e","B2","batch2","pattern_quiz_feedback","711","<p class = block-text>Correct! </p>","0","","","","","","","","","","","","","","","","","","","","","","","","","",""
"","","","","","html-button-response","140","518964","0.0-3.0-2.0","63d143b0a7426abcb7905b7e","B2","batch2","pattern_enter_practice","1663","<p class=block-text> Now that you've understood the game, let's do a few practice trials before we start!<br> <br>","0","","","","","","","","","","","","","","","","","","","","","","","","","",""
"","","","","","image-keyboard-response","141","520715","0.0-3.0-3.0-0.0","63d143b0a7426abcb7905b7e","B2","batch2","pattern_practice","1750","stim/prac_yes_18_hor_w1.png","f","","f","true","","","","","","","","","","","","","","","","","","","","","","",""
"","","","","","html-keyboard-response","142","521731","0.0-3.0-3.0-1.0","63d143b0a7426abcb7905b7e","B2","batch2","pattern_feedback","null","<p style=""font-size:30px;color:green;"">Correct!</p>","null","","","","","","","","","","","","","","","","","","","","","","","","","",""
"","","","","","image-keyboard-response","143","523072","0.0-3.0-3.0-0.1","63d143b0a7426abcb7905b7e","B2","batch2","pattern_practice","1339","stim/prac_no_16_1.png","j","","j","true","","","","","","","","","","","","","","","","","","","","","","",""
"","","","","","html-keyboard-response","144","524092","0.0-3.0-3.0-1.1","63d143b0a7426abcb7905b7e","B2","batch2","pattern_feedback","null","<p style=""font-size:30px;color:green;"">Correct!</p>","null","","","","","","","","","","","","","","","","","","","","","","","","","",""
"","","","","","image-keyboard-response","145","525008","0.0-3.0-3.0-0.2","63d143b0a7426abcb7905b7e","B2","batch2","pattern_practice","915","stim/prac_no_18_1.png","j","","j","true","","","","","","","","","","","","","","","","","","","","","","",""
"","","","","","html-keyboard-response","146","526019","0.0-3.0-3.0-1.2","63d143b0a7426abcb7905b7e","B2","batch2","pattern_feedback","null","<p style=""font-size:30px;color:green;"">Correct!</p>","null","","","","","","","","","","","","","","","","","","","","","","","","","",""
"","","","","","image-keyboard-response","147","527569","0.0-3.0-3.0-0.3","63d143b0a7426abcb7905b7e","B2","batch2","pattern_practice","1547","stim/prac_yes_20_dia_b1.png","f","","f","true","","","","","","","","","","","","","","","","","","","","","","",""
"","","","","","html-keyboard-response","148","528579","0.0-3.0-3.0-1.3","63d143b0a7426abcb7905b7e","B2","batch2","pattern_feedback","null","<p style=""font-size:30px;color:green;"">Correct!</p>","null","","","","","","","","","","","","","","","","","","","","","","","","","",""
"","","","","","image-keyboard-response","149","529336","0.0-3.0-3.0-0.4","63d143b0a7426abcb7905b7e","B2","batch2","pattern_practice","755","stim/prac_yes_16_ver_w1.png","f","","f","true","","","","","","","","","","","","","","","","","","","","","","",""
"","","","","","html-keyboard-response","150","530351","0.0-3.0-3.0-1.4","63d143b0a7426abcb7905b7e","B2","batch2","pattern_feedback","null","<p style=""font-size:30px;color:green;"">Correct!</p>","null","","","","","","","","","","","","","","","","","","","","","","","","","",""
"","","","","","html-button-response","151","532276","0.0-3.0-4.0","63d143b0a7426abcb7905b7e","B2","batch2","pattern_enter_official_trials","1924","<p class=block-text> Good job! You are done with practice trials!<br>
        You responded correctly on 100% of the trials.<br>
        Press the button below to start official trials. Now you won't see any feedback about your response</p>","0","","","","","","","","","","","","","","","","","","","","","","","","","",""
"","","","","","html-keyboard-response","152","533086","0.0-3.0-5.0-0.0","63d143b0a7426abcb7905b7e","B2","batch2","pattern_show_trial_num","null","<p class=block-text>Trial 1 out of 78</p>","null","","","","","","","","","","","","","","","","","","","","","","","","","",""
"","","","","","image-keyboard-response","153","533968","0.0-3.0-5.0-1.0","63d143b0a7426abcb7905b7e","B2","batch2","pattern_response","881","stim/yes_17_ver_b1_b.png","f","pattern_46","f","true","","","","881","true","1","","","","","","","","","","","","","","","","",""
"","","","","","html-keyboard-response","154","535285","0.0-3.0-5.0-0.1","63d143b0a7426abcb7905b7e","B2","batch2","pattern_show_trial_num","null","<p class=block-text>Trial 2 out of 78</p>","null","","","","","","","","","","","","","","","","","","","","","","","","","",""
"","","","","","image-keyboard-response","155","538560","0.0-3.0-5.0-1.1","63d143b0a7426abcb7905b7e","B2","batch2","pattern_response","3274","stim/no_45_1_w.png","j","pattern_25","j","true","","","","3274","true","2","","","","","","","","","","","","","","","","",""
"","","","","","html-keyboard-response","156","539875","0.0-3.0-5.0-0.2","63d143b0a7426abcb7905b7e","B2","batch2","pattern_show_trial_num","null","<p class=block-text>Trial 3 out of 78</p>","null","","","","","","","","","","","","","","","","","","","","","","","","","",""
"","","","","","image-keyboard-response","157","543191","0.0-3.0-5.0-1.2","63d143b0a7426abcb7905b7e","B2","batch2","pattern_response","3314","stim/yes_44_ver_w1_w.png","f","pattern_66","f","true","","","","3314","true","3","","","","","","","","","","","","","","","","",""
"","","","","","html-keyboard-response","158","544506","0.0-3.0-5.0-0.3","63d143b0a7426abcb7905b7e","B2","batch2","pattern_show_trial_num","null","<p class=block-text>Trial 4 out of 78</p>","null","","","","","","","","","","","","","","","","","","","","","","","","","",""
"","","","","","image-keyboard-response","159","545399","0.0-3.0-5.0-1.3","63d143b0a7426abcb7905b7e","B2","batch2","pattern_response","891","stim/yes_70_ver_b1.png","f","pattern_80","f","true","","","","891","true","4","","","","","","","","","","","","","","","","",""
"","","","","","html-keyboard-response","160","546713","0.0-3.0-5.0-0.4","63d143b0a7426abcb7905b7e","B2","batch2","pattern_show_trial_num","null","<p class=block-text>Trial 5 out of 78</p>","null","","","","","","","","","","","","","","","","","","","","","","","","","",""
"","","","","","image-keyboard-response","161","547399","0.0-3.0-5.0-1.4","63d143b0a7426abcb7905b7e","B2","batch2","pattern_response","685","stim/yes_29_hor_b1_b.png","f","pattern_52","f","true","","","","685","true","5","","","","","","","","","","","","","","","","",""
"","","","","","html-keyboard-response","162","548718","0.0-3.0-5.0-0.5","63d143b0a7426abcb7905b7e","B2","batch2","pattern_show_trial_num","null","<p class=block-text>Trial 6 out of 78</p>","null","","","","","","","","","","","","","","","","","","","","","","","","","",""
"","","","","","image-keyboard-response","163","550127","0.0-3.0-5.0-1.5","63d143b0a7426abcb7905b7e","B2","batch2","pattern_response","1409","stim/yes_33_dia_w1_w.png","f","pattern_56","f","true","","","","1409","true","6","","","","","","","","","","","","","","","","",""
"","","","","","html-keyboard-response","164","551445","0.0-3.0-5.0-0.6","63d143b0a7426abcb7905b7e","B2","batch2","pattern_show_trial_num","null","<p class=block-text>Trial 7 out of 78</p>","null","","","","","","","","","","","","","","","","","","","","","","","","","",""
"","","","","","image-keyboard-response","165","552310","0.0-3.0-5.0-1.6","63d143b0a7426abcb7905b7e","B2","batch2","pattern_response","864","stim/yes_46_ver_b1_b.png","f","pattern_68","f","true","","","","864","true","7","","","","","","","","","","","","","","","","",""
"","","","","","html-keyboard-response","166","553630","0.0-3.0-5.0-0.7","63d143b0a7426abcb7905b7e","B2","batch2","pattern_show_trial_num","null","<p class=block-text>Trial 8 out of 78</p>","null","","","","","","","","","","","","","","","","","","","","","","","","","",""
"","","","","","image-keyboard-response","167","555094","0.0-3.0-5.0-1.7","63d143b0a7426abcb7905b7e","B2","batch2","pattern_response","1463","stim/no_18_1_b.png","j","pattern_05","j","true","","","","1463","true","8","","","","","","","","","","","","","","","","",""
"","","","","","html-keyboard-response","168","556414","0.0-3.0-5.0-0.8","63d143b0a7426abcb7905b7e","B2","batch2","pattern_show_trial_num","null","<p class=block-text>Trial 9 out of 78</p>","null","","","","","","","","","","","","","","","","","","","","","","","","","",""
"","","","","","image-keyboard-response","169","557398","0.0-3.0-5.0-1.8","63d143b0a7426abcb7905b7e","B2","batch2","pattern_response","983","stim/no_12_1.png","j","pattern_01","j","true","","","","983","true","9","","","","","","","","","","","","","","","","",""
"","","","","","html-keyboard-response","170","558717","0.0-3.0-5.0-0.9","63d143b0a7426abcb7905b7e","B2","batch2","pattern_show_trial_num","null","<p class=block-text>Trial 10 out of 78</p>","null","","","","","","","","","","","","","","","","","","","","","","","","","",""
"","","","","","image-keyboard-response","171","563216","0.0-3.0-5.0-1.9","63d143b0a7426abcb7905b7e","B2","batch2","pattern_response","4497","stim/no_43_2_b.png","j","pattern_23","j","true","","","","4497","true","10","","","","","","","","","","","","","","","","",""
"","","","","","html-keyboard-response","172","564530","0.0-3.0-5.0-0.10","63d143b0a7426abcb7905b7e","B2","batch2","pattern_show_trial_num","null","<p class=block-text>Trial 11 out of 78</p>","null","","","","","","","","","","","","","","","","","","","","","","","","","",""
"","","","","","image-keyboard-response","173","566830","0.0-3.0-5.0-1.10","63d143b0a7426abcb7905b7e","B2","batch2","pattern_response","2298","stim/no_30_1_b.png","j","pattern_13","j","true","","","","2298","true","11","","","","","","","","","","","","","","","","",""
"","","","","","html-keyboard-response","174","568150","0.0-3.0-5.0-0.11","63d143b0a7426abcb7905b7e","B2","batch2","pattern_show_trial_num","null","<p class=block-text>Trial 12 out of 78</p>","null","","","","","","","","","","","","","","","","","","","","","","","","","",""
"","","","","","image-keyboard-response","175","571661","0.0-3.0-5.0-1.11","63d143b0a7426abcb7905b7e","B2","batch2","pattern_response","3511","stim/yes_51_dia_b1.png","f","pattern_72","f","true","","","","3511","true","12","","","","","","","","","","","","","","","","",""
"","","","","","html-keyboard-response","176","572981","0.0-3.0-5.0-0.12","63d143b0a7426abcb7905b7e","B2","batch2","pattern_show_trial_num","null","<p class=block-text>Trial 13 out of 78</p>","null","","","","","","","","","","","","","","","","","","","","","","","","","",""
"","","","","","image-keyboard-response","177","579615","0.0-3.0-5.0-1.12","63d143b0a7426abcb7905b7e","B2","batch2","pattern_response","6633","stim/yes_58_dia_w1_w.png","j","pattern_76","f","false","","","","6633","false","12","","","","","","","","","","","","","","","","",""
"","","","","","html-keyboard-response","178","580933","0.0-3.0-5.0-0.13","63d143b0a7426abcb7905b7e","B2","batch2","pattern_show_trial_num","null","<p class=block-text>Trial 14 out of 78</p>","null","","","","","","","","","","","","","","","","","","","","","","","","","",""
"","","","","","image-keyboard-response","179","582141","0.0-3.0-5.0-1.13","63d143b0a7426abcb7905b7e","B2","batch2","pattern_response","1207","stim/yes_63_dia_b1.png","f","pattern_78","f","true","","","","1207","true","13","","","","","","","","","","","","","","","","",""
"","","","","","html-keyboard-response","180","583456","0.0-3.0-5.0-0.14","63d143b0a7426abcb7905b7e","B2","batch2","pattern_show_trial_num","null","<p class=block-text>Trial 15 out of 78</p>","null","","","","","","","","","","","","","","","","","","","","","","","","","",""
"","","","","","image-keyboard-response","181","585965","0.0-3.0-5.0-1.14","63d143b0a7426abcb7905b7e","B2","batch2","pattern_response","2508","stim/no_28_2.png","j","pattern_11","j","true","","","","2508","true","14","","","","","","","","","","","","","","","","",""
"","","","","","html-keyboard-response","182","587282","0.0-3.0-5.0-0.15","63d143b0a7426abcb7905b7e","B2","batch2","pattern_show_trial_num","null","<p class=block-text>Trial 16 out of 78</p>","null","","","","","","","","","","","","","","","","","","","","","","","","","",""
"","","","","","image-keyboard-response","183","588445","0.0-3.0-5.0-1.15","63d143b0a7426abcb7905b7e","B2","batch2","pattern_response","1161","stim/yes_49_hor_w1_b.png","f","pattern_70","f","true","","","","1161","true","15","","","","","","","","","","","","","","","","",""
"","","","","","html-keyboard-response","184","589761","0.0-3.0-5.0-0.16","63d143b0a7426abcb7905b7e","B2","batch2","pattern_show_trial_num","null","<p class=block-text>Trial 17 out of 78</p>","null","","","","","","","","","","","","","","","","","","","","","","","","","",""
"","","","","","image-keyboard-response","185","596716","0.0-3.0-5.0-1.16","63d143b0a7426abcb7905b7e","B2","batch2","pattern_response","6954","stim/no_67_1.png","j","pattern_39","j","true","","","","6954","true","16","","","","","","","","","","","","","","","","",""
"","","","","","html-keyboard-response","186","598032","0.0-3.0-5.0-0.17","63d143b0a7426abcb7905b7e","B2","batch2","pattern_show_trial_num","null","<p class=block-text>Trial 18 out of 78</p>","null","","","","","","","","","","","","","","","","","","","","","","","","","",""
"","","","","","image-keyboard-response","187","603204","0.0-3.0-5.0-1.17","63d143b0a7426abcb7905b7e","B2","batch2","pattern_response","5170","stim/no_53_1_b.png","j","pattern_33","j","true","","","","5170","true","17","","","","","","","","","","","","","","","","",""
"","","","","","html-keyboard-response","188","604521","0.0-3.0-5.0-0.18","63d143b0a7426abcb7905b7e","B2","batch2","pattern_show_trial_num","null","<p class=block-text>Trial 19 out of 78</p>","null","","","","","","","","","","","","","","","","","","","","","","","","","",""
"","","","","","image-keyboard-response","189","605788","0.0-3.0-5.0-1.18","63d143b0a7426abcb7905b7e","B2","batch2","pattern_response","1266","stim/yes_23_ver_b1.png","f","pattern_48","f","true","","","","1266","true","18","","","","","","","","","","","","","","","","",""
"","","","","","html-keyboard-response","190","607105","0.0-3.0-5.0-0.19","63d143b0a7426abcb7905b7e","B2","batch2","pattern_show_trial_num","null","<p class=block-text>Trial 20 out of 78</p>","null","","","","","","","","","","","","","","","","","","","","","","","","","",""
"","","","","","image-keyboard-response","191","608549","0.0-3.0-5.0-1.19","63d143b0a7426abcb7905b7e","B2","batch2","pattern_response","1441","stim/yes_42_dia_w1_w.png","f","pattern_64","f","true","","","","1441","true","19","","","","","","","","","","","","","","","","",""
"","","","","","html-keyboard-response","192","609867","0.0-3.0-5.0-0.20","63d143b0a7426abcb7905b7e","B2","batch2","pattern_show_trial_num","null","<p class=block-text>Trial 21 out of 78</p>","null","","","","","","","","","","","","","","","","","","","","","","","","","",""
"","","","","","image-keyboard-response","193","613564","0.0-3.0-5.0-1.20","63d143b0a7426abcb7905b7e","B2","batch2","pattern_response","3695","stim/no_47_1_b.png","j","pattern_27","j","true","","","","3695","true","20","","","","","","","","","","","","","","","","",""
"","","","","","html-keyboard-response","194","614879","0.0-3.0-5.0-0.21","63d143b0a7426abcb7905b7e","B2","batch2","pattern_show_trial_num","null","<p class=block-text>Trial 22 out of 78</p>","null","","","","","","","","","","","","","","","","","","","","","","","","","",""
"","","","","","image-keyboard-response","195","617252","0.0-3.0-5.0-1.21","63d143b0a7426abcb7905b7e","B2","batch2","pattern_response","2371","stim/no_33_1_b.png","j","pattern_15","j","true","","","","2371","true","21","","","","","","","","","","","","","","","","",""
"","","","","","html-keyboard-response","196","618568","0.0-3.0-5.0-0.22","63d143b0a7426abcb7905b7e","B2","batch2","pattern_show_trial_num","null","<p class=block-text>Trial 23 out of 78</p>","null","","","","","","","","","","","","","","","","","","","","","","","","","",""
"","","","","","image-keyboard-response","197","619653","0.0-3.0-5.0-1.22","63d143b0a7426abcb7905b7e","B2","batch2","pattern_response","1083","stim/yes_53_ver_b1_b.png","f","pattern_74","f","true","","","","1083","true","22","","","","","","","","","","","","","","","","",""
"","","","","","html-keyboard-response","198","620970","0.0-3.0-5.0-0.23","63d143b0a7426abcb7905b7e","B2","batch2","pattern_show_trial_num","null","<p class=block-text>Trial 24 out of 78</p>","null","","","","","","","","","","","","","","","","","","","","","","","","","",""
"","","","","","image-keyboard-response","199","621707","0.0-3.0-5.0-1.23","63d143b0a7426abcb7905b7e","B2","batch2","pattern_response","732","stim/yes_26_dia_w2_w.png","f","pattern_50","f","true","","","","732","true","23","","","","","","","","","","","","","","","","",""
"","","","","","html-keyboard-response","200","623023","0.0-3.0-5.0-0.24","63d143b0a7426abcb7905b7e","B2","batch2","pattern_show_trial_num","null","<p class=block-text>Trial 25 out of 78</p>","null","","","","","","","","","","","","","","","","","","","","","","","","","",""
"","","","","","image-keyboard-response","201","627555","0.0-3.0-5.0-1.24","63d143b0a7426abcb7905b7e","B2","batch2","pattern_response","4532","stim/no_51_1.png","j","pattern_31","j","true","","","","4532","true","24","","","","","","","","","","","","","","","","",""
"","","","","","html-keyboard-response","202","628875","0.0-3.0-5.0-0.25","63d143b0a7426abcb7905b7e","B2","batch2","pattern_show_trial_num","null","<p class=block-text>Trial 26 out of 78</p>","null","","","","","","","","","","","","","","","","","","","","","","","","","",""
"","","","","","image-keyboard-response","203","631092","0.0-3.0-5.0-1.25","63d143b0a7426abcb7905b7e","B2","batch2","pattern_response","2216","stim/no_22_1_b.png","j","pattern_07","j","true","","","","2216","true","25","","","","","","","","","","","","","","","","",""
"","","","","","html-keyboard-response","204","632411","0.0-3.0-5.0-0.26","63d143b0a7426abcb7905b7e","B2","batch2","pattern_show_trial_num","null","<p class=block-text>Trial 27 out of 78</p>","null","","","","","","","","","","","","","","","","","","","","","","","","","",""
"","","","","","image-keyboard-response","205","633067","0.0-3.0-5.0-1.26","63d143b0a7426abcb7905b7e","B2","batch2","pattern_response","654","stim/yes_12_hor_w1_w.png","f","pattern_42","f","true","","","","654","true","26","","","","","","","","","","","","","","","","",""
"","","","","","html-keyboard-response","206","634386","0.0-3.0-5.0-0.27","63d143b0a7426abcb7905b7e","B2","batch2","pattern_show_trial_num","null","<p class=block-text>Trial 28 out of 78</p>","null","","","","","","","","","","","","","","","","","","","","","","","","","",""
"","","","","","image-keyboard-response","207","635651","0.0-3.0-5.0-1.27","63d143b0a7426abcb7905b7e","B2","batch2","pattern_response","1264","stim/no_15_1_w.png","j","pattern_03","j","true","","","","1264","true","27","","","","","","","","","","","","","","","","",""
"","","","","","html-keyboard-response","208","636966","0.0-3.0-5.0-0.28","63d143b0a7426abcb7905b7e","B2","batch2","pattern_show_trial_num","null","<p class=block-text>Trial 29 out of 78</p>","null","","","","","","","","","","","","","","","","","","","","","","","","","",""
"","","","","","image-keyboard-response","209","640083","0.0-3.0-5.0-1.28","63d143b0a7426abcb7905b7e","B2","batch2","pattern_response","3115","stim/no_36_1_b.png","j","pattern_17","j","true","","","","3115","true","28","","","","","","","","","","","","","","","","",""
"","","","","","html-keyboard-response","210","641402","0.0-3.0-5.0-0.29","63d143b0a7426abcb7905b7e","B2","batch2","pattern_show_trial_num","null","<p class=block-text>Trial 30 out of 78</p>","null","","","","","","","","","","","","","","","","","","","","","","","","","",""
"","","","","","image-keyboard-response","211","643052","0.0-3.0-5.0-1.29","63d143b0a7426abcb7905b7e","B2","batch2","pattern_response","1648","stim/yes_30_ver_b1_b.png","f","pattern_54","f","true","","","","1648","true","29","","","","","","","","","","","","","","","","",""
"","","","","","html-keyboard-response","212","644370","0.0-3.0-5.0-0.30","63d143b0a7426abcb7905b7e","B2","batch2","pattern_show_trial_num","null","<p class=block-text>Trial 31 out of 78</p>","null","","","","","","","","","","","","","","","","","","","","","","","","","",""
"","","","","","image-keyboard-response","213","651066","0.0-3.0-5.0-1.30","63d143b0a7426abcb7905b7e","B2","batch2","pattern_response","6694","stim/no_58_1_w.png","j","pattern_35","j","true","","","","6694","true","30","","","","","","","","","","","","","","","","",""
"","","","","","html-keyboard-response","214","652386","0.0-3.0-5.0-0.31","63d143b0a7426abcb7905b7e","B2","batch2","pattern_show_trial_num","null","<p class=block-text>Trial 32 out of 78</p>","null","","","","","","","","","","","","","","","","","","","","","","","","","",""
"","","","","","image-keyboard-response","215","655747","0.0-3.0-5.0-1.31","63d143b0a7426abcb7905b7e","B2","batch2","pattern_response","3360","stim/no_49_2_b.png","j","pattern_29","j","true","","","","3360","true","31","","","","","","","","","","","","","","","","",""
"","","","","","html-keyboard-response","216","657063","0.0-3.0-5.0-0.32","63d143b0a7426abcb7905b7e","B2","batch2","pattern_show_trial_num","null","<p class=block-text>Trial 33 out of 78</p>","null","","","","","","","","","","","","","","","","","","","","","","","","","",""
"","","","","","image-keyboard-response","217","660161","0.0-3.0-5.0-1.32","63d143b0a7426abcb7905b7e","B2","batch2","pattern_response","3097","stim/no_39_1_w.png","j","pattern_21","j","true","","","","3097","true","32","","","","","","","","","","","","","","","","",""
"","","","","","html-keyboard-response","218","661476","0.0-3.0-5.0-0.33","63d143b0a7426abcb7905b7e","B2","batch2","pattern_show_trial_num","null","<p class=block-text>Trial 34 out of 78</p>","null","","","","","","","","","","","","","","","","","","","","","","","","","",""
"","","","","","image-keyboard-response","219","664297","0.0-3.0-5.0-1.33","63d143b0a7426abcb7905b7e","B2","batch2","pattern_response","2820","stim/yes_37_hor_w1_w.png","f","pattern_60","f","true","","","","2820","true","33","","","","","","","","","","","","","","","","",""
"","","","","","html-keyboard-response","220","665613","0.0-3.0-5.0-0.34","63d143b0a7426abcb7905b7e","B2","batch2","pattern_show_trial_num","null","<p class=block-text>Trial 35 out of 78</p>","null","","","","","","","","","","","","","","","","","","","","","","","","","",""
"","","","","","image-keyboard-response","221","668554","0.0-3.0-5.0-1.34","63d143b0a7426abcb7905b7e","B2","batch2","pattern_response","2940","stim/no_37_2_w.png","j","pattern_19","j","true","","","","2940","true","34","","","","","","","","","","","","","","","","",""
"","","","","","html-keyboard-response","222","669873","0.0-3.0-5.0-0.35","63d143b0a7426abcb7905b7e","B2","batch2","pattern_show_trial_num","null","<p class=block-text>Trial 36 out of 78</p>","null","","","","","","","","","","","","","","","","","","","","","","","","","",""
"","","","","","image-keyboard-response","223","670657","0.0-3.0-5.0-1.35","63d143b0a7426abcb7905b7e","B2","batch2","pattern_response","783","stim/yes_36_ver_w1_w.png","f","pattern_58","f","true","","","","783","true","35","","","","","","","","","","","","","","","","",""
"","","","","","html-keyboard-response","224","671972","0.0-3.0-5.0-0.36","63d143b0a7426abcb7905b7e","B2","batch2","pattern_show_trial_num","null","<p class=block-text>Trial 37 out of 78</p>","null","","","","","","","","","","","","","","","","","","","","","","","","","",""
"","","","","","image-keyboard-response","225","674592","0.0-3.0-5.0-1.36","63d143b0a7426abcb7905b7e","B2","batch2","pattern_response","2619","stim/no_25_1_b.png","j","pattern_09","j","true","","","","2619","true","36","","","","","","","","","","","","","","","","",""
"","","","","","html-keyboard-response","226","675909","0.0-3.0-5.0-0.37","63d143b0a7426abcb7905b7e","B2","batch2","pattern_show_trial_num","null","<p class=block-text>Trial 38 out of 78</p>","null","","","","","","","","","","","","","","","","","","","","","","","","","",""
"","","","","","image-keyboard-response","227","676593","0.0-3.0-5.0-1.37","63d143b0a7426abcb7905b7e","B2","batch2","pattern_response","683","stim/yes_15_dia_b1u_b.png","f","pattern_44","f","true","","","","683","true","37","","","","","","","","","","","","","","","","",""
"","","","","","html-keyboard-response","228","677909","0.0-3.0-5.0-0.38","63d143b0a7426abcb7905b7e","B2","batch2","pattern_show_trial_num","null","<p class=block-text>Trial 39 out of 78</p>","null","","","","","","","","","","","","","","","","","","","","","","","","","",""
"","","","","","image-keyboard-response","229","678674","0.0-3.0-5.0-1.38","63d143b0a7426abcb7905b7e","B2","batch2","pattern_response","764","stim/yes_39_hor_w1_w.png","f","pattern_62","f","true","","","","764","true","38","","","","","","","","","","","","","","","","",""
"","","","","","image-keyboard-response","230","682033","0.0-3.0-6.0","63d143b0a7426abcb7905b7e","B2","batch2","attention_check","2851","stim/empty_board.png","j","","j","true","","","","","","","500","[""f"",""j""]","","","","","","","","","","","","","","",""
"","","","","","html-keyboard-response","231","682837","0.0-3.0-7.0-0.0","63d143b0a7426abcb7905b7e","B2","batch2","pattern_show_trial_num","null","<p class=block-text>Trial 40 out of 78</p>","null","","","","","","","","","","","","","","","","","","","","","","","","","",""
"","","","","","image-keyboard-response","232","688152","0.0-3.0-7.0-1.0","63d143b0a7426abcb7905b7e","B2","batch2","pattern_response","5314","stim/no_46_1_b.png","j","pattern_26","j","true","","","","5314","true","39","","","","","","","","","","","","","","","","",""
"","","","","","html-keyboard-response","233","689472","0.0-3.0-7.0-0.1","63d143b0a7426abcb7905b7e","B2","batch2","pattern_show_trial_num","null","<p class=block-text>Trial 41 out of 78</p>","null","","","","","","","","","","","","","","","","","","","","","","","","","",""
"","","","","","image-keyboard-response","234","692649","0.0-3.0-7.0-1.1","63d143b0a7426abcb7905b7e","B2","batch2","pattern_response","3176","stim/yes_48_dia_w1_w.png","f","pattern_69","f","true","","","","3176","true","40","","","","","","","","","","","","","","","","",""
"","","","","","html-keyboard-response","235","693967","0.0-3.0-7.0-0.2","63d143b0a7426abcb7905b7e","B2","batch2","pattern_show_trial_num","null","<p class=block-text>Trial 42 out of 78</p>","null","","","","","","","","","","","","","","","","","","","","","","","","","",""
"","","","","","image-keyboard-response","236","701080","0.0-3.0-7.0-1.2","63d143b0a7426abcb7905b7e","B2","batch2","pattern_response","7111","stim/no_65_1_b.png","j","pattern_38","j","true","","","","7111","true","41","","","","","","","","","","","","","","","","",""
"","","","","","html-keyboard-response","237","702399","0.0-3.0-7.0-0.3","63d143b0a7426abcb7905b7e","B2","batch2","pattern_show_trial_num","null","<p class=block-text>Trial 43 out of 78</p>","null","","","","","","","","","","","","","","","","","","","","","","","","","",""
"","","","","","image-keyboard-response","238","704945","0.0-3.0-7.0-1.3","63d143b0a7426abcb7905b7e","B2","batch2","pattern_response","2544","stim/no_34_1_b.png","j","pattern_16","j","true","","","","2544","true","42","","","","","","","","","","","","","","","","",""
"","","","","","html-keyboard-response","239","706259","0.0-3.0-7.0-0.4","63d143b0a7426abcb7905b7e","B2","batch2","pattern_show_trial_num","null","<p class=block-text>Trial 44 out of 78</p>","null","","","","","","","","","","","","","","","","","","","","","","","","","",""
"","","","","","image-keyboard-response","240","708174","0.0-3.0-7.0-1.4","63d143b0a7426abcb7905b7e","B2","batch2","pattern_response","1913","stim/yes_40_dia_b1_b.png","f","pattern_63","f","true","","","","1913","true","43","","","","","","","","","","","","","","","","",""
"","","","","","html-keyboard-response","241","709490","0.0-3.0-7.0-0.5","63d143b0a7426abcb7905b7e","B2","batch2","pattern_show_trial_num","null","<p class=block-text>Trial 45 out of 78</p>","null","","","","","","","","","","","","","","","","","","","","","","","","","",""
"","","","","","image-keyboard-response","242","712775","0.0-3.0-7.0-1.5","63d143b0a7426abcb7905b7e","B2","batch2","pattern_response","3284","stim/no_44_1.png","j","pattern_24","j","true","","","","3284","true","44","","","","","","","","","","","","","","","","",""
"","","","","","html-keyboard-response","243","714095","0.0-3.0-7.0-0.6","63d143b0a7426abcb7905b7e","B2","batch2","pattern_show_trial_num","null","<p class=block-text>Trial 46 out of 78</p>","null","","","","","","","","","","","","","","","","","","","","","","","","","",""
"","","","","","image-keyboard-response","244","718920","0.0-3.0-7.0-1.6","63d143b0a7426abcb7905b7e","B2","batch2","pattern_response","4824","stim/no_55_1_w.png","j","pattern_34","j","true","","","","4824","true","45","","","","","","","","","","","","","","","","",""
"","","","","","html-keyboard-response","245","720235","0.0-3.0-7.0-0.7","63d143b0a7426abcb7905b7e","B2","batch2","pattern_show_trial_num","null","<p class=block-text>Trial 47 out of 78</p>","null","","","","","","","","","","","","","","","","","","","","","","","","","",""
"","","","","","image-keyboard-response","246","722599","0.0-3.0-7.0-1.7","63d143b0a7426abcb7905b7e","B2","batch2","pattern_response","2358","stim/yes_37_dia_w1.png","j","pattern_59","f","false","","","","2358","false","45","","","","","","","","","","","","","","","","",""
"","","","","","html-keyboard-response","247","723915","0.0-3.0-7.0-0.8","63d143b0a7426abcb7905b7e","B2","batch2","pattern_show_trial_num","null","<p class=block-text>Trial 48 out of 78</p>","null","","","","","","","","","","","","","","","","","","","","","","","","","",""
"","","","","","image-keyboard-response","248","724775","0.0-3.0-7.0-1.8","63d143b0a7426abcb7905b7e","B2","batch2","pattern_response","857","stim/yes_60_ver_b1_b.png","f","pattern_77","f","true","","","","857","true","46","","","","","","","","","","","","","","","","",""
"","","","","","html-keyboard-response","249","726094","0.0-3.0-7.0-0.9","63d143b0a7426abcb7905b7e","B2","batch2","pattern_show_trial_num","null","<p class=block-text>Trial 49 out of 78</p>","null","","","","","","","","","","","","","","","","","","","","","","","","","",""
"","","","","","image-keyboard-response","250","727302","0.0-3.0-7.0-1.9","63d143b0a7426abcb7905b7e","B2","batch2","pattern_response","1207","stim/no_13_2_b.png","j","pattern_02","j","true","","","","1207","true","47","","","","","","","","","","","","","","","","",""
"","","","","","html-keyboard-response","251","728619","0.0-3.0-7.0-0.10","63d143b0a7426abcb7905b7e","B2","batch2","pattern_show_trial_num","null","<p class=block-text>Trial 50 out of 78</p>","null","","","","","","","","","","","","","","","","","","","","","","","","","",""
"","","","","","image-keyboard-response","252","729536","0.0-3.0-7.0-1.10","63d143b0a7426abcb7905b7e","B2","batch2","pattern_response","915","stim/yes_55_hor_w1_w.png","f","pattern_75","f","true","","","","915","true","48","","","","","","","","","","","","","","","","",""
"","","","","","html-keyboard-response","253","730850","0.0-3.0-7.0-0.11","63d143b0a7426abcb7905b7e","B2","batch2","pattern_show_trial_num","null","<p class=block-text>Trial 51 out of 78</p>","null","","","","","","","","","","","","","","","","","","","","","","","","","",""
"","","","","","image-keyboard-response","254","734126","0.0-3.0-7.0-1.11","63d143b0a7426abcb7905b7e","B2","batch2","pattern_response","3276","stim/no_42_1_w.png","j","pattern_22","j","true","","","","3276","true","49","","","","","","","","","","","","","","","","",""
"","","","","","html-keyboard-response","255","735446","0.0-3.0-7.0-0.12","63d143b0a7426abcb7905b7e","B2","batch2","pattern_show_trial_num","null","<p class=block-text>Trial 52 out of 78</p>","null","","","","","","","","","","","","","","","","","","","","","","","","","",""
"","","","","","image-keyboard-response","256","738262","0.0-3.0-7.0-1.12","63d143b0a7426abcb7905b7e","B2","batch2","pattern_response","2815","stim/no_50_1.png","j","pattern_30","j","true","","","","2815","true","50","","","","","","","","","","","","","","","","",""
"","","","","","html-keyboard-response","257","739581","0.0-3.0-7.0-0.13","63d143b0a7426abcb7905b7e","B2","batch2","pattern_show_trial_num","null","<p class=block-text>Trial 53 out of 78</p>","null","","","","","","","","","","","","","","","","","","","","","","","","","",""
"","","","","","image-keyboard-response","258","740703","0.0-3.0-7.0-1.13","63d143b0a7426abcb7905b7e","B2","batch2","pattern_response","1121","stim/yes_45_hor_b2_b.png","f","pattern_67","f","true","","","","1121","true","51","","","","","","","","","","","","","","","","",""
"","","","","","html-keyboard-response","259","742020","0.0-3.0-7.0-0.14","63d143b0a7426abcb7905b7e","B2","batch2","pattern_show_trial_num","null","<p class=block-text>Trial 54 out of 78</p>","null","","","","","","","","","","","","","","","","","","","","","","","","","",""
"","","","","","image-keyboard-response","260","743886","0.0-3.0-7.0-1.14","63d143b0a7426abcb7905b7e","B2","batch2","pattern_response","1864","stim/yes_35_dia_b1.png","j","pattern_57","f","false","","","","1864","false","51","","","","","","","","","","","","","","","","",""
"","","","","","html-keyboard-response","261","745204","0.0-3.0-7.0-0.15","63d143b0a7426abcb7905b7e","B2","batch2","pattern_show_trial_num","null","<p class=block-text>Trial 55 out of 78</p>","null","","","","","","","","","","","","","","","","","","","","","","","","","",""
"","","","","","image-keyboard-response","262","745965","0.0-3.0-7.0-1.15","63d143b0a7426abcb7905b7e","B2","batch2","pattern_response","760","stim/yes_22_ver_w1.png","f","pattern_47","f","true","","","","760","true","52","","","","","","","","","","","","","","","","",""
"","","","","","html-keyboard-response","263","747285","0.0-3.0-7.0-0.16","63d143b0a7426abcb7905b7e","B2","batch2","pattern_show_trial_num","null","<p class=block-text>Trial 56 out of 78</p>","null","","","","","","","","","","","","","","","","","","","","","","","","","",""
"","","","","","image-keyboard-response","264","748166","0.0-3.0-7.0-1.16","63d143b0a7426abcb7905b7e","B2","batch2","pattern_response","880","stim/yes_43_ver_w1_w.png","f","pattern_65","f","true","","","","880","true","53","","","","","","","","","","","","","","","","",""
"","","","","","html-keyboard-response","265","749484","0.0-3.0-7.0-0.17","63d143b0a7426abcb7905b7e","B2","batch2","pattern_show_trial_num","null","<p class=block-text>Trial 57 out of 78</p>","null","","","","","","","","","","","","","","","","","","","","","","","","","",""
"","","","","","image-keyboard-response","266","750253","0.0-3.0-7.0-1.17","63d143b0a7426abcb7905b7e","B2","batch2","pattern_response","769","stim/yes_29_ver_w1.png","f","pattern_53","f","true","","","","769","true","54","","","","","","","","","","","","","","","","",""
"","","","","","html-keyboard-response","267","751571","0.0-3.0-7.0-0.18","63d143b0a7426abcb7905b7e","B2","batch2","pattern_show_trial_num","null","<p class=block-text>Trial 58 out of 78</p>","null","","","","","","","","","","","","","","","","","","","","","","","","","",""
"","","","","","image-keyboard-response","268","752264","0.0-3.0-7.0-1.18","63d143b0a7426abcb7905b7e","B2","batch2","pattern_response","692","stim/yes_14_hor_b1_w.png","f","pattern_43","f","true","","","","692","true","55","","","","","","","","","","","","","","","","",""
"","","","","","html-keyboard-response","269","753576","0.0-3.0-7.0-0.19","63d143b0a7426abcb7905b7e","B2","batch2","pattern_show_trial_num","null","<p class=block-text>Trial 59 out of 78</p>","null","","","","","","","","","","","","","","","","","","","","","","","","","",""
"","","","","","image-keyboard-response","270","754637","0.0-3.0-7.0-1.19","63d143b0a7426abcb7905b7e","B2","batch2","pattern_response","1059","stim/no_26_1_w.png","j","pattern_10","j","true","","","","1059","true","56","","","","","","","","","","","","","","","","",""
"","","","","","html-keyboard-response","271","755953","0.0-3.0-7.0-0.20","63d143b0a7426abcb7905b7e","B2","batch2","pattern_show_trial_num","null","<p class=block-text>Trial 60 out of 78</p>","null","","","","","","","","","","","","","","","","","","","","","","","","","",""
"","","","","","image-keyboard-response","272","757333","0.0-3.0-7.0-1.20","63d143b0a7426abcb7905b7e","B2","batch2","pattern_response","1379","stim/yes_31_hor_b1.png","f","pattern_55","f","true","","","","1379","true","57","","","","","","","","","","","","","","","","",""
"","","","","","html-keyboard-response","273","758649","0.0-3.0-7.0-0.21","63d143b0a7426abcb7905b7e","B2","batch2","pattern_show_trial_num","null","<p class=block-text>Trial 61 out of 78</p>","null","","","","","","","","","","","","","","","","","","","","","","","","","",""
"","","","","","image-keyboard-response","274","759501","0.0-3.0-7.0-1.21","63d143b0a7426abcb7905b7e","B2","batch2","pattern_response","851","stim/yes_28_ver_b1.png","f","pattern_51","f","true","","","","851","true","58","","","","","","","","","","","","","","","","",""
"","","","","","html-keyboard-response","275","760821","0.0-3.0-7.0-0.22","63d143b0a7426abcb7905b7e","B2","batch2","pattern_show_trial_num","null","<p class=block-text>Trial 62 out of 78</p>","null","","","","","","","","","","","","","","","","","","","","","","","","","",""
"","","","","","image-keyboard-response","276","762686","0.0-3.0-7.0-1.22","63d143b0a7426abcb7905b7e","B2","batch2","pattern_response","1864","stim/no_29_1_b.png","j","pattern_12","j","true","","","","1864","true","59","","","","","","","","","","","","","","","","",""
"","","","","","html-keyboard-response","277","764004","0.0-3.0-7.0-0.23","63d143b0a7426abcb7905b7e","B2","batch2","pattern_show_trial_num","null","<p class=block-text>Trial 63 out of 78</p>","null","","","","","","","","","","","","","","","","","","","","","","","","","",""
"","","","","","image-keyboard-response","278","767301","0.0-3.0-7.0-1.23","63d143b0a7426abcb7905b7e","B2","batch2","pattern_response","3296","stim/no_52_1.png","j","pattern_32","j","true","","","","3296","true","60","","","","","","","","","","","","","","","","",""
"","","","","","html-keyboard-response","279","768615","0.0-3.0-7.0-0.24","63d143b0a7426abcb7905b7e","B2","batch2","pattern_show_trial_num","null","<p class=block-text>Trial 64 out of 78</p>","null","","","","","","","","","","","","","","","","","","","","","","","","","",""
"","","","","","image-keyboard-response","280","770444","0.0-3.0-7.0-1.24","63d143b0a7426abcb7905b7e","B2","batch2","pattern_response","1828","stim/yes_67_hor_b1.png","f","pattern_79","f","true","","","","1828","true","61","","","","","","","","","","","","","","","","",""
"","","","","","html-keyboard-response","281","771760","0.0-3.0-7.0-0.25","63d143b0a7426abcb7905b7e","B2","batch2","pattern_show_trial_num","null","<p class=block-text>Trial 65 out of 78</p>","null","","","","","","","","","","","","","","","","","","","","","","","","","",""
"","","","","","image-keyboard-response","282","774542","0.0-3.0-7.0-1.25","63d143b0a7426abcb7905b7e","B2","batch2","pattern_response","2780","stim/no_36_2_w.png","j","pattern_18","j","true","","","","2780","true","62","","","","","","","","","","","","","","","","",""
"","","","","","html-keyboard-response","283","775856","0.0-3.0-7.0-0.26","63d143b0a7426abcb7905b7e","B2","batch2","pattern_show_trial_num","null","<p class=block-text>Trial 66 out of 78</p>","null","","","","","","","","","","","","","","","","","","","","","","","","","",""
"","","","","","image-keyboard-response","284","778316","0.0-3.0-7.0-1.26","63d143b0a7426abcb7905b7e","B2","batch2","pattern_response","2459","stim/no_38_1_b.png","j","pattern_20","j","true","","","","2459","true","63","","","","","","","","","","","","","","","","",""
"","","","","","html-keyboard-response","285","779636","0.0-3.0-7.0-0.27","63d143b0a7426abcb7905b7e","B2","batch2","pattern_show_trial_num","null","<p class=block-text>Trial 67 out of 78</p>","null","","","","","","","","","","","","","","","","","","","","","","","","","",""
"","","","","","image-keyboard-response","286","780412","0.0-3.0-7.0-1.27","63d143b0a7426abcb7905b7e","B2","batch2","pattern_response","774","stim/yes_25_hor_b1_b.png","f","pattern_49","f","true","","","","774","true","64","","","","","","","","","","","","","","","","",""
"","","","","","html-keyboard-response","287","781727","0.0-3.0-7.0-0.28","63d143b0a7426abcb7905b7e","B2","batch2","pattern_show_trial_num","null","<p class=block-text>Trial 68 out of 78</p>","null","","","","","","","","","","","","","","","","","","","","","","","","","",""
"","","","","","image-keyboard-response","288","784452","0.0-3.0-7.0-1.28","63d143b0a7426abcb7905b7e","B2","batch2","pattern_response","2724","stim/yes_50_dia_w1.png","f","pattern_71","f","true","","","","2724","true","65","","","","","","","","","","","","","","","","",""
"","","","","","html-keyboard-response","289","785767","0.0-3.0-7.0-0.29","63d143b0a7426abcb7905b7e","B2","batch2","pattern_show_trial_num","null","<p class=block-text>Trial 69 out of 78</p>","null","","","","","","","","","","","","","","","","","","","","","","","","","",""
"","","","","","image-keyboard-response","290","787429","0.0-3.0-7.0-1.29","63d143b0a7426abcb7905b7e","B2","batch2","pattern_response","1661","stim/yes_52_ver_w1.png","f","pattern_73","f","true","","","","1661","true","66","","","","","","","","","","","","","","","","",""
"","","","","","html-keyboard-response","291","788746","0.0-3.0-7.0-0.30","63d143b0a7426abcb7905b7e","B2","batch2","pattern_show_trial_num","null","<p class=block-text>Trial 70 out of 78</p>","null","","","","","","","","","","","","","","","","","","","","","","","","","",""
"","","","","","image-keyboard-response","292","789346","0.0-3.0-7.0-1.30","63d143b0a7426abcb7905b7e","B2","batch2","pattern_response","598","stim/yes_17_dia_w1.png","f","pattern_45","f","true","","","","598","true","67","","","","","","","","","","","","","","","","",""
"","","","","","html-keyboard-response","293","790667","0.0-3.0-7.0-0.31","63d143b0a7426abcb7905b7e","B2","batch2","pattern_show_trial_num","null","<p class=block-text>Trial 71 out of 78</p>","null","","","","","","","","","","","","","","","","","","","","","","","","","",""
"","","","","","image-keyboard-response","294","791268","0.0-3.0-7.0-1.31","63d143b0a7426abcb7905b7e","B2","batch2","pattern_response","600","stim/yes_38_hor_b1_b.png","f","pattern_61","f","true","","","","600","true","68","","","","","","","","","","","","","","","","",""
"","","","","","html-keyboard-response","295","792586","0.0-3.0-7.0-0.32","63d143b0a7426abcb7905b7e","B2","batch2","pattern_show_trial_num","null","<p class=block-text>Trial 72 out of 78</p>","null","","","","","","","","","","","","","","","","","","","","","","","","","",""
"","","","","","image-keyboard-response","296","793324","0.0-3.0-7.0-1.32","63d143b0a7426abcb7905b7e","B2","batch2","pattern_response","737","stim/no_17_1_w.png","j","pattern_04","j","true","","","","737","true","69","","","","","","","","","","","","","","","","",""
"","","","","","html-keyboard-response","297","794639","0.0-3.0-7.0-0.33","63d143b0a7426abcb7905b7e","B2","batch2","pattern_show_trial_num","null","<p class=block-text>Trial 73 out of 78</p>","null","","","","","","","","","","","","","","","","","","","","","","","","","",""
"","","","","","image-keyboard-response","298","797477","0.0-3.0-7.0-1.33","63d143b0a7426abcb7905b7e","B2","batch2","pattern_response","2836","stim/no_32_1_w.png","j","pattern_14","j","true","","","","2836","true","70","","","","","","","","","","","","","","","","",""
"","","","","","html-keyboard-response","299","798791","0.0-3.0-7.0-0.34","63d143b0a7426abcb7905b7e","B2","batch2","pattern_show_trial_num","null","<p class=block-text>Trial 74 out of 78</p>","null","","","","","","","","","","","","","","","","","","","","","","","","","",""
"","","","","","image-keyboard-response","300","802843","0.0-3.0-7.0-1.34","63d143b0a7426abcb7905b7e","B2","batch2","pattern_response","4049","stim/no_62_1_w.png","j","pattern_36","j","true","","","","4049","true","71","","","","","","","","","","","","","","","","",""
"","","","","","html-keyboard-response","301","804159","0.0-3.0-7.0-0.35","63d143b0a7426abcb7905b7e","B2","batch2","pattern_show_trial_num","null","<p class=block-text>Trial 75 out of 78</p>","null","","","","","","","","","","","","","","","","","","","","","","","","","",""
"","","","","","image-keyboard-response","302","805331","0.0-3.0-7.0-1.35","63d143b0a7426abcb7905b7e","B2","batch2","pattern_response","1170","stim/no_20_1_w.png","j","pattern_06","j","true","","","","1170","true","72","","","","","","","","","","","","","","","","",""
"","","","","","html-keyboard-response","303","806649","0.0-3.0-7.0-0.36","63d143b0a7426abcb7905b7e","B2","batch2","pattern_show_trial_num","null","<p class=block-text>Trial 76 out of 78</p>","null","","","","","","","","","","","","","","","","","","","","","","","","","",""
"","","","","","image-keyboard-response","304","808556","0.0-3.0-7.0-1.36","63d143b0a7426abcb7905b7e","B2","batch2","pattern_response","1907","stim/no_23_1.png","j","pattern_08","j","true","","","","1907","true","73","","","","","","","","","","","","","","","","",""
"","","","","","html-keyboard-response","305","809871","0.0-3.0-7.0-0.37","63d143b0a7426abcb7905b7e","B2","batch2","pattern_show_trial_num","null","<p class=block-text>Trial 77 out of 78</p>","null","","","","","","","","","","","","","","","","","","","","","","","","","",""
"","","","","","image-keyboard-response","306","813499","0.0-3.0-7.0-1.37","63d143b0a7426abcb7905b7e","B2","batch2","pattern_response","3627","stim/no_70_2.png","j","pattern_40","j","true","","","","3627","true","74","","","","","","","","","","","","","","","","",""
"","","","","","html-keyboard-response","307","814814","0.0-3.0-7.0-0.38","63d143b0a7426abcb7905b7e","B2","batch2","pattern_show_trial_num","null","<p class=block-text>Trial 78 out of 78</p>","null","","","","","","","","","","","","","","","","","","","","","","","","","",""
"","","","","","image-keyboard-response","308","817858","0.0-3.0-7.0-1.38","63d143b0a7426abcb7905b7e","B2","batch2","pattern_response","3042","stim/no_48_1_w.png","j","pattern_28","j","true","","","","3042","true","75","","","","","","","","","","","","","","","","",""
"","","","","","html-button-response","309","822145","0.0-3.0-8.0","63d143b0a7426abcb7905b7e","B2","batch2","","3779","<p class = block-text>This concludes the 4-in-a-row detection game.Thank you for your responses!<br>
            You responded correctly on 96% of the trials.<br>
            When you are ready, press ""Continue"" button to continue </p>","0","","","","","","","","","","","","","","","","","","","","","","","","","",""
"true","","","","","fullscreen","310","825392","0.0-4.0-0.0","63d143b0a7426abcb7905b7e","B2","batch2","","","","","","","","","","","","","","","","","","","","","","","","","","","","","",""
"","","","","","instructions","311","862522","0.0-4.0-1.0-0.0-0.0","63d143b0a7426abcb7905b7e","B2","batch2","tol-instructions","37131","","","","","","","","[{""page_index"":0,""viewing_time"":13464},{""page_index"":1,""viewing_time"":3997},{""page_index"":2,""viewing_time"":2601},{""page_index"":3,""viewing_time"":6253},{""page_index"":4,""viewing_time"":1611},{""page_index"":5,""viewing_time"":7340},{""page_index"":6,""viewing_time"":1865}]","","","","","","","","","","","","","","","","","","","",""
"","","","","","html-button-response","312","863334","0.0-4.0-1.0-1.0-0.0","63d143b0a7426abcb7905b7e","B2","batch2","tol_enter_quiz","811","<p class=block-text> Let's answer a few questions <br>","0","","","","","","","","","","","","","","","","","","","","","","","","","",""
"","","","","","html-button-response","313","871658","0.0-4.0-1.0-1.0-1.0","63d143b0a7426abcb7905b7e","B2","batch2","tol_quiz","8323","<p class = block-text>True or False: You can only move the ball on top of a peg. <br></p>","1","","","false","","","","","","","","","","","","","","","","","","","","","","",""
"","","","","","html-button-response","314","872652","0.0-4.0-1.0-1.0-2.0","63d143b0a7426abcb7905b7e","B2","batch2","tol_quiz_feedback","992","<p class = block-text>Incorrect. Remember, you can only move the ball on top of a peg.</p>","0","","","","","","","","","","","","","","","","","","","","","","","","","",""
"","","","","","html-button-response","315","875145","0.0-4.0-1.0-1.0-3.0","63d143b0a7426abcb7905b7e","B2","batch2","tol_quiz","2493","<p class = block-text>True or False: You should try to match your board with the target board with fewest moves possible. <br></p>","0","","","true","","","","","","","","","","","","","","","","","","","","","","",""
"","","","","","html-button-response","316","876313","0.0-4.0-1.0-1.0-4.0","63d143b0a7426abcb7905b7e","B2","batch2","tol_quiz_feedback","1167","<p class = block-text>Correct! </p>","0","","","","","","","","","","","","","","","","","","","","","","","","","",""
"","","","","","html-button-response","317","876985","0.0-4.0-1.0-2.0-0.0","63d143b0a7426abcb7905b7e","B2","batch2","","671","<p class = block-text>You made too many incorrect choices.</p><p class = block-text>You will now repeat the instructions and quiz</p>","0","","","","","","","","","","","","","","","","","","","","","","","","","",""
"","","","","","instructions","318","880712","0.0-4.0-1.1-0.1-0.1","63d143b0a7426abcb7905b7e","B2","batch2","tol-instructions","3726","","","","","","","","[{""page_index"":0,""viewing_time"":882},{""page_index"":1,""viewing_time"":289},{""page_index"":2,""viewing_time"":321},{""page_index"":3,""viewing_time"":235},{""page_index"":4,""viewing_time"":379},{""page_index"":5,""viewing_time"":400},{""page_index"":6,""viewing_time"":1220}]","","","","","","","","","","","","","","","","","","","",""
"","","","","","html-button-response","319","881437","0.0-4.0-1.1-1.1-0.1","63d143b0a7426abcb7905b7e","B2","batch2","tol_enter_quiz","724","<p class=block-text> Let's answer a few questions <br>","0","","","","","","","","","","","","","","","","","","","","","","","","","",""
"","","","","","html-button-response","320","883315","0.0-4.0-1.1-1.1-1.1","63d143b0a7426abcb7905b7e","B2","batch2","tol_quiz","1877","<p class = block-text>True or False: You can only move the ball on top of a peg. <br></p>","0","","","true","","","","","","","","","","","","","","","","","","","","","","",""
"","","","","","html-button-response","321","883897","0.0-4.0-1.1-1.1-2.1","63d143b0a7426abcb7905b7e","B2","batch2","tol_quiz_feedback","581","<p class = block-text>Correct! You can only move the ball on top of a peg.</p>","0","","","","","","","","","","","","","","","","","","","","","","","","","",""
"","","","","","html-button-response","322","884882","0.0-4.0-1.1-1.1-3.1","63d143b0a7426abcb7905b7e","B2","batch2","tol_quiz","984","<p class = block-text>True or False: You should try to match your board with the target board with fewest moves possible. <br></p>","0","","","true","","","","","","","","","","","","","","","","","","","","","","",""
"","","","","","html-button-response","323","885387","0.0-4.0-1.1-1.1-4.1","63d143b0a7426abcb7905b7e","B2","batch2","tol_quiz_feedback","504","<p class = block-text>Correct! </p>","0","","","","","","","","","","","","","","","","","","","","","","","","","",""
"","","","","","html-button-response","324","885940","0.0-4.0-2.0","63d143b0a7426abcb7905b7e","B2","batch2","","553","<p class=block-text> Now that you've understood the game, let's practice a few easier examples before we start!<br> <br>","0","","","","","","","","","","","","","","","","","","","","","","","","","",""
"","","","","","single-stim-button","325","889116","0.0-4.0-3.0-0.0","63d143b0a7426abcb7905b7e","B2","batch2","tol_practice","3174","","","","","","","","","","","","","","tol_peg_2","3174","3174","0","[[1,2,0],[0,0],[0]]","1","[[1,2,0],[0,0],[3]]","practice","3174","","","","","",""
"","","","","","single-stim-button","326","889986","0.0-4.0-3.0-1.0","63d143b0a7426abcb7905b7e","B2","batch2","tol_practice","869","","","","","","","","","","","","","","tol_peg_3","869","869","0","[[1,2,0],[0,0],[3]]","1","[[1,2,0],[0,0],[3]]","practice","869","","","","","",""
"","","","","","poldrack-single-stim","327","890989","0.0-4.0-4.0","63d143b0a7426abcb7905b7e","B2","batch2","tol_feedback","-1","","","","","true","","","","","","","","","","1000","1000","500","","","","","","-1","none","true","","0",""
"","","","","","single-stim-button","328","894050","0.0-4.0-5.0-0.0","63d143b0a7426abcb7905b7e","B2","batch2","tol_practice","3059","","","","","","","","","","","","","","tol_peg_1","3059","3059","0","[[1,0,0],[3,0],[0]]","2","[[0,0,0],[3,1],[2]]","practice","3059","","","","","",""
"","","","","","single-stim-button","329","894719","0.0-4.0-5.0-1.0","63d143b0a7426abcb7905b7e","B2","batch2","tol_practice","668","","","","","","","","","","","","","","tol_peg_3","668","668","0","[[1,0,0],[3,0],[2]]","2","[[0,0,0],[3,1],[2]]","practice","668","","","","","",""
"","","","","","single-stim-button","330","895951","0.0-4.0-5.1-0.1","63d143b0a7426abcb7905b7e","B2","batch2","tol_practice","1231","","","","","","","","","","","","","","tol_peg_1","1231","1231","0","[[0,0,0],[3,0],[2]]","3","[[0,0,0],[3,1],[2]]","practice","1231","","","","","",""
"","","","","","single-stim-button","331","896370","0.0-4.0-5.1-1.1","63d143b0a7426abcb7905b7e","B2","batch2","tol_practice","419","","","","","","","","","","","","","","tol_peg_2","419","419","0","[[0,0,0],[3,1],[2]]","3","[[0,0,0],[3,1],[2]]","practice","419","","","","","",""
"","","","","","poldrack-single-stim","332","897375","0.0-4.0-6.0","63d143b0a7426abcb7905b7e","B2","batch2","tol_feedback","-1","","","","","true","","","","","","","","","","1000","1000","500","","","","","","-1","none","true","","0",""
"","","","","","single-stim-button","333","899213","0.0-4.0-7.0-0.0","63d143b0a7426abcb7905b7e","B2","batch2","tol_practice","1838","","","","","","","","","","","","","","tol_peg_2","1838","1838","0","[[1,2,0],[0,0],[0]]","4","[[1,0,0],[2,0],[3]]","practice","1838","","","","","",""
"","","","","","single-stim-button","334","899933","0.0-4.0-7.0-1.0","63d143b0a7426abcb7905b7e","B2","batch2","tol_practice","720","","","","","","","","","","","","","","tol_peg_3","720","720","0","[[1,2,0],[0,0],[3]]","4","[[1,0,0],[2,0],[3]]","practice","720","","","","","",""
"","","","","","single-stim-button","335","900640","0.0-4.0-7.1-0.1","63d143b0a7426abcb7905b7e","B2","batch2","tol_practice","705","","","","","","","","","","","","","","tol_peg_1","705","705","0","[[1,0,0],[0,0],[3]]","5","[[1,0,0],[2,0],[3]]","practice","705","","","","","",""
"","","","","","single-stim-button","336","901474","0.0-4.0-7.1-1.1","63d143b0a7426abcb7905b7e","B2","batch2","tol_practice","833","","","","","","","","","","","","","","tol_peg_2","833","833","0","[[1,0,0],[2,0],[3]]","5","[[1,0,0],[2,0],[3]]","practice","833","","","","","",""
"","","","","","poldrack-single-stim","337","902476","0.0-4.0-8.0","63d143b0a7426abcb7905b7e","B2","batch2","tol_feedback","-1","","","","","true","","","","","","","","","","1000","1000","500","","","","","","-1","none","true","","0",""
"","","","","","html-button-response","338","903852","0.0-4.0-9.0","63d143b0a7426abcb7905b7e","B2","batch2","tol_instruction","1374","<div class = centerbox><p class = center-block-text>Great job! You are done with practice trials<br>You are about to start official trials.<br> <br> Problem <strong>1</strong> out of 25 problems</p></div>","0","","","","","","","","","","","","","","","","","","","","","","","","","",""
"","","","","","single-stim-button","339","910321","0.0-4.0-10.0-0.0","63d143b0a7426abcb7905b7e","B2","batch2","tol_tohand","5462","","","","","","","","","","","","","","tol_peg_2","5462","5462","0","[[1,2,0],[0,0],[0]]","1","[[1,3,0],[2,0],[0]]","0","0","","","","","","3"
"","","","","","single-stim-button","340","911117","0.0-4.0-10.0-1.0","63d143b0a7426abcb7905b7e","B2","batch2","tol_toboard","796","","","","","","","","","","","","","","tol_peg_3","796","796","0","[[1,2,0],[0,0],[3]]","1","[[1,3,0],[2,0],[0]]","0","0","","","","","","3"
"","","","","","single-stim-button","341","911867","0.0-4.0-10.1-0.1","63d143b0a7426abcb7905b7e","B2","batch2","tol_tohand","749","","","","","","","","","","","","","","tol_peg_1","749","749","0","[[1,0,0],[0,0],[3]]","2","[[1,3,0],[2,0],[0]]","0","0","","","","","","3"
"","","","","","single-stim-button","342","912519","0.0-4.0-10.1-1.1","63d143b0a7426abcb7905b7e","B2","batch2","tol_toboard","651","","","","","","","","","","","","","","tol_peg_2","651","651","0","[[1,0,0],[2,0],[3]]","2","[[1,3,0],[2,0],[0]]","0","0","","","","","","3"
"","","","","","single-stim-button","343","913008","0.0-4.0-10.2-0.2","63d143b0a7426abcb7905b7e","B2","batch2","tol_tohand","488","","","","","","","","","","","","","","tol_peg_3","488","488","0","[[1,0,0],[2,0],[0]]","3","[[1,3,0],[2,0],[0]]","0","0","","","","","","3"
"","","","","","single-stim-button","344","913778","0.0-4.0-10.2-1.2","63d143b0a7426abcb7905b7e","B2","batch2","tol_toboard","769","","","","","","","","","","","","","","tol_peg_1","769","769","0","[[1,3,0],[2,0],[0]]","3","[[1,3,0],[2,0],[0]]","0","0","","","","","","3"
"","","","","","poldrack-single-stim","345","914785","0.0-4.0-11.0","63d143b0a7426abcb7905b7e","B2","batch2","tol_feedback","-1","","","","","true","","","","","","","","","","1000","1000","500","","","","","","-1","none","true","5462","6699",""
"","","","","","html-button-response","346","915744","0.0-4.0-12.0","63d143b0a7426abcb7905b7e","B2","batch2","tol_trial_num","957","<div class = centerbox><p class = center-block-text>problem <strong>2</strong> out of 25 problems</p></div>","0","","","","","","","","","","","","","","","","","","","","","","","","","",""
"","","","","","single-stim-button","347","918841","0.0-4.0-13.0-0.0","63d143b0a7426abcb7905b7e","B2","batch2","tol_tohand","3097","","","","","","","","","","","","","","tol_peg_1","3097","3097","0","[[1,0,0],[3,0],[0]]","1","[[2,1,3],[0,0],[0]]","1","0","","","","","","5"
"","","","","","single-stim-button","348","923161","0.0-4.0-13.0-1.0","63d143b0a7426abcb7905b7e","B2","batch2","tol_toboard","4319","","","","","","","","","","","","","","tol_peg_2","4319","4319","0","[[1,0,0],[3,2],[0]]","1","[[2,1,3],[0,0],[0]]","1","0","","","","","","5"
"","","","","","single-stim-button","349","923678","0.0-4.0-13.1-0.1","63d143b0a7426abcb7905b7e","B2","batch2","tol_tohand","516","","","","","","","","","","","","","","tol_peg_1","516","516","0","[[0,0,0],[3,2],[0]]","2","[[2,1,3],[0,0],[0]]","1","0","","","","","","5"
"","","","","","single-stim-button","350","924408","0.0-4.0-13.1-1.1","63d143b0a7426abcb7905b7e","B2","batch2","tol_toboard","729","","","","","","","","","","","","","","tol_peg_3","729","729","0","[[0,0,0],[3,2],[1]]","2","[[2,1,3],[0,0],[0]]","1","0","","","","","","5"
"","","","","","single-stim-button","351","924955","0.0-4.0-13.2-0.2","63d143b0a7426abcb7905b7e","B2","batch2","tol_tohand","547","","","","","","","","","","","","","","tol_peg_2","547","547","0","[[0,0,0],[3,0],[1]]","3","[[2,1,3],[0,0],[0]]","1","0","","","","","","5"
"","","","","","single-stim-button","352","925670","0.0-4.0-13.2-1.2","63d143b0a7426abcb7905b7e","B2","batch2","tol_toboard","713","","","","","","","","","","","","","","tol_peg_1","713","713","0","[[2,0,0],[3,0],[1]]","3","[[2,1,3],[0,0],[0]]","1","0","","","","","","5"
"","","","","","single-stim-button","353","926331","0.0-4.0-13.3-0.3","63d143b0a7426abcb7905b7e","B2","batch2","tol_tohand","661","","","","","","","","","","","","","","tol_peg_3","661","661","0","[[2,0,0],[3,0],[0]]","4","[[2,1,3],[0,0],[0]]","1","0","","","","","","5"
"","","","","","single-stim-button","354","927168","0.0-4.0-13.3-1.3","63d143b0a7426abcb7905b7e","B2","batch2","tol_toboard","836","","","","","","","","","","","","","","tol_peg_1","836","836","0","[[2,1,0],[3,0],[0]]","4","[[2,1,3],[0,0],[0]]","1","0","","","","","","5"
"","","","","","single-stim-button","355","927620","0.0-4.0-13.4-0.4","63d143b0a7426abcb7905b7e","B2","batch2","tol_tohand","450","","","","","","","","","","","","","","tol_peg_2","450","450","0","[[2,1,0],[0,0],[0]]","5","[[2,1,3],[0,0],[0]]","1","0","","","","","","5"
"","","","","","single-stim-button","356","928152","0.0-4.0-13.4-1.4","63d143b0a7426abcb7905b7e","B2","batch2","tol_toboard","532","","","","","","","","","","","","","","tol_peg_1","532","532","0","[[2,1,3],[0,0],[0]]","5","[[2,1,3],[0,0],[0]]","1","0","","","","","","5"
"","","","","","poldrack-single-stim","357","929154","0.0-4.0-14.0","63d143b0a7426abcb7905b7e","B2","batch2","tol_feedback","-1","","","","","true","","","","","","","","","","1000","1000","500","","","","","","-1","none","true","3097","5271",""
