"success","timeout","failed_images","failed_audio","failed_video","trial_type","trial_index","time_elapsed","internal_node_id","subject_id","study_id","session_id","view_history","rt","task","stimulus","response","correct","mouse_click","stim_duration","block_duration","timing_post_trial","current_position","tol_num_moves_made","tol_target","tol_problem_id","tol_rt","key_press","possible_responses","tol_correct","preplanning","tol_rt_per_trial","tol_min_moves","answer","item","fiar_detect_rt","fiar_detect_correct","total_correct_fiar_detect","post_trial_gap","choices","spm_correct","spm_rt"
"true","false","[]","[]","[]","preload","0","4230","0.0-0.0","63d1ac235a42c0eee8e90ff9","D2","batch4","","","","","","","","","","","","","","","","","","","","","","","","","","","","","",""
"true","","","","","fullscreen","1","66194","0.0-1.0-0.0","63d1ac235a42c0eee8e90ff9","D2","batch4","","","","","","","","","","","","","","","","","","","","","","","","","","","","","",""
"true","","","","","fullscreen","2","71150","0.0-2.0-0.0","63d1ac235a42c0eee8e90ff9","D2","batch4","","","","","","","","","","","","","","","","","","","","","","","","","","","","","",""
"","","","","","instructions","3","160680","0.0-2.0-1.0-0.0-0.0","63d1ac235a42c0eee8e90ff9","D2","batch4","[{""page_index"":0,""viewing_time"":20520.600000023842},{""page_index"":1,""viewing_time"":7487.199999988079},{""page_index"":2,""viewing_time"":6528.400000035763},{""page_index"":3,""viewing_time"":17122.5},{""page_index"":4,""viewing_time"":10413.799999952316},{""page_index"":5,""viewing_time"":23342.80000001192},{""page_index"":6,""viewing_time"":4112.5}]","89528.20000004768","tol-instructions","","","","","","","","","","","","","","","","","","","","","","","","","","",""
"","","","","","html-button-response","4","162515","0.0-2.0-1.0-1.0-0.0","63d1ac235a42c0eee8e90ff9","D2","batch4","","1833.800000011921","tol_enter_quiz","<p class=block-text> Let's answer a few questions <br>","0","","","","","","","","","","","","","","","","","","","","","","","","",""
"","","","","","html-button-response","5","167760","0.0-2.0-1.0-1.0-1.0","63d1ac235a42c0eee8e90ff9","D2","batch4","","5241.599999964237","tol_quiz","<p class = block-text>True or False: You can only move the ball on top of a peg. <br></p>","0","true","","","","","","","","","","","","","","","","","","","","","","","",""
"","","","","","html-button-response","6","169437","0.0-2.0-1.0-1.0-2.0","63d1ac235a42c0eee8e90ff9","D2","batch4","","1675.300000011921","tol_quiz_feedback","<p class = block-text>Correct! You can only move the ball on top of a peg.</p>","0","","","","","","","","","","","","","","","","","","","","","","","","",""
"","","","","","html-button-response","7","173575","0.0-2.0-1.0-1.0-3.0","63d1ac235a42c0eee8e90ff9","D2","batch4","","4136.800000011921","tol_quiz","<p class = block-text>True or False: You should try to match your board with the target board with fewest moves possible. <br></p>","0","true","","","","","","","","","","","","","","","","","","","","","","","",""
"","","","","","html-button-response","8","174741","0.0-2.0-1.0-1.0-4.0","63d1ac235a42c0eee8e90ff9","D2","batch4","","1165.199999988079","tol_quiz_feedback","<p class = block-text>Correct! </p>","0","","","","","","","","","","","","","","","","","","","","","","","","",""
"","","","","","html-button-response","9","177489","0.0-2.0-2.0","63d1ac235a42c0eee8e90ff9","D2","batch4","","2746","","<p class=block-text> Now that you've understood the game, let's practice a few easier examples before we start!<br> <br>","0","","","","","","","","","","","","","","","","","","","","","","","","",""
"","","","","","single-stim-button","10","180201","0.0-2.0-3.0-0.0","63d1ac235a42c0eee8e90ff9","D2","batch4","","2707","tol_practice","","","","tol_peg_2","2707","2707","0","[[1,2,0],[0,0],[0]]","1","[[1,2,0],[0,0],[3]]","practice","2707","","","","","","","","","","","","","","",""
"","","","","","single-stim-button","11","181602","0.0-2.0-3.0-1.0","63d1ac235a42c0eee8e90ff9","D2","batch4","","1399","tol_practice","","","","tol_peg_3","1399","1399","0","[[1,2,0],[0,0],[3]]","1","[[1,2,0],[0,0],[3]]","practice","1399","","","","","","","","","","","","","","",""
"","","","","","poldrack-single-stim","12","182611","0.0-2.0-4.0","63d1ac235a42c0eee8e90ff9","D2","batch4","","-1","tol_feedback","","","true","","1000","1000","500","","","","","","-1","none","true","","0","","","","","","","","","",""
"","","","","","single-stim-button","13","186797","0.0-2.0-5.0-0.0","63d1ac235a42c0eee8e90ff9","D2","batch4","","4184","tol_practice","","","","tol_peg_1","4184","4184","0","[[1,0,0],[3,0],[0]]","2","[[0,0,0],[3,1],[2]]","practice","4184","","","","","","","","","","","","","","",""
"","","","","","single-stim-button","14","188501","0.0-2.0-5.0-1.0","63d1ac235a42c0eee8e90ff9","D2","batch4","","1704","tol_practice","","","","tol_peg_3","1704","1704","0","[[1,0,0],[3,0],[2]]","2","[[0,0,0],[3,1],[2]]","practice","1704","","","","","","","","","","","","","","",""
"","","","","","single-stim-button","15","189963","0.0-2.0-5.1-0.1","63d1ac235a42c0eee8e90ff9","D2","batch4","","1460","tol_practice","","","","tol_peg_1","1460","1460","0","[[0,0,0],[3,0],[2]]","3","[[0,0,0],[3,1],[2]]","practice","1460","","","","","","","","","","","","","","",""
"","","","","","single-stim-button","16","191251","0.0-2.0-5.1-1.1","63d1ac235a42c0eee8e90ff9","D2","batch4","","1287","tol_practice","","","","tol_peg_2","1287","1287","0","[[0,0,0],[3,1],[2]]","3","[[0,0,0],[3,1],[2]]","practice","1287","","","","","","","","","","","","","","",""
"","","","","","poldrack-single-stim","17","192260","0.0-2.0-6.0","63d1ac235a42c0eee8e90ff9","D2","batch4","","-1","tol_feedback","","","true","","1000","1000","500","","","","","","-1","none","true","","0","","","","","","","","","",""
"","","","","","single-stim-button","18","195268","0.0-2.0-7.0-0.0","63d1ac235a42c0eee8e90ff9","D2","batch4","","3007","tol_practice","","","","tol_peg_2","3007","3007","0","[[1,2,0],[0,0],[0]]","4","[[1,0,0],[2,0],[3]]","practice","3007","","","","","","","","","","","","","","",""
"","","","","","single-stim-button","19","196767","0.0-2.0-7.0-1.0","63d1ac235a42c0eee8e90ff9","D2","batch4","","1498","tol_practice","","","","tol_peg_3","1498","1498","0","[[1,2,0],[0,0],[3]]","4","[[1,0,0],[2,0],[3]]","practice","1498","","","","","","","","","","","","","","",""
"","","","","","single-stim-button","20","197784","0.0-2.0-7.1-0.1","63d1ac235a42c0eee8e90ff9","D2","batch4","","1015","tol_practice","","","","tol_peg_1","1015","1015","0","[[1,0,0],[0,0],[3]]","5","[[1,0,0],[2,0],[3]]","practice","1015","","","","","","","","","","","","","","",""
"","","","","","single-stim-button","21","198878","0.0-2.0-7.1-1.1","63d1ac235a42c0eee8e90ff9","D2","batch4","","1094","tol_practice","","","","tol_peg_2","1094","1094","0","[[1,0,0],[2,0],[3]]","5","[[1,0,0],[2,0],[3]]","practice","1094","","","","","","","","","","","","","","",""
"","","","","","poldrack-single-stim","22","199887","0.0-2.0-8.0","63d1ac235a42c0eee8e90ff9","D2","batch4","","-1","tol_feedback","","","true","","1000","1000","500","","","","","","-1","none","true","","0","","","","","","","","","",""
"","","","","","html-button-response","23","205495","0.0-2.0-9.0","63d1ac235a42c0eee8e90ff9","D2","batch4","","5606.099999964237","tol_instruction","<div class = centerbox><p class = center-block-text>Great job! You are done with practice trials<br>You are about to start official trials.<br> <br> Problem <strong>1</strong> out of 25 problems</p></div>","0","","","","","","","","","","","","","","","","","","","","","","","","",""
"","","","","","single-stim-button","24","213146","0.0-2.0-10.0-0.0","63d1ac235a42c0eee8e90ff9","D2","batch4","","6636","tol_tohand","","","","tol_peg_2","6636","6636","0","[[1,2,0],[0,0],[0]]","1","[[1,3,0],[2,0],[0]]","0","0","","","","","","3","","","","","","","","",""
"","","","","","single-stim-button","25","215334","0.0-2.0-10.0-1.0","63d1ac235a42c0eee8e90ff9","D2","batch4","","2187","tol_toboard","","","","tol_peg_3","2187","2187","0","[[1,2,0],[0,0],[3]]","1","[[1,3,0],[2,0],[0]]","0","0","","","","","","3","","","","","","","","",""
"","","","","","single-stim-button","26","216713","0.0-2.0-10.1-0.1","63d1ac235a42c0eee8e90ff9","D2","batch4","","1378","tol_tohand","","","","tol_peg_1","1378","1378","0","[[1,0,0],[0,0],[3]]","2","[[1,3,0],[2,0],[0]]","0","0","","","","","","3","","","","","","","","",""
"","","","","","single-stim-button","27","217974","0.0-2.0-10.1-1.1","63d1ac235a42c0eee8e90ff9","D2","batch4","","1259","tol_toboard","","","","tol_peg_2","1259","1259","0","[[1,0,0],[2,0],[3]]","2","[[1,3,0],[2,0],[0]]","0","0","","","","","","3","","","","","","","","",""
"","","","","","single-stim-button","28","218870","0.0-2.0-10.2-0.2","63d1ac235a42c0eee8e90ff9","D2","batch4","","895","tol_tohand","","","","tol_peg_3","895","895","0","[[1,0,0],[2,0],[0]]","3","[[1,3,0],[2,0],[0]]","0","0","","","","","","3","","","","","","","","",""
"","","","","","single-stim-button","29","220134","0.0-2.0-10.2-1.2","63d1ac235a42c0eee8e90ff9","D2","batch4","","1263","tol_toboard","","","","tol_peg_1","1263","1263","0","[[1,3,0],[2,0],[0]]","3","[[1,3,0],[2,0],[0]]","0","0","","","","","","3","","","","","","","","",""
"","","","","","poldrack-single-stim","30","221146","0.0-2.0-11.0","63d1ac235a42c0eee8e90ff9","D2","batch4","","-1","tol_feedback","","","true","","1000","1000","500","","","","","","-1","none","true","6636","8909","","","","","","","","","",""
"","","","","","html-button-response","31","222440","0.0-2.0-12.0","63d1ac235a42c0eee8e90ff9","D2","batch4","","1292.3999999761581","tol_trial_num","<div class = centerbox><p class = center-block-text>problem <strong>2</strong> out of 25 problems</p></div>","0","","","","","","","","","","","","","","","","","","","","","","","","",""
"","","","","","single-stim-button","32","230081","0.0-2.0-13.0-0.0","63d1ac235a42c0eee8e90ff9","D2","batch4","","7640","tol_tohand","","","","tol_peg_1","7640","7640","0","[[1,0,0],[3,0],[0]]","1","[[2,1,3],[0,0],[0]]","1","0","","","","","","5","","","","","","","","",""
"","","","","","single-stim-button","33","231865","0.0-2.0-13.0-1.0","63d1ac235a42c0eee8e90ff9","D2","batch4","","1781","tol_toboard","","","","tol_peg_3","1781","1781","0","[[1,0,0],[3,0],[2]]","1","[[2,1,3],[0,0],[0]]","1","0","","","","","","5","","","","","","","","",""
"","","","","","single-stim-button","34","233557","0.0-2.0-13.1-0.1","63d1ac235a42c0eee8e90ff9","D2","batch4","","1690","tol_tohand","","","","tol_peg_1","1690","1690","0","[[0,0,0],[3,0],[2]]","2","[[2,1,3],[0,0],[0]]","1","0","","","","","","5","","","","","","","","",""
"","","","","","single-stim-button","35","234850","0.0-2.0-13.1-1.1","63d1ac235a42c0eee8e90ff9","D2","batch4","","1292","tol_toboard","","","","tol_peg_2","1292","1292","0","[[0,0,0],[3,1],[2]]","2","[[2,1,3],[0,0],[0]]","1","0","","","","","","5","","","","","","","","",""
"","","","","","single-stim-button","36","235876","0.0-2.0-13.2-0.2","63d1ac235a42c0eee8e90ff9","D2","batch4","","1025","tol_tohand","","","","tol_peg_3","1025","1025","0","[[0,0,0],[3,1],[0]]","3","[[2,1,3],[0,0],[0]]","1","0","","","","","","5","","","","","","","","",""
"","","","","","single-stim-button","37","237133","0.0-2.0-13.2-1.2","63d1ac235a42c0eee8e90ff9","D2","batch4","","1257","tol_toboard","","","","tol_peg_1","1257","1257","0","[[2,0,0],[3,1],[0]]","3","[[2,1,3],[0,0],[0]]","1","0","","","","","","5","","","","","","","","",""
"","","","","","single-stim-button","38","238694","0.0-2.0-13.3-0.3","63d1ac235a42c0eee8e90ff9","D2","batch4","","1560","tol_tohand","","","","tol_peg_2","1560","1560","0","[[2,0,0],[3,0],[0]]","4","[[2,1,3],[0,0],[0]]","1","0","","","","","","5","","","","","","","","",""
"","","","","","single-stim-button","39","240381","0.0-2.0-13.3-1.3","63d1ac235a42c0eee8e90ff9","D2","batch4","","1686","tol_toboard","","","","tol_peg_1","1686","1686","0","[[2,1,0],[3,0],[0]]","4","[[2,1,3],[0,0],[0]]","1","0","","","","","","5","","","","","","","","",""
"","","","","","single-stim-button","40","241234","0.0-2.0-13.4-0.4","63d1ac235a42c0eee8e90ff9","D2","batch4","","851","tol_tohand","","","","tol_peg_2","851","851","0","[[2,1,0],[0,0],[0]]","5","[[2,1,3],[0,0],[0]]","1","0","","","","","","5","","","","","","","","",""
"","","","","","single-stim-button","41","242366","0.0-2.0-13.4-1.4","63d1ac235a42c0eee8e90ff9","D2","batch4","","1131","tol_toboard","","","","tol_peg_1","1131","1131","0","[[2,1,3],[0,0],[0]]","5","[[2,1,3],[0,0],[0]]","1","0","","","","","","5","","","","","","","","",""
"","","","","","poldrack-single-stim","42","243368","0.0-2.0-14.0","63d1ac235a42c0eee8e90ff9","D2","batch4","","-1","tol_feedback","","","true","","1000","1000","500","","","","","","-1","none","true","7640","12766","","","","","","","","","",""
"","","","","","html-button-response","43","244893","0.0-2.0-15.0","63d1ac235a42c0eee8e90ff9","D2","batch4","","1523.9000000357628","tol_trial_num","<div class = centerbox><p class = center-block-text>problem <strong>3</strong> out of 25 problems</p></div>","0","","","","","","","","","","","","","","","","","","","","","","","","",""
"","","","","","single-stim-button","44","248200","0.0-2.0-16.0-0.0","63d1ac235a42c0eee8e90ff9","D2","batch4","","3306","tol_tohand","","","","tol_peg_1","3306","3306","0","[[2,0,0],[0,0],[1]]","1","[[1,2,0],[3,0],[0]]","2","0","","","","","","4","","","","","","","","",""
"","","","","","single-stim-button","45","254742","0.0-2.0-16.0-1.0","63d1ac235a42c0eee8e90ff9","D2","batch4","","6540","tol_toboard","","","","tol_peg_2","6540","6540","0","[[2,0,0],[3,0],[1]]","1","[[1,2,0],[3,0],[0]]","2","0","","","","","","4","","","","","","","","",""
"","","","","","single-stim-button","46","257930","0.0-2.0-16.1-0.1","63d1ac235a42c0eee8e90ff9","D2","batch4","","3186","tol_tohand","","","","tol_peg_1","3186","3186","0","[[0,0,0],[3,0],[1]]","2","[[1,2,0],[3,0],[0]]","2","0","","","","","","4","","","","","","","","",""
"","","","","","single-stim-button","47","259626","0.0-2.0-16.1-1.1","63d1ac235a42c0eee8e90ff9","D2","batch4","","1695","tol_toboard","","","","tol_peg_2","1695","1695","0","[[0,0,0],[3,2],[1]]","2","[[1,2,0],[3,0],[0]]","2","0","","","","","","4","","","","","","","","",""
"","","","","","single-stim-button","48","260746","0.0-2.0-16.2-0.2","63d1ac235a42c0eee8e90ff9","D2","batch4","","1119","tol_tohand","","","","tol_peg_3","1119","1119","0","[[0,0,0],[3,2],[0]]","3","[[1,2,0],[3,0],[0]]","2","0","","","","","","4","","","","","","","","",""
"","","","","","single-stim-button","49","261952","0.0-2.0-16.2-1.2","63d1ac235a42c0eee8e90ff9","D2","batch4","","1205","tol_toboard","","","","tol_peg_1","1205","1205","0","[[1,0,0],[3,2],[0]]","3","[[1,2,0],[3,0],[0]]","2","0","","","","","","4","","","","","","","","",""
"","","","","","single-stim-button","50","262985","0.0-2.0-16.3-0.3","63d1ac235a42c0eee8e90ff9","D2","batch4","","1031","tol_tohand","","","","tol_peg_2","1031","1031","0","[[1,0,0],[3,0],[0]]","4","[[1,2,0],[3,0],[0]]","2","0","","","","","","4","","","","","","","","",""
"","","","","","single-stim-button","51","263944","0.0-2.0-16.3-1.3","63d1ac235a42c0eee8e90ff9","D2","batch4","","958","tol_toboard","","","","tol_peg_1","958","958","0","[[1,2,0],[3,0],[0]]","4","[[1,2,0],[3,0],[0]]","2","0","","","","","","4","","","","","","","","",""
"","","","","","poldrack-single-stim","52","264946","0.0-2.0-17.0","63d1ac235a42c0eee8e90ff9","D2","batch4","","-1","tol_feedback","","","true","","1000","1000","500","","","","","","-1","none","true","3306","8642","","","","","","","","","",""
"","","","","","html-button-response","53","266039","0.0-2.0-18.0","63d1ac235a42c0eee8e90ff9","D2","batch4","","1092.3999999761581","tol_trial_num","<div class = centerbox><p class = center-block-text>problem <strong>4</strong> out of 25 problems</p></div>","0","","","","","","","","","","","","","","","","","","","","","","","","",""
"","","","","","single-stim-button","54","269873","0.0-2.0-19.0-0.0","63d1ac235a42c0eee8e90ff9","D2","batch4","","3832","tol_tohand","","","","tol_peg_2","3832","3832","0","[[3,0,0],[2,0],[0]]","1","[[3,0,0],[1,0],[2]]","3","0","","","","","","3","","","","","","","","",""
"","","","","","single-stim-button","55","271276","0.0-2.0-19.0-1.0","63d1ac235a42c0eee8e90ff9","D2","batch4","","1402","tol_toboard","","","","tol_peg_1","1402","1402","0","[[3,1,0],[2,0],[0]]","1","[[3,0,0],[1,0],[2]]","3","0","","","","","","3","","","","","","","","",""
"","","","","","single-stim-button","56","272356","0.0-2.0-19.1-0.1","63d1ac235a42c0eee8e90ff9","D2","batch4","","1079","tol_tohand","","","","tol_peg_2","1079","1079","0","[[3,1,0],[0,0],[0]]","2","[[3,0,0],[1,0],[2]]","3","0","","","","","","3","","","","","","","","",""
"","","","","","single-stim-button","57","273634","0.0-2.0-19.1-1.1","63d1ac235a42c0eee8e90ff9","D2","batch4","","1278","tol_toboard","","","","tol_peg_3","1278","1278","0","[[3,1,0],[0,0],[2]]","2","[[3,0,0],[1,0],[2]]","3","0","","","","","","3","","","","","","","","",""
"","","","","","single-stim-button","58","274663","0.0-2.0-19.2-0.2","63d1ac235a42c0eee8e90ff9","D2","batch4","","1027","tol_tohand","","","","tol_peg_1","1027","1027","0","[[3,0,0],[0,0],[2]]","3","[[3,0,0],[1,0],[2]]","3","0","","","","","","3","","","","","","","","",""
"","","","","","single-stim-button","59","275921","0.0-2.0-19.2-1.2","63d1ac235a42c0eee8e90ff9","D2","batch4","","1257","tol_toboard","","","","tol_peg_2","1257","1257","0","[[3,0,0],[1,0],[2]]","3","[[3,0,0],[1,0],[2]]","3","0","","","","","","3","","","","","","","","",""
"","","","","","poldrack-single-stim","60","276923","0.0-2.0-20.0","63d1ac235a42c0eee8e90ff9","D2","batch4","","-1","tol_feedback","","","true","","1000","1000","500","","","","","","-1","none","true","3832","5938","","","","","","","","","",""
"","","","","","html-button-response","61","278135","0.0-2.0-21.0","63d1ac235a42c0eee8e90ff9","D2","batch4","","1210.5","tol_trial_num","<div class = centerbox><p class = center-block-text>problem <strong>5</strong> out of 25 problems</p></div>","0","","","","","","","","","","","","","","","","","","","","","","","","",""
"","","","","","single-stim-button","62","290177","0.0-2.0-22.0-0.0","63d1ac235a42c0eee8e90ff9","D2","batch4","","12041","tol_tohand","","","","tol_peg_3","12041","12041","0","[[1,0,0],[2,0],[0]]","1","[[0,0,0],[1,2],[3]]","4","0","","","","","","7","","","","","","","","",""
"","","","","","single-stim-button","63","299449","0.0-2.0-22.0-1.0","63d1ac235a42c0eee8e90ff9","D2","batch4","","9271","tol_toboard","","","","tol_peg_3","9271","9271","0","[[1,0,0],[2,0],[3]]","1","[[0,0,0],[1,2],[3]]","4","0","","","","","","7","","","","","","","","",""
"","","","","","single-stim-button","64","306222","0.0-2.0-22.1-0.1","63d1ac235a42c0eee8e90ff9","D2","batch4","","6772","tol_tohand","","","","tol_peg_2","6772","6772","0","[[1,0,0],[0,0],[3]]","2","[[0,0,0],[1,2],[3]]","4","0","","","","","","7","","","","","","","","",""
"","","","","","single-stim-button","65","309190","0.0-2.0-22.1-1.1","63d1ac235a42c0eee8e90ff9","D2","batch4","","2967","tol_toboard","","","","tol_peg_1","2967","2967","0","[[1,2,0],[0,0],[3]]","2","[[0,0,0],[1,2],[3]]","4","0","","","","","","7","","","","","","","","",""
"","","","","","single-stim-button","66","310437","0.0-2.0-22.2-0.2","63d1ac235a42c0eee8e90ff9","D2","batch4","","1246","tol_tohand","","","","tol_peg_3","1246","1246","0","[[1,2,0],[0,0],[0]]","3","[[0,0,0],[1,2],[3]]","4","0","","","","","","7","","","","","","","","",""
"","","","","","single-stim-button","67","311701","0.0-2.0-22.2-1.2","63d1ac235a42c0eee8e90ff9","D2","batch4","","1263","tol_toboard","","","","tol_peg_2","1263","1263","0","[[1,2,0],[3,0],[0]]","3","[[0,0,0],[1,2],[3]]","4","0","","","","","","7","","","","","","","","",""
"","","","","","single-stim-button","68","316826","0.0-2.0-22.3-0.3","63d1ac235a42c0eee8e90ff9","D2","batch4","","5125","tol_tohand","","","","tol_peg_1","5125","5125","0","[[1,0,0],[3,0],[0]]","4","[[0,0,0],[1,2],[3]]","4","0","","","","","","7","","","","","","","","",""
"","","","","","single-stim-button","69","318040","0.0-2.0-22.3-1.3","63d1ac235a42c0eee8e90ff9","D2","batch4","","1213","tol_toboard","","","","tol_peg_3","1213","1213","0","[[1,0,0],[3,0],[2]]","4","[[0,0,0],[1,2],[3]]","4","0","","","","","","7","","","","","","","","",""
"","","","","","single-stim-button","70","330342","0.0-2.0-22.4-0.4","63d1ac235a42c0eee8e90ff9","D2","batch4","","12301","tol_tohand","","","","tol_peg_3","12301","12301","0","[[1,0,0],[3,0],[0]]","5","[[0,0,0],[1,2],[3]]","4","0","","","","","","7","","","","","","","","",""
"","","","","","single-stim-button","71","331499","0.0-2.0-22.4-1.4","63d1ac235a42c0eee8e90ff9","D2","batch4","","1154","tol_toboard","","","","tol_peg_2","1154","1154","0","[[1,0,0],[3,2],[0]]","5","[[0,0,0],[1,2],[3]]","4","0","","","","","","7","","","","","","","","",""
"","","","","","single-stim-button","72","332230","0.0-2.0-22.5-0.5","63d1ac235a42c0eee8e90ff9","D2","batch4","","730","tol_tohand","","","","tol_peg_1","730","730","0","[[0,0,0],[3,2],[0]]","6","[[0,0,0],[1,2],[3]]","4","0","","","","","","7","","","","","","","","",""
"","","","","","single-stim-button","73","333427","0.0-2.0-22.5-1.5","63d1ac235a42c0eee8e90ff9","D2","batch4","","1196","tol_toboard","","","","tol_peg_3","1196","1196","0","[[0,0,0],[3,2],[1]]","6","[[0,0,0],[1,2],[3]]","4","0","","","","","","7","","","","","","","","",""
"","","","","","single-stim-button","74","335839","0.0-2.0-22.6-0.6","63d1ac235a42c0eee8e90ff9","D2","batch4","","2411","tol_tohand","","","","tol_peg_2","2411","2411","0","[[0,0,0],[3,0],[1]]","7","[[0,0,0],[1,2],[3]]","4","0","","","","","","7","","","","","","","","",""
"","","","","","single-stim-button","75","337719","0.0-2.0-22.6-1.6","63d1ac235a42c0eee8e90ff9","D2","batch4","","1879","tol_toboard","","","","tol_peg_1","1879","1879","0","[[2,0,0],[3,0],[1]]","7","[[0,0,0],[1,2],[3]]","4","0","","","","","","7","","","","","","","","",""
"","","","","","single-stim-button","76","338586","0.0-2.0-22.7-0.7","63d1ac235a42c0eee8e90ff9","D2","batch4","","867","tol_tohand","","","","tol_peg_2","867","867","0","[[2,0,0],[0,0],[1]]","8","[[0,0,0],[1,2],[3]]","4","0","","","","","","7","","","","","","","","",""
"","","","","","single-stim-button","77","339667","0.0-2.0-22.7-1.7","63d1ac235a42c0eee8e90ff9","D2","batch4","","1080","tol_toboard","","","","tol_peg_1","1080","1080","0","[[2,3,0],[0,0],[1]]","8","[[0,0,0],[1,2],[3]]","4","0","","","","","","7","","","","","","","","",""
"","","","","","single-stim-button","78","341223","0.0-2.0-22.8-0.8","63d1ac235a42c0eee8e90ff9","D2","batch4","","1554","tol_tohand","","","","tol_peg_3","1554","1554","0","[[2,3,0],[0,0],[0]]","9","[[0,0,0],[1,2],[3]]","4","0","","","","","","7","","","","","","","","",""
"","","","","","single-stim-button","79","342304","0.0-2.0-22.8-1.8","63d1ac235a42c0eee8e90ff9","D2","batch4","","1080","tol_toboard","","","","tol_peg_2","1080","1080","0","[[2,3,0],[1,0],[0]]","9","[[0,0,0],[1,2],[3]]","4","0","","","","","","7","","","","","","","","",""
"","","","","","single-stim-button","80","343736","0.0-2.0-22.9-0.9","63d1ac235a42c0eee8e90ff9","D2","batch4","","1432","tol_tohand","","","","tol_peg_1","1432","1432","0","[[2,0,0],[1,0],[0]]","10","[[0,0,0],[1,2],[3]]","4","0","","","","","","7","","","","","","","","",""
"","","","","","single-stim-button","81","344709","0.0-2.0-22.9-1.9","63d1ac235a42c0eee8e90ff9","D2","batch4","","971","tol_toboard","","","","tol_peg_3","971","971","0","[[2,0,0],[1,0],[3]]","10","[[0,0,0],[1,2],[3]]","4","0","","","","","","7","","","","","","","","",""
"","","","","","single-stim-button","82","345696","0.0-2.0-22.10-0.10","63d1ac235a42c0eee8e90ff9","D2","batch4","","987","tol_tohand","","","","tol_peg_1","987","987","0","[[0,0,0],[1,0],[3]]","11","[[0,0,0],[1,2],[3]]","4","0","","","","","","7","","","","","","","","",""
"","","","","","single-stim-button","83","346460","0.0-2.0-22.10-1.10","63d1ac235a42c0eee8e90ff9","D2","batch4","","763","tol_toboard","","","","tol_peg_2","763","763","0","[[0,0,0],[1,2],[3]]","11","[[0,0,0],[1,2],[3]]","4","0","","","","","","7","","","","","","","","",""
"","","","","","poldrack-single-stim","84","347463","0.0-2.0-23.0","63d1ac235a42c0eee8e90ff9","D2","batch4","","-1","tol_feedback","","","true","","1000","1000","500","","","","","","-1","none","true","12041","45466","","","","","","","","","",""
"","","","","","html-button-response","85","348478","0.0-2.0-24.0","63d1ac235a42c0eee8e90ff9","D2","batch4","","1013.5","tol_trial_num","<div class = centerbox><p class = center-block-text>problem <strong>6</strong> out of 25 problems</p></div>","0","","","","","","","","","","","","","","","","","","","","","","","","",""
"","","","","","single-stim-button","86","365467","0.0-2.0-25.0-0.0","63d1ac235a42c0eee8e90ff9","D2","batch4","","16987","tol_tohand","","","","tol_peg_3","16987","16987","0","[[0,0,0],[1,2],[0]]","1","[[1,0,0],[2,3],[0]]","5","0","","","","","","6","","","","","","","","",""
"","","","","","single-stim-button","87","367050","0.0-2.0-25.0-1.0","63d1ac235a42c0eee8e90ff9","D2","batch4","","1582","tol_toboard","","","","tol_peg_1","1582","1582","0","[[3,0,0],[1,2],[0]]","1","[[1,0,0],[2,3],[0]]","5","0","","","","","","6","","","","","","","","",""
"","","","","","single-stim-button","88","368717","0.0-2.0-25.1-0.1","63d1ac235a42c0eee8e90ff9","D2","batch4","","1667","tol_tohand","","","","tol_peg_2","1667","1667","0","[[3,0,0],[1,0],[0]]","2","[[1,0,0],[2,3],[0]]","5","0","","","","","","6","","","","","","","","",""
"","","","","","single-stim-button","89","378010","0.0-2.0-25.1-1.1","63d1ac235a42c0eee8e90ff9","D2","batch4","","9291","tol_toboard","","","","tol_peg_3","9291","9291","0","[[3,0,0],[1,0],[2]]","2","[[1,0,0],[2,3],[0]]","5","0","","","","","","6","","","","","","","","",""
"","","","","","single-stim-button","90","386575","0.0-2.0-25.2-0.2","63d1ac235a42c0eee8e90ff9","D2","batch4","","8563","tol_tohand","","","","tol_peg_2","8563","8563","0","[[3,0,0],[0,0],[2]]","3","[[1,0,0],[2,3],[0]]","5","0","","","","","","6","","","","","","","","",""
"","","","","","single-stim-button","91","390510","0.0-2.0-25.2-1.2","63d1ac235a42c0eee8e90ff9","D2","batch4","","3934","tol_toboard","","","","tol_peg_2","3934","3934","0","[[3,0,0],[1,0],[2]]","3","[[1,0,0],[2,3],[0]]","5","0","","","","","","6","","","","","","","","",""
"","","","","","single-stim-button","92","392007","0.0-2.0-25.3-0.3","63d1ac235a42c0eee8e90ff9","D2","batch4","","1496","tol_tohand","","","","tol_peg_1","1496","1496","0","[[0,0,0],[1,0],[2]]","4","[[1,0,0],[2,3],[0]]","5","0","","","","","","6","","","","","","","","",""
"","","","","","single-stim-button","93","392868","0.0-2.0-25.3-1.3","63d1ac235a42c0eee8e90ff9","D2","batch4","","860","tol_toboard","","","","tol_peg_2","860","860","0","[[0,0,0],[1,3],[2]]","4","[[1,0,0],[2,3],[0]]","5","0","","","","","","6","","","","","","","","",""
"","","","","","single-stim-button","94","393957","0.0-2.0-25.4-0.4","63d1ac235a42c0eee8e90ff9","D2","batch4","","1088","tol_tohand","","","","tol_peg_3","1088","1088","0","[[0,0,0],[1,3],[0]]","5","[[1,0,0],[2,3],[0]]","5","0","","","","","","6","","","","","","","","",""
"","","","","","single-stim-button","95","395135","0.0-2.0-25.4-1.4","63d1ac235a42c0eee8e90ff9","D2","batch4","","1177","tol_toboard","","","","tol_peg_1","1177","1177","0","[[2,0,0],[1,3],[0]]","5","[[1,0,0],[2,3],[0]]","5","0","","","","","","6","","","","","","","","",""
"","","","","","single-stim-button","96","397529","0.0-2.0-25.5-0.5","63d1ac235a42c0eee8e90ff9","D2","batch4","","2392","tol_tohand","","","","tol_peg_2","2392","2392","0","[[2,0,0],[1,0],[0]]","6","[[1,0,0],[2,3],[0]]","5","0","","","","","","6","","","","","","","","",""
"","","","","","single-stim-button","97","398589","0.0-2.0-25.5-1.5","63d1ac235a42c0eee8e90ff9","D2","batch4","","1059","tol_toboard","","","","tol_peg_1","1059","1059","0","[[2,3,0],[1,0],[0]]","6","[[1,0,0],[2,3],[0]]","5","0","","","","","","6","","","","","","","","",""
"","","","","","single-stim-button","98","399394","0.0-2.0-25.6-0.6","63d1ac235a42c0eee8e90ff9","D2","batch4","","805","tol_tohand","","","","tol_peg_2","805","805","0","[[2,3,0],[0,0],[0]]","7","[[1,0,0],[2,3],[0]]","5","0","","","","","","6","","","","","","","","",""
"","","","","","single-stim-button","99","403760","0.0-2.0-25.6-1.6","63d1ac235a42c0eee8e90ff9","D2","batch4","","4365","tol_toboard","","","","tol_peg_3","4365","4365","0","[[2,3,0],[0,0],[1]]","7","[[1,0,0],[2,3],[0]]","5","0","","","","","","6","","","","","","","","",""
"","","","","","single-stim-button","100","405032","0.0-2.0-25.7-0.7","63d1ac235a42c0eee8e90ff9","D2","batch4","","1271","tol_tohand","","","","tol_peg_1","1271","1271","0","[[2,0,0],[0,0],[1]]","8","[[1,0,0],[2,3],[0]]","5","0","","","","","","6","","","","","","","","",""
"","","","","","single-stim-button","101","405966","0.0-2.0-25.7-1.7","63d1ac235a42c0eee8e90ff9","D2","batch4","","933","tol_toboard","","","","tol_peg_2","933","933","0","[[2,0,0],[3,0],[1]]","8","[[1,0,0],[2,3],[0]]","5","0","","","","","","6","","","","","","","","",""
"","","","","","single-stim-button","102","406691","0.0-2.0-25.8-0.8","63d1ac235a42c0eee8e90ff9","D2","batch4","","723","tol_tohand","","","","tol_peg_1","723","723","0","[[0,0,0],[3,0],[1]]","9","[[1,0,0],[2,3],[0]]","5","0","","","","","","6","","","","","","","","",""
"","","","","","single-stim-button","103","407661","0.0-2.0-25.8-1.8","63d1ac235a42c0eee8e90ff9","D2","batch4","","969","tol_toboard","","","","tol_peg_2","969","969","0","[[0,0,0],[3,2],[1]]","9","[[1,0,0],[2,3],[0]]","5","0","","","","","","6","","","","","","","","",""
"","","","","","single-stim-button","104","408366","0.0-2.0-25.9-0.9","63d1ac235a42c0eee8e90ff9","D2","batch4","","703","tol_tohand","","","","tol_peg_3","703","703","0","[[0,0,0],[3,2],[0]]","10","[[1,0,0],[2,3],[0]]","5","0","","","","","","6","","","","","","","","",""
"","","","","","single-stim-button","105","409652","0.0-2.0-25.9-1.9","63d1ac235a42c0eee8e90ff9","D2","batch4","","1285","tol_toboard","","","","tol_peg_1","1285","1285","0","[[1,0,0],[3,2],[0]]","10","[[1,0,0],[2,3],[0]]","5","0","","","","","","6","","","","","","","","",""
"","","","","","single-stim-button","106","410953","0.0-2.0-25.10-0.10","63d1ac235a42c0eee8e90ff9","D2","batch4","","1300","tol_tohand","","","","tol_peg_2","1300","1300","0","[[1,0,0],[3,0],[0]]","11","[[1,0,0],[2,3],[0]]","5","0","","","","","","6","","","","","","","","",""
"","","","","","single-stim-button","107","412174","0.0-2.0-25.10-1.10","63d1ac235a42c0eee8e90ff9","D2","batch4","","1219","tol_toboard","","","","tol_peg_3","1219","1219","0","[[1,0,0],[3,0],[2]]","11","[[1,0,0],[2,3],[0]]","5","0","","","","","","6","","","","","","","","",""
"","","","","","single-stim-button","108","413463","0.0-2.0-25.11-0.11","63d1ac235a42c0eee8e90ff9","D2","batch4","","1288","tol_tohand","","","","tol_peg_2","1288","1288","0","[[1,0,0],[0,0],[2]]","12","[[1,0,0],[2,3],[0]]","5","0","","","","","","6","","","","","","","","",""
"","","","","","single-stim-button","109","414428","0.0-2.0-25.11-1.11","63d1ac235a42c0eee8e90ff9","D2","batch4","","964","tol_toboard","","","","tol_peg_1","964","964","0","[[1,3,0],[0,0],[2]]","12","[[1,0,0],[2,3],[0]]","5","0","","","","","","6","","","","","","","","",""
"","","","","","single-stim-button","110","415408","0.0-2.0-25.12-0.12","63d1ac235a42c0eee8e90ff9","D2","batch4","","979","tol_tohand","","","","tol_peg_3","979","979","0","[[1,3,0],[0,0],[0]]","13","[[1,0,0],[2,3],[0]]","5","0","","","","","","6","","","","","","","","",""
"","","","","","single-stim-button","111","416215","0.0-2.0-25.12-1.12","63d1ac235a42c0eee8e90ff9","D2","batch4","","806","tol_toboard","","","","tol_peg_2","806","806","0","[[1,3,0],[2,0],[0]]","13","[[1,0,0],[2,3],[0]]","5","0","","","","","","6","","","","","","","","",""
"","","","","","single-stim-button","112","417081","0.0-2.0-25.13-0.13","63d1ac235a42c0eee8e90ff9","D2","batch4","","864","tol_tohand","","","","tol_peg_1","864","864","0","[[1,0,0],[2,0],[0]]","14","[[1,0,0],[2,3],[0]]","5","0","","","","","","6","","","","","","","","",""
"","","","","","single-stim-button","113","418032","0.0-2.0-25.13-1.13","63d1ac235a42c0eee8e90ff9","D2","batch4","","948","tol_toboard","","","","tol_peg_2","948","948","0","[[1,0,0],[2,3],[0]]","14","[[1,0,0],[2,3],[0]]","5","0","","","","","","6","","","","","","","","",""
"","","","","","poldrack-single-stim","114","419034","0.0-2.0-26.0","63d1ac235a42c0eee8e90ff9","D2","batch4","","-1","tol_feedback","","","true","","1000","1000","500","","","","","","-1","none","true","16987","40126","","","","","","","","","",""
"","","","","","html-button-response","115","420488","0.0-2.0-27.0","63d1ac235a42c0eee8e90ff9","D2","batch4","","1453.300000011921","tol_trial_num","<div class = centerbox><p class = center-block-text>problem <strong>7</strong> out of 25 problems</p></div>","0","","","","","","","","","","","","","","","","","","","","","","","","",""
"","","","","","single-stim-button","116","423145","0.0-2.0-28.0-0.0","63d1ac235a42c0eee8e90ff9","D2","batch4","","2656","tol_tohand","","","","tol_peg_3","2656","2656","0","[[2,1,0],[0,0],[0]]","1","[[1,2,0],[3,0],[0]]","6","0","","","","","","5","","","","","","","","",""
"","","","","","single-stim-button","117","424783","0.0-2.0-28.0-1.0","63d1ac235a42c0eee8e90ff9","D2","batch4","","1636","tol_toboard","","","","tol_peg_2","1636","1636","0","[[2,1,0],[3,0],[0]]","1","[[1,2,0],[3,0],[0]]","6","0","","","","","","5","","","","","","","","",""
"","","","","","single-stim-button","118","425488","0.0-2.0-28.1-0.1","63d1ac235a42c0eee8e90ff9","D2","batch4","","704","tol_tohand","","","","tol_peg_1","704","704","0","[[2,0,0],[3,0],[0]]","2","[[1,2,0],[3,0],[0]]","6","0","","","","","","5","","","","","","","","",""
"","","","","","single-stim-button","119","426957","0.0-2.0-28.1-1.1","63d1ac235a42c0eee8e90ff9","D2","batch4","","1468","tol_toboard","","","","tol_peg_3","1468","1468","0","[[2,0,0],[3,0],[1]]","2","[[1,2,0],[3,0],[0]]","6","0","","","","","","5","","","","","","","","",""
"","","","","","single-stim-button","120","427737","0.0-2.0-28.2-0.2","63d1ac235a42c0eee8e90ff9","D2","batch4","","779","tol_tohand","","","","tol_peg_1","779","779","0","[[0,0,0],[3,0],[1]]","3","[[1,2,0],[3,0],[0]]","6","0","","","","","","5","","","","","","","","",""
"","","","","","single-stim-button","121","428374","0.0-2.0-28.2-1.2","63d1ac235a42c0eee8e90ff9","D2","batch4","","635","tol_toboard","","","","tol_peg_2","635","635","0","[[0,0,0],[3,2],[1]]","3","[[1,2,0],[3,0],[0]]","6","0","","","","","","5","","","","","","","","",""
"","","","","","single-stim-button","122","429082","0.0-2.0-28.3-0.3","63d1ac235a42c0eee8e90ff9","D2","batch4","","707","tol_tohand","","","","tol_peg_3","707","707","0","[[0,0,0],[3,2],[0]]","4","[[1,2,0],[3,0],[0]]","6","0","","","","","","5","","","","","","","","",""
"","","","","","single-stim-button","123","430081","0.0-2.0-28.3-1.3","63d1ac235a42c0eee8e90ff9","D2","batch4","","997","tol_toboard","","","","tol_peg_1","997","997","0","[[1,0,0],[3,2],[0]]","4","[[1,2,0],[3,0],[0]]","6","0","","","","","","5","","","","","","","","",""
"","","","","","single-stim-button","124","430881","0.0-2.0-28.4-0.4","63d1ac235a42c0eee8e90ff9","D2","batch4","","799","tol_tohand","","","","tol_peg_2","799","799","0","[[1,0,0],[3,0],[0]]","5","[[1,2,0],[3,0],[0]]","6","0","","","","","","5","","","","","","","","",""
"","","","","","single-stim-button","125","431632","0.0-2.0-28.4-1.4","63d1ac235a42c0eee8e90ff9","D2","batch4","","751","tol_toboard","","","","tol_peg_1","751","751","0","[[1,2,0],[3,0],[0]]","5","[[1,2,0],[3,0],[0]]","6","0","","","","","","5","","","","","","","","",""
"","","","","","poldrack-single-stim","126","432633","0.0-2.0-29.0","63d1ac235a42c0eee8e90ff9","D2","batch4","","-1","tol_feedback","","","true","","1000","1000","500","","","","","","-1","none","true","2656","5645","","","","","","","","","",""
"","","","","","html-button-response","127","433637","0.0-2.0-30.0","63d1ac235a42c0eee8e90ff9","D2","batch4","","1003.1999999880791","tol_trial_num","<div class = centerbox><p class = center-block-text>problem <strong>8</strong> out of 25 problems</p></div>","0","","","","","","","","","","","","","","","","","","","","","","","","",""
"","","","","","single-stim-button","128","441448","0.0-2.0-31.0-0.0","63d1ac235a42c0eee8e90ff9","D2","batch4","","7810","tol_tohand","","","","tol_peg_3","7810","7810","0","[[0,0,0],[2,3],[0]]","1","[[1,2,0],[3,0],[0]]","7","0","","","","","","4","","","","","","","","",""
"","","","","","single-stim-button","129","442781","0.0-2.0-31.0-1.0","63d1ac235a42c0eee8e90ff9","D2","batch4","","1332","tol_toboard","","","","tol_peg_1","1332","1332","0","[[1,0,0],[2,3],[0]]","1","[[1,2,0],[3,0],[0]]","7","0","","","","","","4","","","","","","","","",""
"","","","","","single-stim-button","130","444090","0.0-2.0-31.1-0.1","63d1ac235a42c0eee8e90ff9","D2","batch4","","1308","tol_tohand","","","","tol_peg_2","1308","1308","0","[[1,0,0],[2,0],[0]]","2","[[1,2,0],[3,0],[0]]","7","0","","","","","","4","","","","","","","","",""
"","","","","","single-stim-button","131","445038","0.0-2.0-31.1-1.1","63d1ac235a42c0eee8e90ff9","D2","batch4","","948","tol_toboard","","","","tol_peg_3","948","948","0","[[1,0,0],[2,0],[3]]","2","[[1,2,0],[3,0],[0]]","7","0","","","","","","4","","","","","","","","",""
"","","","","","single-stim-button","132","445715","0.0-2.0-31.2-0.2","63d1ac235a42c0eee8e90ff9","D2","batch4","","676","tol_tohand","","","","tol_peg_2","676","676","0","[[1,0,0],[0,0],[3]]","3","[[1,2,0],[3,0],[0]]","7","0","","","","","","4","","","","","","","","",""
"","","","","","single-stim-button","133","446472","0.0-2.0-31.2-1.2","63d1ac235a42c0eee8e90ff9","D2","batch4","","755","tol_toboard","","","","tol_peg_1","755","755","0","[[1,2,0],[0,0],[3]]","3","[[1,2,0],[3,0],[0]]","7","0","","","","","","4","","","","","","","","",""
"","","","","","single-stim-button","134","447583","0.0-2.0-31.3-0.3","63d1ac235a42c0eee8e90ff9","D2","batch4","","1111","tol_tohand","","","","tol_peg_3","1111","1111","0","[[1,2,0],[0,0],[0]]","4","[[1,2,0],[3,0],[0]]","7","0","","","","","","4","","","","","","","","",""
"","","","","","single-stim-button","135","448370","0.0-2.0-31.3-1.3","63d1ac235a42c0eee8e90ff9","D2","batch4","","786","tol_toboard","","","","tol_peg_2","786","786","0","[[1,2,0],[3,0],[0]]","4","[[1,2,0],[3,0],[0]]","7","0","","","","","","4","","","","","","","","",""
"","","","","","poldrack-single-stim","136","449378","0.0-2.0-32.0","63d1ac235a42c0eee8e90ff9","D2","batch4","","-1","tol_feedback","","","true","","1000","1000","500","","","","","","-1","none","true","7810","10905","","","","","","","","","",""
"","","","","","html-button-response","137","450482","0.0-2.0-33.0","63d1ac235a42c0eee8e90ff9","D2","batch4","","1102","tol_trial_num","<div class = centerbox><p class = center-block-text>problem <strong>9</strong> out of 25 problems</p></div>","0","","","","","","","","","","","","","","","","","","","","","","","","",""
"","","","","","single-stim-button","138","474048","0.0-2.0-34.0-0.0","63d1ac235a42c0eee8e90ff9","D2","batch4","","23565","tol_tohand","","","","tol_peg_3","23565","23565","0","[[3,2,0],[0,0],[0]]","1","[[2,1,0],[3,0],[0]]","8","0","","","","","","6","","","","","","","","",""
"","","","","","single-stim-button","139","478242","0.0-2.0-34.0-1.0","63d1ac235a42c0eee8e90ff9","D2","batch4","","4192","tol_toboard","","","","tol_peg_2","4192","4192","0","[[3,2,0],[1,0],[0]]","1","[[2,1,0],[3,0],[0]]","8","0","","","","","","6","","","","","","","","",""
"","","","","","single-stim-button","140","479178","0.0-2.0-34.1-0.1","63d1ac235a42c0eee8e90ff9","D2","batch4","","934","tol_tohand","","","","tol_peg_1","934","934","0","[[3,0,0],[1,0],[0]]","2","[[2,1,0],[3,0],[0]]","8","0","","","","","","6","","","","","","","","",""
"","","","","","single-stim-button","141","481087","0.0-2.0-34.1-1.1","63d1ac235a42c0eee8e90ff9","D2","batch4","","1908","tol_toboard","","","","tol_peg_3","1908","1908","0","[[3,0,0],[1,0],[2]]","2","[[2,1,0],[3,0],[0]]","8","0","","","","","","6","","","","","","","","",""
"","","","","","single-stim-button","142","482141","0.0-2.0-34.2-0.2","63d1ac235a42c0eee8e90ff9","D2","batch4","","1054","tol_tohand","","","","tol_peg_1","1054","1054","0","[[0,0,0],[1,0],[2]]","3","[[2,1,0],[3,0],[0]]","8","0","","","","","","6","","","","","","","","",""
"","","","","","single-stim-button","143","483402","0.0-2.0-34.2-1.2","63d1ac235a42c0eee8e90ff9","D2","batch4","","1259","tol_toboard","","","","tol_peg_2","1259","1259","0","[[0,0,0],[1,3],[2]]","3","[[2,1,0],[3,0],[0]]","8","0","","","","","","6","","","","","","","","",""
"","","","","","single-stim-button","144","484394","0.0-2.0-34.3-0.3","63d1ac235a42c0eee8e90ff9","D2","batch4","","991","tol_tohand","","","","tol_peg_3","991","991","0","[[0,0,0],[1,3],[0]]","4","[[2,1,0],[3,0],[0]]","8","0","","","","","","6","","","","","","","","",""
"","","","","","single-stim-button","145","485730","0.0-2.0-34.3-1.3","63d1ac235a42c0eee8e90ff9","D2","batch4","","1335","tol_toboard","","","","tol_peg_1","1335","1335","0","[[2,0,0],[1,3],[0]]","4","[[2,1,0],[3,0],[0]]","8","0","","","","","","6","","","","","","","","",""
"","","","","","single-stim-button","146","488512","0.0-2.0-34.4-0.4","63d1ac235a42c0eee8e90ff9","D2","batch4","","2782","tol_tohand","","","","tol_peg_2","2782","2782","0","[[2,0,0],[1,0],[0]]","5","[[2,1,0],[3,0],[0]]","8","0","","","","","","6","","","","","","","","",""
"","","","","","single-stim-button","147","489675","0.0-2.0-34.4-1.4","63d1ac235a42c0eee8e90ff9","D2","batch4","","1160","tol_toboard","","","","tol_peg_3","1160","1160","0","[[2,0,0],[1,0],[3]]","5","[[2,1,0],[3,0],[0]]","8","0","","","","","","6","","","","","","","","",""
"","","","","","single-stim-button","148","490348","0.0-2.0-34.5-0.5","63d1ac235a42c0eee8e90ff9","D2","batch4","","672","tol_tohand","","","","tol_peg_2","672","672","0","[[2,0,0],[0,0],[3]]","6","[[2,1,0],[3,0],[0]]","8","0","","","","","","6","","","","","","","","",""
"","","","","","single-stim-button","149","491347","0.0-2.0-34.5-1.5","63d1ac235a42c0eee8e90ff9","D2","batch4","","998","tol_toboard","","","","tol_peg_1","998","998","0","[[2,1,0],[0,0],[3]]","6","[[2,1,0],[3,0],[0]]","8","0","","","","","","6","","","","","","","","",""
"","","","","","single-stim-button","150","492114","0.0-2.0-34.6-0.6","63d1ac235a42c0eee8e90ff9","D2","batch4","","764","tol_tohand","","","","tol_peg_3","764","764","0","[[2,1,0],[0,0],[0]]","7","[[2,1,0],[3,0],[0]]","8","0","","","","","","6","","","","","","","","",""
"","","","","","single-stim-button","151","492904","0.0-2.0-34.6-1.6","63d1ac235a42c0eee8e90ff9","D2","batch4","","789","tol_toboard","","","","tol_peg_2","789","789","0","[[2,1,0],[3,0],[0]]","7","[[2,1,0],[3,0],[0]]","8","0","","","","","","6","","","","","","","","",""
"","","","","","poldrack-single-stim","152","493906","0.0-2.0-35.0","63d1ac235a42c0eee8e90ff9","D2","batch4","","-1","tol_feedback","","","true","","1000","1000","500","","","","","","-1","none","true","23565","30762","","","","","","","","","",""
"","","","","","html-button-response","153","494964","0.0-2.0-36.0","63d1ac235a42c0eee8e90ff9","D2","batch4","","1055.3999999761581","tol_trial_num","<div class = centerbox><p class = center-block-text>problem <strong>10</strong> out of 25 problems</p></div>","0","","","","","","","","","","","","","","","","","","","","","","","","",""
"","","","","","single-stim-button","154","499624","0.0-2.0-37.0-0.0","63d1ac235a42c0eee8e90ff9","D2","batch4","","4660","tol_tohand","","","","tol_peg_2","4660","4660","0","[[3,0,0],[0,0],[2]]","1","[[3,0,0],[2,1],[0]]","9","0","","","","","","3","","","","","","","","",""
"","","","","","single-stim-button","155","500603","0.0-2.0-37.0-1.0","63d1ac235a42c0eee8e90ff9","D2","batch4","","978","tol_toboard","","","","tol_peg_1","978","978","0","[[3,1,0],[0,0],[2]]","1","[[3,0,0],[2,1],[0]]","9","0","","","","","","3","","","","","","","","",""
"","","","","","single-stim-button","156","501505","0.0-2.0-37.1-0.1","63d1ac235a42c0eee8e90ff9","D2","batch4","","900","tol_tohand","","","","tol_peg_3","900","900","0","[[3,1,0],[0,0],[0]]","2","[[3,0,0],[2,1],[0]]","9","0","","","","","","3","","","","","","","","",""
"","","","","","single-stim-button","157","502387","0.0-2.0-37.1-1.1","63d1ac235a42c0eee8e90ff9","D2","batch4","","881","tol_toboard","","","","tol_peg_2","881","881","0","[[3,1,0],[2,0],[0]]","2","[[3,0,0],[2,1],[0]]","9","0","","","","","","3","","","","","","","","",""
"","","","","","single-stim-button","158","503050","0.0-2.0-37.2-0.2","63d1ac235a42c0eee8e90ff9","D2","batch4","","662","tol_tohand","","","","tol_peg_1","662","662","0","[[3,0,0],[2,0],[0]]","3","[[3,0,0],[2,1],[0]]","9","0","","","","","","3","","","","","","","","",""
"","","","","","single-stim-button","159","504056","0.0-2.0-37.2-1.2","63d1ac235a42c0eee8e90ff9","D2","batch4","","1005","tol_toboard","","","","tol_peg_2","1005","1005","0","[[3,0,0],[2,1],[0]]","3","[[3,0,0],[2,1],[0]]","9","0","","","","","","3","","","","","","","","",""
"","","","","","poldrack-single-stim","160","505073","0.0-2.0-38.0","63d1ac235a42c0eee8e90ff9","D2","batch4","","-1","tol_feedback","","","true","","1000","1000","500","","","","","","-1","none","true","4660","6222","","","","","","","","","",""
"","","","","","html-button-response","161","506264","0.0-2.0-39.0","63d1ac235a42c0eee8e90ff9","D2","batch4","","1190.199999988079","tol_trial_num","<div class = centerbox><p class = center-block-text>problem <strong>11</strong> out of 25 problems</p></div>","0","","","","","","","","","","","","","","","","","","","","","","","","",""
"","","","","","single-stim-button","162","513695","0.0-2.0-40.0-0.0","63d1ac235a42c0eee8e90ff9","D2","batch4","","7429","tol_tohand","","","","tol_peg_1","7429","7429","0","[[1,0,0],[3,0],[0]]","1","[[2,0,0],[1,3],[0]]","10","0","","","","","","6","","","","","","","","",""
"","","","","","single-stim-button","163","514787","0.0-2.0-40.0-1.0","63d1ac235a42c0eee8e90ff9","D2","batch4","","1092","tol_toboard","","","","tol_peg_2","1092","1092","0","[[1,0,0],[3,2],[0]]","1","[[2,0,0],[1,3],[0]]","10","0","","","","","","6","","","","","","","","",""
"","","","","","single-stim-button","164","515474","0.0-2.0-40.1-0.1","63d1ac235a42c0eee8e90ff9","D2","batch4","","686","tol_tohand","","","","tol_peg_1","686","686","0","[[0,0,0],[3,2],[0]]","2","[[2,0,0],[1,3],[0]]","10","0","","","","","","6","","","","","","","","",""
"","","","","","single-stim-button","165","516764","0.0-2.0-40.1-1.1","63d1ac235a42c0eee8e90ff9","D2","batch4","","1289","tol_toboard","","","","tol_peg_3","1289","1289","0","[[0,0,0],[3,2],[1]]","2","[[2,0,0],[1,3],[0]]","10","0","","","","","","6","","","","","","","","",""
"","","","","","single-stim-button","166","517733","0.0-2.0-40.2-0.2","63d1ac235a42c0eee8e90ff9","D2","batch4","","967","tol_tohand","","","","tol_peg_2","967","967","0","[[0,0,0],[3,0],[1]]","3","[[2,0,0],[1,3],[0]]","10","0","","","","","","6","","","","","","","","",""
"","","","","","single-stim-button","167","518950","0.0-2.0-40.2-1.2","63d1ac235a42c0eee8e90ff9","D2","batch4","","1215","tol_toboard","","","","tol_peg_1","1215","1215","0","[[2,0,0],[3,0],[1]]","3","[[2,0,0],[1,3],[0]]","10","0","","","","","","6","","","","","","","","",""
"","","","","","single-stim-button","168","519550","0.0-2.0-40.3-0.3","63d1ac235a42c0eee8e90ff9","D2","batch4","","599","tol_tohand","","","","tol_peg_2","599","599","0","[[2,0,0],[0,0],[1]]","4","[[2,0,0],[1,3],[0]]","10","0","","","","","","6","","","","","","","","",""
"","","","","","single-stim-button","169","520436","0.0-2.0-40.3-1.3","63d1ac235a42c0eee8e90ff9","D2","batch4","","886","tol_toboard","","","","tol_peg_1","886","886","0","[[2,3,0],[0,0],[1]]","4","[[2,0,0],[1,3],[0]]","10","0","","","","","","6","","","","","","","","",""
"","","","","","single-stim-button","170","521341","0.0-2.0-40.4-0.4","63d1ac235a42c0eee8e90ff9","D2","batch4","","904","tol_tohand","","","","tol_peg_3","904","904","0","[[2,3,0],[0,0],[0]]","5","[[2,0,0],[1,3],[0]]","10","0","","","","","","6","","","","","","","","",""
"","","","","","single-stim-button","171","522134","0.0-2.0-40.4-1.4","63d1ac235a42c0eee8e90ff9","D2","batch4","","791","tol_toboard","","","","tol_peg_2","791","791","0","[[2,3,0],[1,0],[0]]","5","[[2,0,0],[1,3],[0]]","10","0","","","","","","6","","","","","","","","",""
"","","","","","single-stim-button","172","522969","0.0-2.0-40.5-0.5","63d1ac235a42c0eee8e90ff9","D2","batch4","","834","tol_tohand","","","","tol_peg_1","834","834","0","[[2,0,0],[1,0],[0]]","6","[[2,0,0],[1,3],[0]]","10","0","","","","","","6","","","","","","","","",""
"","","","","","single-stim-button","173","523729","0.0-2.0-40.5-1.5","63d1ac235a42c0eee8e90ff9","D2","batch4","","759","tol_toboard","","","","tol_peg_2","759","759","0","[[2,0,0],[1,3],[0]]","6","[[2,0,0],[1,3],[0]]","10","0","","","","","","6","","","","","","","","",""
"","","","","","poldrack-single-stim","174","524747","0.0-2.0-41.0","63d1ac235a42c0eee8e90ff9","D2","batch4","","-1","tol_feedback","","","true","","1000","1000","500","","","","","","-1","none","true","7429","11419","","","","","","","","","",""
"","","","","","html-button-response","175","525606","0.0-2.0-42.0","63d1ac235a42c0eee8e90ff9","D2","batch4","","857.9000000357628","tol_trial_num","<div class = centerbox><p class = center-block-text>problem <strong>12</strong> out of 25 problems</p></div>","0","","","","","","","","","","","","","","","","","","","","","","","","",""
"","","","","","single-stim-button","176","528819","0.0-2.0-43.0-0.0","63d1ac235a42c0eee8e90ff9","D2","batch4","","3212","tol_tohand","","","","tol_peg_1","3212","3212","0","[[1,0,0],[3,0],[0]]","1","[[2,3,0],[0,0],[1]]","11","0","","","","","","4","","","","","","","","",""
"","","","","","single-stim-button","177","530032","0.0-2.0-43.0-1.0","63d1ac235a42c0eee8e90ff9","D2","batch4","","1212","tol_toboard","","","","tol_peg_2","1212","1212","0","[[1,0,0],[3,2],[0]]","1","[[2,3,0],[0,0],[1]]","11","0","","","","","","4","","","","","","","","",""
"","","","","","single-stim-button","178","530673","0.0-2.0-43.1-0.1","63d1ac235a42c0eee8e90ff9","D2","batch4","","640","tol_tohand","","","","tol_peg_1","640","640","0","[[0,0,0],[3,2],[0]]","2","[[2,3,0],[0,0],[1]]","11","0","","","","","","4","","","","","","","","",""
"","","","","","single-stim-button","179","531378","0.0-2.0-43.1-1.1","63d1ac235a42c0eee8e90ff9","D2","batch4","","704","tol_toboard","","","","tol_peg_3","704","704","0","[[0,0,0],[3,2],[1]]","2","[[2,3,0],[0,0],[1]]","11","0","","","","","","4","","","","","","","","",""
"","","","","","single-stim-button","180","532104","0.0-2.0-43.2-0.2","63d1ac235a42c0eee8e90ff9","D2","batch4","","723","tol_tohand","","","","tol_peg_2","723","723","0","[[0,0,0],[3,0],[1]]","3","[[2,3,0],[0,0],[1]]","11","0","","","","","","4","","","","","","","","",""
"","","","","","single-stim-button","181","533326","0.0-2.0-43.2-1.2","63d1ac235a42c0eee8e90ff9","D2","batch4","","1221","tol_toboard","","","","tol_peg_1","1221","1221","0","[[2,0,0],[3,0],[1]]","3","[[2,3,0],[0,0],[1]]","11","0","","","","","","4","","","","","","","","",""
"","","","","","single-stim-button","182","533888","0.0-2.0-43.3-0.3","63d1ac235a42c0eee8e90ff9","D2","batch4","","561","tol_tohand","","","","tol_peg_2","561","561","0","[[2,0,0],[0,0],[1]]","4","[[2,3,0],[0,0],[1]]","11","0","","","","","","4","","","","","","","","",""
"","","","","","single-stim-button","183","534647","0.0-2.0-43.3-1.3","63d1ac235a42c0eee8e90ff9","D2","batch4","","758","tol_toboard","","","","tol_peg_1","758","758","0","[[2,3,0],[0,0],[1]]","4","[[2,3,0],[0,0],[1]]","11","0","","","","","","4","","","","","","","","",""
"","","","","","poldrack-single-stim","184","535648","0.0-2.0-44.0","63d1ac235a42c0eee8e90ff9","D2","batch4","","-1","tol_feedback","","","true","","1000","1000","500","","","","","","-1","none","true","3212","5136","","","","","","","","","",""
"","","","","","html-button-response","185","537344","0.0-2.0-45.0","63d1ac235a42c0eee8e90ff9","D2","batch4","","1695.5999999642372","tol_trial_num","<div class = centerbox><p class = center-block-text>problem <strong>13</strong> out of 25 problems</p></div>","0","","","","","","","","","","","","","","","","","","","","","","","","",""
"","","","","","single-stim-button","186","541377","0.0-2.0-46.0-0.0","63d1ac235a42c0eee8e90ff9","D2","batch4","","4031","tol_tohand","","","","tol_peg_2","4031","4031","0","[[1,2,0],[0,0],[0]]","1","[[0,0,0],[2,3],[1]]","12","0","","","","","","4","","","","","","","","",""
"","","","","","single-stim-button","187","543114","0.0-2.0-46.0-1.0","63d1ac235a42c0eee8e90ff9","D2","batch4","","1736","tol_toboard","","","","tol_peg_3","1736","1736","0","[[1,2,0],[0,0],[3]]","1","[[0,0,0],[2,3],[1]]","12","0","","","","","","4","","","","","","","","",""
"","","","","","single-stim-button","188","543816","0.0-2.0-46.1-0.1","63d1ac235a42c0eee8e90ff9","D2","batch4","","702","tol_tohand","","","","tol_peg_1","702","702","0","[[1,0,0],[0,0],[3]]","2","[[0,0,0],[2,3],[1]]","12","0","","","","","","4","","","","","","","","",""
"","","","","","single-stim-button","189","544689","0.0-2.0-46.1-1.1","63d1ac235a42c0eee8e90ff9","D2","batch4","","871","tol_toboard","","","","tol_peg_2","871","871","0","[[1,0,0],[2,0],[3]]","2","[[0,0,0],[2,3],[1]]","12","0","","","","","","4","","","","","","","","",""
"","","","","","single-stim-button","190","545518","0.0-2.0-46.2-0.2","63d1ac235a42c0eee8e90ff9","D2","batch4","","829","tol_tohand","","","","tol_peg_3","829","829","0","[[1,0,0],[2,0],[0]]","3","[[0,0,0],[2,3],[1]]","12","0","","","","","","4","","","","","","","","",""
"","","","","","single-stim-button","191","546378","0.0-2.0-46.2-1.2","63d1ac235a42c0eee8e90ff9","D2","batch4","","858","tol_toboard","","","","tol_peg_2","858","858","0","[[1,0,0],[2,3],[0]]","3","[[0,0,0],[2,3],[1]]","12","0","","","","","","4","","","","","","","","",""
"","","","","","single-stim-button","192","547144","0.0-2.0-46.3-0.3","63d1ac235a42c0eee8e90ff9","D2","batch4","","766","tol_tohand","","","","tol_peg_1","766","766","0","[[0,0,0],[2,3],[0]]","4","[[0,0,0],[2,3],[1]]","12","0","","","","","","4","","","","","","","","",""
"","","","","","single-stim-button","193","547939","0.0-2.0-46.3-1.3","63d1ac235a42c0eee8e90ff9","D2","batch4","","794","tol_toboard","","","","tol_peg_3","794","794","0","[[0,0,0],[2,3],[1]]","4","[[0,0,0],[2,3],[1]]","12","0","","","","","","4","","","","","","","","",""
"","","","","","poldrack-single-stim","194","548945","0.0-2.0-47.0","63d1ac235a42c0eee8e90ff9","D2","batch4","","-1","tol_feedback","","","true","","1000","1000","500","","","","","","-1","none","true","4031","6328","","","","","","","","","",""
"","","","","","html-button-response","195","564072","0.0-2.0-48.0","63d1ac235a42c0eee8e90ff9","D2","batch4","","15125.900000035763","attention_check","<p class = block-text>How many balls are in your board<br></p>","1","true","","","","","","","","","","","","","","","","","","","","","","","",""
"","","","","","html-button-response","196","565906","0.0-2.0-49.0","63d1ac235a42c0eee8e90ff9","D2","batch4","","1832.5999999642372","tol_trial_num","<div class = centerbox><p class = center-block-text>problem <strong>14</strong> out of 25 problems</p></div>","0","","","","","","","","","","","","","","","","","","","","","","","","",""
"","","","","","single-stim-button","197","573716","0.0-2.0-50.0-0.0","63d1ac235a42c0eee8e90ff9","D2","batch4","","7808","tol_tohand","","","","tol_peg_1","7808","7808","0","[[2,0,0],[3,0],[0]]","1","[[1,2,0],[3,0],[0]]","13","0","","","","","","4","","","","","","","","",""
"","","","","","single-stim-button","198","574986","0.0-2.0-50.0-1.0","63d1ac235a42c0eee8e90ff9","D2","batch4","","1269","tol_toboard","","","","tol_peg_2","1269","1269","0","[[2,0,0],[3,1],[0]]","1","[[1,2,0],[3,0],[0]]","13","0","","","","","","4","","","","","","","","",""
"","","","","","single-stim-button","199","575657","0.0-2.0-50.1-0.1","63d1ac235a42c0eee8e90ff9","D2","batch4","","669","tol_tohand","","","","tol_peg_1","669","669","0","[[0,0,0],[3,1],[0]]","2","[[1,2,0],[3,0],[0]]","13","0","","","","","","4","","","","","","","","",""
"","","","","","single-stim-button","200","577175","0.0-2.0-50.1-1.1","63d1ac235a42c0eee8e90ff9","D2","batch4","","1517","tol_toboard","","","","tol_peg_3","1517","1517","0","[[0,0,0],[3,1],[2]]","2","[[1,2,0],[3,0],[0]]","13","0","","","","","","4","","","","","","","","",""
"","","","","","single-stim-button","201","577860","0.0-2.0-50.2-0.2","63d1ac235a42c0eee8e90ff9","D2","batch4","","685","tol_tohand","","","","tol_peg_2","685","685","0","[[0,0,0],[3,0],[2]]","3","[[1,2,0],[3,0],[0]]","13","0","","","","","","4","","","","","","","","",""
"","","","","","single-stim-button","202","578634","0.0-2.0-50.2-1.2","63d1ac235a42c0eee8e90ff9","D2","batch4","","772","tol_toboard","","","","tol_peg_1","772","772","0","[[1,0,0],[3,0],[2]]","3","[[1,2,0],[3,0],[0]]","13","0","","","","","","4","","","","","","","","",""
"","","","","","single-stim-button","203","579364","0.0-2.0-50.3-0.3","63d1ac235a42c0eee8e90ff9","D2","batch4","","730","tol_tohand","","","","tol_peg_3","730","730","0","[[1,0,0],[3,0],[0]]","4","[[1,2,0],[3,0],[0]]","13","0","","","","","","4","","","","","","","","",""
"","","","","","single-stim-button","204","580371","0.0-2.0-50.3-1.3","63d1ac235a42c0eee8e90ff9","D2","batch4","","1006","tol_toboard","","","","tol_peg_1","1006","1006","0","[[1,2,0],[3,0],[0]]","4","[[1,2,0],[3,0],[0]]","13","0","","","","","","4","","","","","","","","",""
"","","","","","poldrack-single-stim","205","581375","0.0-2.0-51.0","63d1ac235a42c0eee8e90ff9","D2","batch4","","-1","tol_feedback","","","true","","1000","1000","500","","","","","","-1","none","true","7808","9892","","","","","","","","","",""
"","","","","","html-button-response","206","582511","0.0-2.0-52.0","63d1ac235a42c0eee8e90ff9","D2","batch4","","1134.800000011921","tol_trial_num","<div class = centerbox><p class = center-block-text>problem <strong>15</strong> out of 25 problems</p></div>","0","","","","","","","","","","","","","","","","","","","","","","","","",""
"","","","","","single-stim-button","207","586153","0.0-2.0-53.0-0.0","63d1ac235a42c0eee8e90ff9","D2","batch4","","3639","tol_tohand","","","","tol_peg_1","3639","3639","0","[[1,0,0],[3,0],[0]]","1","[[2,0,0],[3,0],[1]]","14","0","","","","","","3","","","","","","","","",""
"","","","","","single-stim-button","208","587175","0.0-2.0-53.0-1.0","63d1ac235a42c0eee8e90ff9","D2","batch4","","1022","tol_toboard","","","","tol_peg_2","1022","1022","0","[[1,0,0],[3,2],[0]]","1","[[2,0,0],[3,0],[1]]","14","0","","","","","","3","","","","","","","","",""
"","","","","","single-stim-button","209","587894","0.0-2.0-53.1-0.1","63d1ac235a42c0eee8e90ff9","D2","batch4","","717","tol_tohand","","","","tol_peg_1","717","717","0","[[0,0,0],[3,2],[0]]","2","[[2,0,0],[3,0],[1]]","14","0","","","","","","3","","","","","","","","",""
"","","","","","single-stim-button","210","588922","0.0-2.0-53.1-1.1","63d1ac235a42c0eee8e90ff9","D2","batch4","","1028","tol_toboard","","","","tol_peg_3","1028","1028","0","[[0,0,0],[3,2],[1]]","2","[[2,0,0],[3,0],[1]]","14","0","","","","","","3","","","","","","","","",""
"","","","","","single-stim-button","211","589710","0.0-2.0-53.2-0.2","63d1ac235a42c0eee8e90ff9","D2","batch4","","787","tol_tohand","","","","tol_peg_2","787","787","0","[[0,0,0],[3,0],[1]]","3","[[2,0,0],[3,0],[1]]","14","0","","","","","","3","","","","","","","","",""
"","","","","","single-stim-button","212","590553","0.0-2.0-53.2-1.2","63d1ac235a42c0eee8e90ff9","D2","batch4","","841","tol_toboard","","","","tol_peg_1","841","841","0","[[2,0,0],[3,0],[1]]","3","[[2,0,0],[3,0],[1]]","14","0","","","","","","3","","","","","","","","",""
"","","","","","poldrack-single-stim","213","591555","0.0-2.0-54.0","63d1ac235a42c0eee8e90ff9","D2","batch4","","-1","tol_feedback","","","true","","1000","1000","500","","","","","","-1","none","true","3639","5143","","","","","","","","","",""
"","","","","","html-button-response","214","592843","0.0-2.0-55.0","63d1ac235a42c0eee8e90ff9","D2","batch4","","1287.300000011921","tol_trial_num","<div class = centerbox><p class = center-block-text>problem <strong>16</strong> out of 25 problems</p></div>","0","","","","","","","","","","","","","","","","","","","","","","","","",""
"","","","","","single-stim-button","215","602344","0.0-2.0-56.0-0.0","63d1ac235a42c0eee8e90ff9","D2","batch4","","9500","tol_tohand","","","","tol_peg_3","9500","9500","0","[[0,0,0],[2,3],[0]]","1","[[2,3,0],[1,0],[0]]","15","0","","","","","","7","","","","","","","","",""
"","","","","","single-stim-button","216","603333","0.0-2.0-56.0-1.0","63d1ac235a42c0eee8e90ff9","D2","batch4","","986","tol_toboard","","","","tol_peg_1","986","986","0","[[1,0,0],[2,3],[0]]","1","[[2,3,0],[1,0],[0]]","15","0","","","","","","7","","","","","","","","",""
"","","","","","single-stim-button","217","604484","0.0-2.0-56.1-0.1","63d1ac235a42c0eee8e90ff9","D2","batch4","","1150","tol_tohand","","","","tol_peg_2","1150","1150","0","[[1,0,0],[2,0],[0]]","2","[[2,3,0],[1,0],[0]]","15","0","","","","","","7","","","","","","","","",""
"","","","","","single-stim-button","218","611989","0.0-2.0-56.1-1.1","63d1ac235a42c0eee8e90ff9","D2","batch4","","7504","tol_toboard","","","","tol_peg_1","7504","7504","0","[[1,3,0],[2,0],[0]]","2","[[2,3,0],[1,0],[0]]","15","0","","","","","","7","","","","","","","","",""
"","","","","","single-stim-button","219","612805","0.0-2.0-56.2-0.2","63d1ac235a42c0eee8e90ff9","D2","batch4","","815","tol_tohand","","","","tol_peg_2","815","815","0","[[1,3,0],[0,0],[0]]","3","[[2,3,0],[1,0],[0]]","15","0","","","","","","7","","","","","","","","",""
"","","","","","single-stim-button","220","613948","0.0-2.0-56.2-1.2","63d1ac235a42c0eee8e90ff9","D2","batch4","","1142","tol_toboard","","","","tol_peg_3","1142","1142","0","[[1,3,0],[0,0],[2]]","3","[[2,3,0],[1,0],[0]]","15","0","","","","","","7","","","","","","","","",""
"","","","","","single-stim-button","221","615196","0.0-2.0-56.3-0.3","63d1ac235a42c0eee8e90ff9","D2","batch4","","1248","tol_tohand","","","","tol_peg_1","1248","1248","0","[[1,0,0],[0,0],[2]]","4","[[2,3,0],[1,0],[0]]","15","0","","","","","","7","","","","","","","","",""
"","","","","","single-stim-button","222","616348","0.0-2.0-56.3-1.3","63d1ac235a42c0eee8e90ff9","D2","batch4","","1151","tol_toboard","","","","tol_peg_2","1151","1151","0","[[1,0,0],[3,0],[2]]","4","[[2,3,0],[1,0],[0]]","15","0","","","","","","7","","","","","","","","",""
"","","","","","single-stim-button","223","617224","0.0-2.0-56.4-0.4","63d1ac235a42c0eee8e90ff9","D2","batch4","","874","tol_tohand","","","","tol_peg_1","874","874","0","[[0,0,0],[3,0],[2]]","5","[[2,3,0],[1,0],[0]]","15","0","","","","","","7","","","","","","","","",""
"","","","","","single-stim-button","224","618107","0.0-2.0-56.4-1.4","63d1ac235a42c0eee8e90ff9","D2","batch4","","883","tol_toboard","","","","tol_peg_2","883","883","0","[[0,0,0],[3,1],[2]]","5","[[2,3,0],[1,0],[0]]","15","0","","","","","","7","","","","","","","","",""
"","","","","","single-stim-button","225","619036","0.0-2.0-56.5-0.5","63d1ac235a42c0eee8e90ff9","D2","batch4","","928","tol_tohand","","","","tol_peg_3","928","928","0","[[0,0,0],[3,1],[0]]","6","[[2,3,0],[1,0],[0]]","15","0","","","","","","7","","","","","","","","",""
"","","","","","single-stim-button","226","620397","0.0-2.0-56.5-1.5","63d1ac235a42c0eee8e90ff9","D2","batch4","","1360","tol_toboard","","","","tol_peg_1","1360","1360","0","[[2,0,0],[3,1],[0]]","6","[[2,3,0],[1,0],[0]]","15","0","","","","","","7","","","","","","","","",""
"","","","","","single-stim-button","227","621197","0.0-2.0-56.6-0.6","63d1ac235a42c0eee8e90ff9","D2","batch4","","798","tol_tohand","","","","tol_peg_2","798","798","0","[[2,0,0],[3,0],[0]]","7","[[2,3,0],[1,0],[0]]","15","0","","","","","","7","","","","","","","","",""
"","","","","","single-stim-button","228","621989","0.0-2.0-56.6-1.6","63d1ac235a42c0eee8e90ff9","D2","batch4","","791","tol_toboard","","","","tol_peg_3","791","791","0","[[2,0,0],[3,0],[1]]","7","[[2,3,0],[1,0],[0]]","15","0","","","","","","7","","","","","","","","",""
"","","","","","single-stim-button","229","623364","0.0-2.0-56.7-0.7","63d1ac235a42c0eee8e90ff9","D2","batch4","","1375","tol_tohand","","","","tol_peg_2","1375","1375","0","[[2,0,0],[0,0],[1]]","8","[[2,3,0],[1,0],[0]]","15","0","","","","","","7","","","","","","","","",""
"","","","","","single-stim-button","230","624099","0.0-2.0-56.7-1.7","63d1ac235a42c0eee8e90ff9","D2","batch4","","733","tol_toboard","","","","tol_peg_1","733","733","0","[[2,3,0],[0,0],[1]]","8","[[2,3,0],[1,0],[0]]","15","0","","","","","","7","","","","","","","","",""
"","","","","","single-stim-button","231","625236","0.0-2.0-56.8-0.8","63d1ac235a42c0eee8e90ff9","D2","batch4","","1137","tol_tohand","","","","tol_peg_3","1137","1137","0","[[2,3,0],[0,0],[0]]","9","[[2,3,0],[1,0],[0]]","15","0","","","","","","7","","","","","","","","",""
"","","","","","single-stim-button","232","626166","0.0-2.0-56.8-1.8","63d1ac235a42c0eee8e90ff9","D2","batch4","","928","tol_toboard","","","","tol_peg_2","928","928","0","[[2,3,0],[1,0],[0]]","9","[[2,3,0],[1,0],[0]]","15","0","","","","","","7","","","","","","","","",""
"","","","","","poldrack-single-stim","233","627175","0.0-2.0-57.0","63d1ac235a42c0eee8e90ff9","D2","batch4","","-1","tol_feedback","","","true","","1000","1000","500","","","","","","-1","none","true","9500","17825","","","","","","","","","",""
"","","","","","html-button-response","234","628730","0.0-2.0-58.0","63d1ac235a42c0eee8e90ff9","D2","batch4","","1554.1000000238419","tol_trial_num","<div class = centerbox><p class = center-block-text>problem <strong>17</strong> out of 25 problems</p></div>","0","","","","","","","","","","","","","","","","","","","","","","","","",""
"","","","","","single-stim-button","235","634381","0.0-2.0-59.0-0.0","63d1ac235a42c0eee8e90ff9","D2","batch4","","5649","tol_tohand","","","","tol_peg_2","5649","5649","0","[[1,2,0],[0,0],[0]]","1","[[3,1,0],[2,0],[0]]","16","0","","","","","","5","","","","","","","","",""
"","","","","","single-stim-button","236","636038","0.0-2.0-59.0-1.0","63d1ac235a42c0eee8e90ff9","D2","batch4","","1656","tol_toboard","","","","tol_peg_3","1656","1656","0","[[1,2,0],[0,0],[3]]","1","[[3,1,0],[2,0],[0]]","16","0","","","","","","5","","","","","","","","",""
"","","","","","single-stim-button","237","636866","0.0-2.0-59.1-0.1","63d1ac235a42c0eee8e90ff9","D2","batch4","","827","tol_tohand","","","","tol_peg_1","827","827","0","[[1,0,0],[0,0],[3]]","2","[[3,1,0],[2,0],[0]]","16","0","","","","","","5","","","","","","","","",""
"","","","","","single-stim-button","238","638323","0.0-2.0-59.1-1.1","63d1ac235a42c0eee8e90ff9","D2","batch4","","1456","tol_toboard","","","","tol_peg_2","1456","1456","0","[[1,0,0],[2,0],[3]]","2","[[3,1,0],[2,0],[0]]","16","0","","","","","","5","","","","","","","","",""
"","","","","","single-stim-button","239","639381","0.0-2.0-59.2-0.2","63d1ac235a42c0eee8e90ff9","D2","batch4","","1058","tol_tohand","","","","tol_peg_1","1058","1058","0","[[0,0,0],[2,0],[3]]","3","[[3,1,0],[2,0],[0]]","16","0","","","","","","5","","","","","","","","",""
"","","","","","single-stim-button","240","640047","0.0-2.0-59.2-1.2","63d1ac235a42c0eee8e90ff9","D2","batch4","","664","tol_toboard","","","","tol_peg_2","664","664","0","[[0,0,0],[2,1],[3]]","3","[[3,1,0],[2,0],[0]]","16","0","","","","","","5","","","","","","","","",""
"","","","","","single-stim-button","241","640863","0.0-2.0-59.3-0.3","63d1ac235a42c0eee8e90ff9","D2","batch4","","816","tol_tohand","","","","tol_peg_3","816","816","0","[[0,0,0],[2,1],[0]]","4","[[3,1,0],[2,0],[0]]","16","0","","","","","","5","","","","","","","","",""
"","","","","","single-stim-button","242","641871","0.0-2.0-59.3-1.3","63d1ac235a42c0eee8e90ff9","D2","batch4","","1007","tol_toboard","","","","tol_peg_1","1007","1007","0","[[3,0,0],[2,1],[0]]","4","[[3,1,0],[2,0],[0]]","16","0","","","","","","5","","","","","","","","",""
"","","","","","single-stim-button","243","642750","0.0-2.0-59.4-0.4","63d1ac235a42c0eee8e90ff9","D2","batch4","","878","tol_tohand","","","","tol_peg_2","878","878","0","[[3,0,0],[2,0],[0]]","5","[[3,1,0],[2,0],[0]]","16","0","","","","","","5","","","","","","","","",""
"","","","","","single-stim-button","244","643488","0.0-2.0-59.4-1.4","63d1ac235a42c0eee8e90ff9","D2","batch4","","736","tol_toboard","","","","tol_peg_1","736","736","0","[[3,1,0],[2,0],[0]]","5","[[3,1,0],[2,0],[0]]","16","0","","","","","","5","","","","","","","","",""
"","","","","","poldrack-single-stim","245","644505","0.0-2.0-60.0","63d1ac235a42c0eee8e90ff9","D2","batch4","","-1","tol_feedback","","","true","","1000","1000","500","","","","","","-1","none","true","5649","9228","","","","","","","","","",""
"","","","","","html-button-response","246","645880","0.0-2.0-61.0","63d1ac235a42c0eee8e90ff9","D2","batch4","","1374.8999999761581","tol_trial_num","<div class = centerbox><p class = center-block-text>problem <strong>18</strong> out of 25 problems</p></div>","0","","","","","","","","","","","","","","","","","","","","","","","","",""
"","","","","","single-stim-button","247","650840","0.0-2.0-62.0-0.0","63d1ac235a42c0eee8e90ff9","D2","batch4","","4958","tol_tohand","","","","tol_peg_1","4958","4958","0","[[1,0,0],[3,0],[0]]","1","[[3,0,0],[2,0],[1]]","17","0","","","","","","5","","","","","","","","",""
"","","","","","single-stim-button","248","651575","0.0-2.0-62.0-1.0","63d1ac235a42c0eee8e90ff9","D2","batch4","","733","tol_toboard","","","","tol_peg_2","733","733","0","[[1,0,0],[3,2],[0]]","1","[[3,0,0],[2,0],[1]]","17","0","","","","","","5","","","","","","","","",""
"","","","","","single-stim-button","249","652146","0.0-2.0-62.1-0.1","63d1ac235a42c0eee8e90ff9","D2","batch4","","571","tol_tohand","","","","tol_peg_1","571","571","0","[[0,0,0],[3,2],[0]]","2","[[3,0,0],[2,0],[1]]","17","0","","","","","","5","","","","","","","","",""
"","","","","","single-stim-button","250","653697","0.0-2.0-62.1-1.1","63d1ac235a42c0eee8e90ff9","D2","batch4","","1549","tol_toboard","","","","tol_peg_3","1549","1549","0","[[0,0,0],[3,2],[1]]","2","[[3,0,0],[2,0],[1]]","17","0","","","","","","5","","","","","","","","",""
"","","","","","single-stim-button","251","666432","0.0-2.0-62.2-0.2","63d1ac235a42c0eee8e90ff9","D2","batch4","","12734","tol_tohand","","","","tol_peg_3","12734","12734","0","[[0,0,0],[3,2],[0]]","3","[[3,0,0],[2,0],[1]]","17","0","","","","","","5","","","","","","","","",""
"","","","","","single-stim-button","252","667787","0.0-2.0-62.2-1.2","63d1ac235a42c0eee8e90ff9","D2","batch4","","1354","tol_toboard","","","","tol_peg_1","1354","1354","0","[[1,0,0],[3,2],[0]]","3","[[3,0,0],[2,0],[1]]","17","0","","","","","","5","","","","","","","","",""
"","","","","","single-stim-button","253","668454","0.0-2.0-62.3-0.3","63d1ac235a42c0eee8e90ff9","D2","batch4","","666","tol_tohand","","","","tol_peg_2","666","666","0","[[1,0,0],[3,0],[0]]","4","[[3,0,0],[2,0],[1]]","17","0","","","","","","5","","","","","","","","",""
"","","","","","single-stim-button","254","669465","0.0-2.0-62.3-1.3","63d1ac235a42c0eee8e90ff9","D2","batch4","","1011","tol_toboard","","","","tol_peg_1","1011","1011","0","[[1,2,0],[3,0],[0]]","4","[[3,0,0],[2,0],[1]]","17","0","","","","","","5","","","","","","","","",""
"","","","","","single-stim-button","255","670137","0.0-2.0-62.4-0.4","63d1ac235a42c0eee8e90ff9","D2","batch4","","670","tol_tohand","","","","tol_peg_2","670","670","0","[[1,2,0],[0,0],[0]]","5","[[3,0,0],[2,0],[1]]","17","0","","","","","","5","","","","","","","","",""
"","","","","","single-stim-button","256","671484","0.0-2.0-62.4-1.4","63d1ac235a42c0eee8e90ff9","D2","batch4","","1346","tol_toboard","","","","tol_peg_3","1346","1346","0","[[1,2,0],[0,0],[3]]","5","[[3,0,0],[2,0],[1]]","17","0","","","","","","5","","","","","","","","",""
"","","","","","single-stim-button","257","672445","0.0-2.0-62.5-0.5","63d1ac235a42c0eee8e90ff9","D2","batch4","","960","tol_tohand","","","","tol_peg_1","960","960","0","[[1,0,0],[0,0],[3]]","6","[[3,0,0],[2,0],[1]]","17","0","","","","","","5","","","","","","","","",""
"","","","","","single-stim-button","258","673827","0.0-2.0-62.5-1.5","63d1ac235a42c0eee8e90ff9","D2","batch4","","1380","tol_toboard","","","","tol_peg_2","1380","1380","0","[[1,0,0],[2,0],[3]]","6","[[3,0,0],[2,0],[1]]","17","0","","","","","","5","","","","","","","","",""
"","","","","","single-stim-button","259","674684","0.0-2.0-62.6-0.6","63d1ac235a42c0eee8e90ff9","D2","batch4","","856","tol_tohand","","","","tol_peg_1","856","856","0","[[0,0,0],[2,0],[3]]","7","[[3,0,0],[2,0],[1]]","17","0","","","","","","5","","","","","","","","",""
"","","","","","single-stim-button","260","675703","0.0-2.0-62.6-1.6","63d1ac235a42c0eee8e90ff9","D2","batch4","","1018","tol_toboard","","","","tol_peg_2","1018","1018","0","[[0,0,0],[2,1],[3]]","7","[[3,0,0],[2,0],[1]]","17","0","","","","","","5","","","","","","","","",""
"","","","","","single-stim-button","261","676593","0.0-2.0-62.7-0.7","63d1ac235a42c0eee8e90ff9","D2","batch4","","889","tol_tohand","","","","tol_peg_3","889","889","0","[[0,0,0],[2,1],[0]]","8","[[3,0,0],[2,0],[1]]","17","0","","","","","","5","","","","","","","","",""
"","","","","","single-stim-button","262","677640","0.0-2.0-62.7-1.7","63d1ac235a42c0eee8e90ff9","D2","batch4","","1045","tol_toboard","","","","tol_peg_1","1045","1045","0","[[3,0,0],[2,1],[0]]","8","[[3,0,0],[2,0],[1]]","17","0","","","","","","5","","","","","","","","",""
"","","","","","single-stim-button","263","678556","0.0-2.0-62.8-0.8","63d1ac235a42c0eee8e90ff9","D2","batch4","","914","tol_tohand","","","","tol_peg_2","914","914","0","[[3,0,0],[2,0],[0]]","9","[[3,0,0],[2,0],[1]]","17","0","","","","","","5","","","","","","","","",""
"","","","","","single-stim-button","264","679435","0.0-2.0-62.8-1.8","63d1ac235a42c0eee8e90ff9","D2","batch4","","879","tol_toboard","","","","tol_peg_3","879","879","0","[[3,0,0],[2,0],[1]]","9","[[3,0,0],[2,0],[1]]","17","0","","","","","","5","","","","","","","","",""
"","","","","","poldrack-single-stim","265","680438","0.0-2.0-63.0","63d1ac235a42c0eee8e90ff9","D2","batch4","","-1","tol_feedback","","","true","","1000","1000","500","","","","","","-1","none","true","4958","23218","","","","","","","","","",""
"","","","","","html-button-response","266","681732","0.0-2.0-64.0","63d1ac235a42c0eee8e90ff9","D2","batch4","","1292.699999988079","tol_trial_num","<div class = centerbox><p class = center-block-text>problem <strong>19</strong> out of 25 problems</p></div>","0","","","","","","","","","","","","","","","","","","","","","","","","",""
"","","","","","single-stim-button","267","684758","0.0-2.0-65.0-0.0","63d1ac235a42c0eee8e90ff9","D2","batch4","","3025","tol_tohand","","","","tol_peg_2","3025","3025","0","[[1,2,0],[0,0],[0]]","1","[[0,0,0],[1,2],[3]]","18","0","","","","","","7","","","","","","","","",""
"","","","","","single-stim-button","268","689336","0.0-2.0-65.0-1.0","63d1ac235a42c0eee8e90ff9","D2","batch4","","4576","tol_toboard","","","","tol_peg_2","4576","4576","0","[[1,2,0],[3,0],[0]]","1","[[0,0,0],[1,2],[3]]","18","0","","","","","","7","","","","","","","","",""
"","","","","","single-stim-button","269","692057","0.0-2.0-65.1-0.1","63d1ac235a42c0eee8e90ff9","D2","batch4","","2720","tol_tohand","","","","tol_peg_1","2720","2720","0","[[1,0,0],[3,0],[0]]","2","[[0,0,0],[1,2],[3]]","18","0","","","","","","7","","","","","","","","",""
"","","","","","single-stim-button","270","701149","0.0-2.0-65.1-1.1","63d1ac235a42c0eee8e90ff9","D2","batch4","","9091","tol_toboard","","","","tol_peg_3","9091","9091","0","[[1,0,0],[3,0],[2]]","2","[[0,0,0],[1,2],[3]]","18","0","","","","","","7","","","","","","","","",""
"","","","","","single-stim-button","271","712245","0.0-2.0-65.2-0.2","63d1ac235a42c0eee8e90ff9","D2","batch4","","11095","tol_tohand","","","","tol_peg_1","11095","11095","0","[[0,0,0],[3,0],[2]]","3","[[0,0,0],[1,2],[3]]","18","0","","","","","","7","","","","","","","","",""
"","","","","","single-stim-button","272","713563","0.0-2.0-65.2-1.2","63d1ac235a42c0eee8e90ff9","D2","batch4","","1317","tol_toboard","","","","tol_peg_2","1317","1317","0","[[0,0,0],[3,1],[2]]","3","[[0,0,0],[1,2],[3]]","18","0","","","","","","7","","","","","","","","",""
"","","","","","single-stim-button","273","714563","0.0-2.0-65.3-0.3","63d1ac235a42c0eee8e90ff9","D2","batch4","","998","tol_tohand","","","","tol_peg_3","998","998","0","[[0,0,0],[3,1],[0]]","4","[[0,0,0],[1,2],[3]]","18","0","","","","","","7","","","","","","","","",""
"","","","","","single-stim-button","274","715783","0.0-2.0-65.3-1.3","63d1ac235a42c0eee8e90ff9","D2","batch4","","1220","tol_toboard","","","","tol_peg_1","1220","1220","0","[[2,0,0],[3,1],[0]]","4","[[0,0,0],[1,2],[3]]","18","0","","","","","","7","","","","","","","","",""
"","","","","","single-stim-button","275","717348","0.0-2.0-65.4-0.4","63d1ac235a42c0eee8e90ff9","D2","batch4","","1562","tol_tohand","","","","tol_peg_2","1562","1562","0","[[2,0,0],[3,0],[0]]","5","[[0,0,0],[1,2],[3]]","18","0","","","","","","7","","","","","","","","",""
"","","","","","single-stim-button","276","718456","0.0-2.0-65.4-1.4","63d1ac235a42c0eee8e90ff9","D2","batch4","","1106","tol_toboard","","","","tol_peg_3","1106","1106","0","[[2,0,0],[3,0],[1]]","5","[[0,0,0],[1,2],[3]]","18","0","","","","","","7","","","","","","","","",""
"","","","","","single-stim-button","277","719415","0.0-2.0-65.5-0.5","63d1ac235a42c0eee8e90ff9","D2","batch4","","958","tol_tohand","","","","tol_peg_2","958","958","0","[[2,0,0],[0,0],[1]]","6","[[0,0,0],[1,2],[3]]","18","0","","","","","","7","","","","","","","","",""
"","","","","","single-stim-button","278","720802","0.0-2.0-65.5-1.5","63d1ac235a42c0eee8e90ff9","D2","batch4","","1386","tol_toboard","","","","tol_peg_1","1386","1386","0","[[2,3,0],[0,0],[1]]","6","[[0,0,0],[1,2],[3]]","18","0","","","","","","7","","","","","","","","",""
"","","","","","single-stim-button","279","721804","0.0-2.0-65.6-0.6","63d1ac235a42c0eee8e90ff9","D2","batch4","","1001","tol_tohand","","","","tol_peg_3","1001","1001","0","[[2,3,0],[0,0],[0]]","7","[[0,0,0],[1,2],[3]]","18","0","","","","","","7","","","","","","","","",""
"","","","","","single-stim-button","280","723194","0.0-2.0-65.6-1.6","63d1ac235a42c0eee8e90ff9","D2","batch4","","1389","tol_toboard","","","","tol_peg_2","1389","1389","0","[[2,3,0],[1,0],[0]]","7","[[0,0,0],[1,2],[3]]","18","0","","","","","","7","","","","","","","","",""
"","","","","","single-stim-button","281","724242","0.0-2.0-65.7-0.7","63d1ac235a42c0eee8e90ff9","D2","batch4","","1048","tol_tohand","","","","tol_peg_1","1048","1048","0","[[2,0,0],[1,0],[0]]","8","[[0,0,0],[1,2],[3]]","18","0","","","","","","7","","","","","","","","",""
"","","","","","single-stim-button","282","725299","0.0-2.0-65.7-1.7","63d1ac235a42c0eee8e90ff9","D2","batch4","","1055","tol_toboard","","","","tol_peg_3","1055","1055","0","[[2,0,0],[1,0],[3]]","8","[[0,0,0],[1,2],[3]]","18","0","","","","","","7","","","","","","","","",""
"","","","","","single-stim-button","283","726309","0.0-2.0-65.8-0.8","63d1ac235a42c0eee8e90ff9","D2","batch4","","1009","tol_tohand","","","","tol_peg_1","1009","1009","0","[[0,0,0],[1,0],[3]]","9","[[0,0,0],[1,2],[3]]","18","0","","","","","","7","","","","","","","","",""
"","","","","","single-stim-button","284","727602","0.0-2.0-65.8-1.8","63d1ac235a42c0eee8e90ff9","D2","batch4","","1292","tol_toboard","","","","tol_peg_2","1292","1292","0","[[0,0,0],[1,2],[3]]","9","[[0,0,0],[1,2],[3]]","18","0","","","","","","7","","","","","","","","",""
"","","","","","poldrack-single-stim","285","728622","0.0-2.0-66.0","63d1ac235a42c0eee8e90ff9","D2","batch4","","-1","tol_feedback","","","true","","1000","1000","500","","","","","","-1","none","true","3025","23416","","","","","","","","","",""
"","","","","","html-button-response","286","730309","0.0-2.0-67.0","63d1ac235a42c0eee8e90ff9","D2","batch4","","1686.1000000238419","tol_trial_num","<div class = centerbox><p class = center-block-text>problem <strong>20</strong> out of 25 problems</p></div>","0","","","","","","","","","","","","","","","","","","","","","","","","",""
"","","","","","single-stim-button","287","734621","0.0-2.0-68.0-0.0","63d1ac235a42c0eee8e90ff9","D2","batch4","","4311","tol_tohand","","","","tol_peg_2","4311","4311","0","[[1,2,0],[0,0],[0]]","1","[[2,1,0],[0,0],[3]]","19","0","","","","","","5","","","","","","","","",""
"","","","","","single-stim-button","288","738488","0.0-2.0-68.0-1.0","63d1ac235a42c0eee8e90ff9","D2","batch4","","3866","tol_toboard","","","","tol_peg_2","3866","3866","0","[[1,2,0],[3,0],[0]]","1","[[2,1,0],[0,0],[3]]","19","0","","","","","","5","","","","","","","","",""
"","","","","","single-stim-button","289","740622","0.0-2.0-68.1-0.1","63d1ac235a42c0eee8e90ff9","D2","batch4","","2132","tol_tohand","","","","tol_peg_1","2132","2132","0","[[1,0,0],[3,0],[0]]","2","[[2,1,0],[0,0],[3]]","19","0","","","","","","5","","","","","","","","",""
"","","","","","single-stim-button","290","741658","0.0-2.0-68.1-1.1","63d1ac235a42c0eee8e90ff9","D2","batch4","","1036","tol_toboard","","","","tol_peg_2","1036","1036","0","[[1,0,0],[3,2],[0]]","2","[[2,1,0],[0,0],[3]]","19","0","","","","","","5","","","","","","","","",""
"","","","","","single-stim-button","291","742540","0.0-2.0-68.2-0.2","63d1ac235a42c0eee8e90ff9","D2","batch4","","880","tol_tohand","","","","tol_peg_1","880","880","0","[[0,0,0],[3,2],[0]]","3","[[2,1,0],[0,0],[3]]","19","0","","","","","","5","","","","","","","","",""
"","","","","","single-stim-button","292","743597","0.0-2.0-68.2-1.2","63d1ac235a42c0eee8e90ff9","D2","batch4","","1056","tol_toboard","","","","tol_peg_3","1056","1056","0","[[0,0,0],[3,2],[1]]","3","[[2,1,0],[0,0],[3]]","19","0","","","","","","5","","","","","","","","",""
"","","","","","single-stim-button","293","745321","0.0-2.0-68.3-0.3","63d1ac235a42c0eee8e90ff9","D2","batch4","","1724","tol_tohand","","","","tol_peg_2","1724","1724","0","[[0,0,0],[3,0],[1]]","4","[[2,1,0],[0,0],[3]]","19","0","","","","","","5","","","","","","","","",""
"","","","","","single-stim-button","294","746939","0.0-2.0-68.3-1.3","63d1ac235a42c0eee8e90ff9","D2","batch4","","1616","tol_toboard","","","","tol_peg_1","1616","1616","0","[[2,0,0],[3,0],[1]]","4","[[2,1,0],[0,0],[3]]","19","0","","","","","","5","","","","","","","","",""
"","","","","","single-stim-button","295","747866","0.0-2.0-68.4-0.4","63d1ac235a42c0eee8e90ff9","D2","batch4","","926","tol_tohand","","","","tol_peg_3","926","926","0","[[2,0,0],[3,0],[0]]","5","[[2,1,0],[0,0],[3]]","19","0","","","","","","5","","","","","","","","",""
"","","","","","single-stim-button","296","749151","0.0-2.0-68.4-1.4","63d1ac235a42c0eee8e90ff9","D2","batch4","","1285","tol_toboard","","","","tol_peg_1","1285","1285","0","[[2,1,0],[3,0],[0]]","5","[[2,1,0],[0,0],[3]]","19","0","","","","","","5","","","","","","","","",""
"","","","","","single-stim-button","297","749830","0.0-2.0-68.5-0.5","63d1ac235a42c0eee8e90ff9","D2","batch4","","678","tol_tohand","","","","tol_peg_2","678","678","0","[[2,1,0],[0,0],[0]]","6","[[2,1,0],[0,0],[3]]","19","0","","","","","","5","","","","","","","","",""
"","","","","","single-stim-button","298","750623","0.0-2.0-68.5-1.5","63d1ac235a42c0eee8e90ff9","D2","batch4","","791","tol_toboard","","","","tol_peg_3","791","791","0","[[2,1,0],[0,0],[3]]","6","[[2,1,0],[0,0],[3]]","19","0","","","","","","5","","","","","","","","",""
"","","","","","poldrack-single-stim","299","751624","0.0-2.0-69.0","63d1ac235a42c0eee8e90ff9","D2","batch4","","-1","tol_feedback","","","true","","1000","1000","500","","","","","","-1","none","true","4311","10651","","","","","","","","","",""
"","","","","","html-button-response","300","752624","0.0-2.0-70.0","63d1ac235a42c0eee8e90ff9","D2","batch4","","999","tol_trial_num","<div class = centerbox><p class = center-block-text>problem <strong>21</strong> out of 25 problems</p></div>","0","","","","","","","","","","","","","","","","","","","","","","","","",""
"","","","","","single-stim-button","301","758322","0.0-2.0-71.0-0.0","63d1ac235a42c0eee8e90ff9","D2","batch4","","5697","tol_tohand","","","","tol_peg_1","5697","5697","0","[[1,0,0],[3,0],[0]]","1","[[3,2,0],[0,0],[1]]","20","0","","","","","","6","","","","","","","","",""
"","","","","","single-stim-button","302","759280","0.0-2.0-71.0-1.0","63d1ac235a42c0eee8e90ff9","D2","batch4","","956","tol_toboard","","","","tol_peg_2","956","956","0","[[1,0,0],[3,2],[0]]","1","[[3,2,0],[0,0],[1]]","20","0","","","","","","6","","","","","","","","",""
"","","","","","single-stim-button","303","760170","0.0-2.0-71.1-0.1","63d1ac235a42c0eee8e90ff9","D2","batch4","","890","tol_tohand","","","","tol_peg_1","890","890","0","[[0,0,0],[3,2],[0]]","2","[[3,2,0],[0,0],[1]]","20","0","","","","","","6","","","","","","","","",""
"","","","","","single-stim-button","304","762929","0.0-2.0-71.1-1.1","63d1ac235a42c0eee8e90ff9","D2","batch4","","2757","tol_toboard","","","","tol_peg_3","2757","2757","0","[[0,0,0],[3,2],[1]]","2","[[3,2,0],[0,0],[1]]","20","0","","","","","","6","","","","","","","","",""
"","","","","","single-stim-button","305","765957","0.0-2.0-71.2-0.2","63d1ac235a42c0eee8e90ff9","D2","batch4","","3028","tol_tohand","","","","tol_peg_3","3028","3028","0","[[0,0,0],[3,2],[0]]","3","[[3,2,0],[0,0],[1]]","20","0","","","","","","6","","","","","","","","",""
"","","","","","single-stim-button","306","767074","0.0-2.0-71.2-1.2","63d1ac235a42c0eee8e90ff9","D2","batch4","","1116","tol_toboard","","","","tol_peg_1","1116","1116","0","[[1,0,0],[3,2],[0]]","3","[[3,2,0],[0,0],[1]]","20","0","","","","","","6","","","","","","","","",""
"","","","","","single-stim-button","307","768000","0.0-2.0-71.3-0.3","63d1ac235a42c0eee8e90ff9","D2","batch4","","924","tol_tohand","","","","tol_peg_2","924","924","0","[[1,0,0],[3,0],[0]]","4","[[3,2,0],[0,0],[1]]","20","0","","","","","","6","","","","","","","","",""
"","","","","","single-stim-button","308","769275","0.0-2.0-71.3-1.3","63d1ac235a42c0eee8e90ff9","D2","batch4","","1275","tol_toboard","","","","tol_peg_1","1275","1275","0","[[1,2,0],[3,0],[0]]","4","[[3,2,0],[0,0],[1]]","20","0","","","","","","6","","","","","","","","",""
"","","","","","single-stim-button","309","770100","0.0-2.0-71.4-0.4","63d1ac235a42c0eee8e90ff9","D2","batch4","","824","tol_tohand","","","","tol_peg_2","824","824","0","[[1,2,0],[0,0],[0]]","5","[[3,2,0],[0,0],[1]]","20","0","","","","","","6","","","","","","","","",""
"","","","","","single-stim-button","310","770956","0.0-2.0-71.4-1.4","63d1ac235a42c0eee8e90ff9","D2","batch4","","855","tol_toboard","","","","tol_peg_3","855","855","0","[[1,2,0],[0,0],[3]]","5","[[3,2,0],[0,0],[1]]","20","0","","","","","","6","","","","","","","","",""
"","","","","","single-stim-button","311","772280","0.0-2.0-71.5-0.5","63d1ac235a42c0eee8e90ff9","D2","batch4","","1322","tol_tohand","","","","tol_peg_1","1322","1322","0","[[1,0,0],[0,0],[3]]","6","[[3,2,0],[0,0],[1]]","20","0","","","","","","6","","","","","","","","",""
"","","","","","single-stim-button","312","774904","0.0-2.0-71.5-1.5","63d1ac235a42c0eee8e90ff9","D2","batch4","","2623","tol_toboard","","","","tol_peg_2","2623","2623","0","[[1,0,0],[2,0],[3]]","6","[[3,2,0],[0,0],[1]]","20","0","","","","","","6","","","","","","","","",""
"","","","","","single-stim-button","313","775742","0.0-2.0-71.6-0.6","63d1ac235a42c0eee8e90ff9","D2","batch4","","837","tol_tohand","","","","tol_peg_1","837","837","0","[[0,0,0],[2,0],[3]]","7","[[3,2,0],[0,0],[1]]","20","0","","","","","","6","","","","","","","","",""
"","","","","","single-stim-button","314","776426","0.0-2.0-71.6-1.6","63d1ac235a42c0eee8e90ff9","D2","batch4","","684","tol_toboard","","","","tol_peg_2","684","684","0","[[0,0,0],[2,1],[3]]","7","[[3,2,0],[0,0],[1]]","20","0","","","","","","6","","","","","","","","",""
"","","","","","single-stim-button","315","777259","0.0-2.0-71.7-0.7","63d1ac235a42c0eee8e90ff9","D2","batch4","","830","tol_tohand","","","","tol_peg_3","830","830","0","[[0,0,0],[2,1],[0]]","8","[[3,2,0],[0,0],[1]]","20","0","","","","","","6","","","","","","","","",""
"","","","","","single-stim-button","316","778400","0.0-2.0-71.7-1.7","63d1ac235a42c0eee8e90ff9","D2","batch4","","1140","tol_toboard","","","","tol_peg_1","1140","1140","0","[[3,0,0],[2,1],[0]]","8","[[3,2,0],[0,0],[1]]","20","0","","","","","","6","","","","","","","","",""
"","","","","","single-stim-button","317","779520","0.0-2.0-71.8-0.8","63d1ac235a42c0eee8e90ff9","D2","batch4","","1118","tol_tohand","","","","tol_peg_2","1118","1118","0","[[3,0,0],[2,0],[0]]","9","[[3,2,0],[0,0],[1]]","20","0","","","","","","6","","","","","","","","",""
"","","","","","single-stim-button","318","780481","0.0-2.0-71.8-1.8","63d1ac235a42c0eee8e90ff9","D2","batch4","","961","tol_toboard","","","","tol_peg_3","961","961","0","[[3,0,0],[2,0],[1]]","9","[[3,2,0],[0,0],[1]]","20","0","","","","","","6","","","","","","","","",""
"","","","","","single-stim-button","319","781039","0.0-2.0-71.9-0.9","63d1ac235a42c0eee8e90ff9","D2","batch4","","556","tol_tohand","","","","tol_peg_2","556","556","0","[[3,0,0],[0,0],[1]]","10","[[3,2,0],[0,0],[1]]","20","0","","","","","","6","","","","","","","","",""
"","","","","","single-stim-button","320","782482","0.0-2.0-71.9-1.9","63d1ac235a42c0eee8e90ff9","D2","batch4","","1442","tol_toboard","","","","tol_peg_1","1442","1442","0","[[3,2,0],[0,0],[1]]","10","[[3,2,0],[0,0],[1]]","20","0","","","","","","6","","","","","","","","",""
"","","","","","poldrack-single-stim","321","783485","0.0-2.0-72.0","63d1ac235a42c0eee8e90ff9","D2","batch4","","-1","tol_feedback","","","true","","1000","1000","500","","","","","","-1","none","true","5697","16026","","","","","","","","","",""
"","","","","","html-button-response","322","784732","0.0-2.0-73.0","63d1ac235a42c0eee8e90ff9","D2","batch4","","1245.6000000238419","tol_trial_num","<div class = centerbox><p class = center-block-text>problem <strong>22</strong> out of 25 problems</p></div>","0","","","","","","","","","","","","","","","","","","","","","","","","",""
"","","","","","single-stim-button","323","792259","0.0-2.0-74.0-0.0","63d1ac235a42c0eee8e90ff9","D2","batch4","","7525","tol_tohand","","","","tol_peg_1","7525","7525","0","[[0,0,0],[2,3],[0]]","1","[[0,0,0],[1,2],[3]]","21","0","","","","","","6","","","","","","","","",""
"","","","","","single-stim-button","324","794674","0.0-2.0-74.0-1.0","63d1ac235a42c0eee8e90ff9","D2","batch4","","2413","tol_toboard","","","","tol_peg_3","2413","2413","0","[[0,0,0],[2,3],[1]]","1","[[0,0,0],[1,2],[3]]","21","0","","","","","","6","","","","","","","","",""
"","","","","","single-stim-button","325","795737","0.0-2.0-74.1-0.1","63d1ac235a42c0eee8e90ff9","D2","batch4","","1062","tol_tohand","","","","tol_peg_2","1062","1062","0","[[0,0,0],[2,0],[1]]","2","[[0,0,0],[1,2],[3]]","21","0","","","","","","6","","","","","","","","",""
"","","","","","single-stim-button","326","797686","0.0-2.0-74.1-1.1","63d1ac235a42c0eee8e90ff9","D2","batch4","","1947","tol_toboard","","","","tol_peg_1","1947","1947","0","[[3,0,0],[2,0],[1]]","2","[[0,0,0],[1,2],[3]]","21","0","","","","","","6","","","","","","","","",""
"","","","","","single-stim-button","327","798656","0.0-2.0-74.2-0.2","63d1ac235a42c0eee8e90ff9","D2","batch4","","969","tol_tohand","","","","tol_peg_2","969","969","0","[[3,0,0],[0,0],[1]]","3","[[0,0,0],[1,2],[3]]","21","0","","","","","","6","","","","","","","","",""
"","","","","","single-stim-button","328","799592","0.0-2.0-74.2-1.2","63d1ac235a42c0eee8e90ff9","D2","batch4","","935","tol_toboard","","","","tol_peg_1","935","935","0","[[3,2,0],[0,0],[1]]","3","[[0,0,0],[1,2],[3]]","21","0","","","","","","6","","","","","","","","",""
"","","","","","single-stim-button","329","800624","0.0-2.0-74.3-0.3","63d1ac235a42c0eee8e90ff9","D2","batch4","","1031","tol_tohand","","","","tol_peg_3","1031","1031","0","[[3,2,0],[0,0],[0]]","4","[[0,0,0],[1,2],[3]]","21","0","","","","","","6","","","","","","","","",""
"","","","","","single-stim-button","330","801728","0.0-2.0-74.3-1.3","63d1ac235a42c0eee8e90ff9","D2","batch4","","1103","tol_toboard","","","","tol_peg_2","1103","1103","0","[[3,2,0],[1,0],[0]]","4","[[0,0,0],[1,2],[3]]","21","0","","","","","","6","","","","","","","","",""
"","","","","","single-stim-button","331","802434","0.0-2.0-74.4-0.4","63d1ac235a42c0eee8e90ff9","D2","batch4","","704","tol_tohand","","","","tol_peg_1","704","704","0","[[3,0,0],[1,0],[0]]","5","[[0,0,0],[1,2],[3]]","21","0","","","","","","6","","","","","","","","",""
"","","","","","single-stim-button","332","803286","0.0-2.0-74.4-1.4","63d1ac235a42c0eee8e90ff9","D2","batch4","","851","tol_toboard","","","","tol_peg_2","851","851","0","[[3,0,0],[1,2],[0]]","5","[[0,0,0],[1,2],[3]]","21","0","","","","","","6","","","","","","","","",""
"","","","","","single-stim-button","333","804209","0.0-2.0-74.5-0.5","63d1ac235a42c0eee8e90ff9","D2","batch4","","921","tol_tohand","","","","tol_peg_1","921","921","0","[[0,0,0],[1,2],[0]]","6","[[0,0,0],[1,2],[3]]","21","0","","","","","","6","","","","","","","","",""
"","","","","","single-stim-button","334","805235","0.0-2.0-74.5-1.5","63d1ac235a42c0eee8e90ff9","D2","batch4","","1023","tol_toboard","","","","tol_peg_3","1023","1023","0","[[0,0,0],[1,2],[3]]","6","[[0,0,0],[1,2],[3]]","21","0","","","","","","6","","","","","","","","",""
"","","","","","poldrack-single-stim","335","806249","0.0-2.0-75.0","63d1ac235a42c0eee8e90ff9","D2","batch4","","-1","tol_feedback","","","true","","1000","1000","500","","","","","","-1","none","true","7525","12212","","","","","","","","","",""
"","","","","","html-button-response","336","808245","0.0-2.0-76.0","63d1ac235a42c0eee8e90ff9","D2","batch4","","1994.5999999642372","tol_trial_num","<div class = centerbox><p class = center-block-text>problem <strong>23</strong> out of 25 problems</p></div>","0","","","","","","","","","","","","","","","","","","","","","","","","",""
"","","","","","single-stim-button","337","815922","0.0-2.0-77.0-0.0","63d1ac235a42c0eee8e90ff9","D2","batch4","","7676","tol_tohand","","","","tol_peg_1","7676","7676","0","[[1,0,0],[3,0],[0]]","1","[[1,3,2],[0,0],[0]]","22","0","","","","","","3","","","","","","","","",""
"","","","","","single-stim-button","338","816947","0.0-2.0-77.0-1.0","63d1ac235a42c0eee8e90ff9","D2","batch4","","1024","tol_toboard","","","","tol_peg_3","1024","1024","0","[[1,0,0],[3,0],[2]]","1","[[1,3,2],[0,0],[0]]","22","0","","","","","","3","","","","","","","","",""
"","","","","","single-stim-button","339","817846","0.0-2.0-77.1-0.1","63d1ac235a42c0eee8e90ff9","D2","batch4","","898","tol_tohand","","","","tol_peg_2","898","898","0","[[1,0,0],[0,0],[2]]","2","[[1,3,2],[0,0],[0]]","22","0","","","","","","3","","","","","","","","",""
"","","","","","single-stim-button","340","818785","0.0-2.0-77.1-1.1","63d1ac235a42c0eee8e90ff9","D2","batch4","","937","tol_toboard","","","","tol_peg_1","937","937","0","[[1,3,0],[0,0],[2]]","2","[[1,3,2],[0,0],[0]]","22","0","","","","","","3","","","","","","","","",""
"","","","","","single-stim-button","341","819763","0.0-2.0-77.2-0.2","63d1ac235a42c0eee8e90ff9","D2","batch4","","977","tol_tohand","","","","tol_peg_3","977","977","0","[[1,3,0],[0,0],[0]]","3","[[1,3,2],[0,0],[0]]","22","0","","","","","","3","","","","","","","","",""
"","","","","","single-stim-button","342","820796","0.0-2.0-77.2-1.2","63d1ac235a42c0eee8e90ff9","D2","batch4","","1032","tol_toboard","","","","tol_peg_1","1032","1032","0","[[1,3,2],[0,0],[0]]","3","[[1,3,2],[0,0],[0]]","22","0","","","","","","3","","","","","","","","",""
"","","","","","poldrack-single-stim","343","821800","0.0-2.0-78.0","63d1ac235a42c0eee8e90ff9","D2","batch4","","-1","tol_feedback","","","true","","1000","1000","500","","","","","","-1","none","true","7676","9551","","","","","","","","","",""
"","","","","","html-button-response","344","823250","0.0-2.0-79.0","63d1ac235a42c0eee8e90ff9","D2","batch4","","1448.8999999761581","tol_trial_num","<div class = centerbox><p class = center-block-text>problem <strong>24</strong> out of 25 problems</p></div>","0","","","","","","","","","","","","","","","","","","","","","","","","",""
"","","","","","single-stim-button","345","831395","0.0-2.0-80.0-0.0","63d1ac235a42c0eee8e90ff9","D2","batch4","","8144","tol_tohand","","","","tol_peg_2","8144","8144","0","[[0,0,0],[2,0],[1]]","1","[[2,0,0],[3,0],[1]]","23","0","","","","","","7","","","","","","","","",""
"","","","","","single-stim-button","346","832805","0.0-2.0-80.0-1.0","63d1ac235a42c0eee8e90ff9","D2","batch4","","1409","tol_toboard","","","","tol_peg_1","1409","1409","0","[[3,0,0],[2,0],[1]]","1","[[2,0,0],[3,0],[1]]","23","0","","","","","","7","","","","","","","","",""
"","","","","","single-stim-button","347","834119","0.0-2.0-80.1-0.1","63d1ac235a42c0eee8e90ff9","D2","batch4","","1313","tol_tohand","","","","tol_peg_2","1313","1313","0","[[3,0,0],[0,0],[1]]","2","[[2,0,0],[3,0],[1]]","23","0","","","","","","7","","","","","","","","",""
"","","","","","single-stim-button","348","839671","0.0-2.0-80.1-1.1","63d1ac235a42c0eee8e90ff9","D2","batch4","","5552","tol_toboard","","","","tol_peg_2","5552","5552","0","[[3,0,0],[2,0],[1]]","2","[[2,0,0],[3,0],[1]]","23","0","","","","","","7","","","","","","","","",""
"","","","","","single-stim-button","349","840304","0.0-2.0-80.2-0.2","63d1ac235a42c0eee8e90ff9","D2","batch4","","631","tol_tohand","","","","tol_peg_3","631","631","0","[[3,0,0],[2,0],[0]]","3","[[2,0,0],[3,0],[1]]","23","0","","","","","","7","","","","","","","","",""
"","","","","","single-stim-button","350","841282","0.0-2.0-80.2-1.2","63d1ac235a42c0eee8e90ff9","D2","batch4","","976","tol_toboard","","","","tol_peg_1","976","976","0","[[3,1,0],[2,0],[0]]","3","[[2,0,0],[3,0],[1]]","23","0","","","","","","7","","","","","","","","",""
"","","","","","single-stim-button","351","843496","0.0-2.0-80.3-0.3","63d1ac235a42c0eee8e90ff9","D2","batch4","","2212","tol_tohand","","","","tol_peg_2","2212","2212","0","[[3,1,0],[0,0],[0]]","4","[[2,0,0],[3,0],[1]]","23","0","","","","","","7","","","","","","","","",""
"","","","","","single-stim-button","352","844382","0.0-2.0-80.3-1.3","63d1ac235a42c0eee8e90ff9","D2","batch4","","885","tol_toboard","","","","tol_peg_3","885","885","0","[[3,1,0],[0,0],[2]]","4","[[2,0,0],[3,0],[1]]","23","0","","","","","","7","","","","","","","","",""
"","","","","","single-stim-button","353","845448","0.0-2.0-80.4-0.4","63d1ac235a42c0eee8e90ff9","D2","batch4","","1065","tol_tohand","","","","tol_peg_1","1065","1065","0","[[3,0,0],[0,0],[2]]","5","[[2,0,0],[3,0],[1]]","23","0","","","","","","7","","","","","","","","",""
"","","","","","single-stim-button","354","846572","0.0-2.0-80.4-1.4","63d1ac235a42c0eee8e90ff9","D2","batch4","","1123","tol_toboard","","","","tol_peg_2","1123","1123","0","[[3,0,0],[1,0],[2]]","5","[[2,0,0],[3,0],[1]]","23","0","","","","","","7","","","","","","","","",""
