"success","timeout","failed_images","failed_audio","failed_video","trial_type","trial_index","time_elapsed","internal_node_id","subject_id","study_id","session_id","task","rt","stimulus","response","item","answer","correct","spm_correct","spm_rt","view_history","mouse_click","stim_duration","block_duration","timing_post_trial","current_position","tol_num_moves_made","tol_target","tol_problem_id","tol_rt","key_press","possible_responses","tol_correct","preplanning","tol_rt_per_trial","tol_min_moves","fiar_detect_rt","fiar_detect_correct","total_correct_fiar_detect","post_trial_gap","choices"
"true","false","[]","[]","[]","preload","0","4081","0.0-0.0","63d42c21dc6f4d60e34cc337","E1","batch5","","","","","","","","","","","","","","","","","","","","","","","","","","","","","",""
"true","","","","","fullscreen","1","16902","0.0-1.0-0.0","63d42c21dc6f4d60e34cc337","E1","batch5","","","","","","","","","","","","","","","","","","","","","","","","","","","","","",""
"true","","","","","fullscreen","2","21858","0.0-2.0-0.0","63d42c21dc6f4d60e34cc337","E1","batch5","spm_fullscreen","","","","","","","","","","","","","","","","","","","","","","","","","","","","",""
"","","","","","html-button-response","3","37859","0.0-2.0-1.0","63d42c21dc6f4d60e34cc337","E1","batch5","","15997.100000023842","<p class = block-text><b>Instructions</b> <br>This is a widely used intelligence test in research. <br>In this test, a figure with a missing piece will be presented.<br>Below the figure are alternative pieces to complete the figure, only one of which is correct.<br> Different figures might involve different principles for obtaining the missing piece<br>Your job is to select the most logical piece to complete the figure.</p>","0","","","","","","","","","","","","","","","","","","","","","","","","","",""
"","","","","","html-keyboard-response","4","38680","0.0-2.0-2.0-0.0","63d42c21dc6f4d60e34cc337","E1","batch5","spm_show_trial_num","null","<p class=block-text>Trial 1 out of 60</p>","null","","","","","","","","","","","","","","","","","","","","","","","","","",""
"","","","","","image-button-response","5","43171","0.0-2.0-2.0-1.0","63d42c21dc6f4d60e34cc337","E1","batch5","spm_respsonse","4481.5","img/question_1_1.jpeg","3","mat_01","4","1","1","4481.5","","","","","","","","","","","","","","","","","","","","",""
"","","","","","html-keyboard-response","6","44240","0.0-2.0-2.0-0.1","63d42c21dc6f4d60e34cc337","E1","batch5","spm_show_trial_num","null","<p class=block-text>Trial 2 out of 60</p>","null","","","","","","","","","","","","","","","","","","","","","","","","","",""
"","","","","","image-button-response","7","46874","0.0-2.0-2.0-1.1","63d42c21dc6f4d60e34cc337","E1","batch5","spm_respsonse","2630.8000000715256","img/question_1_2.jpeg","4","mat_02","5","1","1","2630.8000000715256","","","","","","","","","","","","","","","","","","","","",""
"","","","","","html-keyboard-response","8","47939","0.0-2.0-2.0-0.2","63d42c21dc6f4d60e34cc337","E1","batch5","spm_show_trial_num","null","<p class=block-text>Trial 3 out of 60</p>","null","","","","","","","","","","","","","","","","","","","","","","","","","",""
"","","","","","image-button-response","9","51137","0.0-2.0-2.0-1.2","63d42c21dc6f4d60e34cc337","E1","batch5","spm_respsonse","3194.3000000715256","img/question_1_3.jpeg","0","mat_03","1","1","1","3194.3000000715256","","","","","","","","","","","","","","","","","","","","",""
"","","","","","html-keyboard-response","10","52203","0.0-2.0-2.0-0.3","63d42c21dc6f4d60e34cc337","E1","batch5","spm_show_trial_num","null","<p class=block-text>Trial 4 out of 60</p>","null","","","","","","","","","","","","","","","","","","","","","","","","","",""
"","","","","","image-button-response","11","55255","0.0-2.0-2.0-1.3","63d42c21dc6f4d60e34cc337","E1","batch5","spm_respsonse","3048.2000000476837","img/question_1_4.jpeg","1","mat_04","2","1","1","3048.2000000476837","","","","","","","","","","","","","","","","","","","","",""
"","","","","","html-keyboard-response","12","56337","0.0-2.0-2.0-0.4","63d42c21dc6f4d60e34cc337","E1","batch5","spm_show_trial_num","null","<p class=block-text>Trial 5 out of 60</p>","null","","","","","","","","","","","","","","","","","","","","","","","","","",""
"","","","","","image-button-response","13","63198","0.0-2.0-2.0-1.4","63d42c21dc6f4d60e34cc337","E1","batch5","spm_respsonse","6857.300000071526","img/question_1_5.jpeg","5","mat_05","6","1","1","6857.300000071526","","","","","","","","","","","","","","","","","","","","",""
"","","","","","html-keyboard-response","14","64274","0.0-2.0-2.0-0.5","63d42c21dc6f4d60e34cc337","E1","batch5","spm_show_trial_num","null","<p class=block-text>Trial 6 out of 60</p>","null","","","","","","","","","","","","","","","","","","","","","","","","","",""
"","","","","","image-button-response","15","69008","0.0-2.0-2.0-1.5","63d42c21dc6f4d60e34cc337","E1","batch5","spm_respsonse","4730.699999928474","img/question_1_6.jpeg","2","mat_06","3","1","1","4730.699999928474","","","","","","","","","","","","","","","","","","","","",""
"","","","","","html-keyboard-response","16","70083","0.0-2.0-2.0-0.6","63d42c21dc6f4d60e34cc337","E1","batch5","spm_show_trial_num","null","<p class=block-text>Trial 7 out of 60</p>","null","","","","","","","","","","","","","","","","","","","","","","","","","",""
"","","","","","image-button-response","17","74383","0.0-2.0-2.0-1.6","63d42c21dc6f4d60e34cc337","E1","batch5","spm_respsonse","4295","img/question_1_7.jpeg","5","mat_07","6","1","1","4295","","","","","","","","","","","","","","","","","","","","",""
"","","","","","html-keyboard-response","18","75458","0.0-2.0-2.0-0.7","63d42c21dc6f4d60e34cc337","E1","batch5","spm_show_trial_num","null","<p class=block-text>Trial 8 out of 60</p>","null","","","","","","","","","","","","","","","","","","","","","","","","","",""
"","","","","","image-button-response","19","81190","0.0-2.0-2.0-1.7","63d42c21dc6f4d60e34cc337","E1","batch5","spm_respsonse","5728.600000023842","img/question_1_8.jpeg","1","mat_08","2","1","1","5728.600000023842","","","","","","","","","","","","","","","","","","","","",""
"","","","","","html-keyboard-response","20","82268","0.0-2.0-2.0-0.8","63d42c21dc6f4d60e34cc337","E1","batch5","spm_show_trial_num","null","<p class=block-text>Trial 9 out of 60</p>","null","","","","","","","","","","","","","","","","","","","","","","","","","",""
"","","","","","image-button-response","21","85028","0.0-2.0-2.0-1.8","63d42c21dc6f4d60e34cc337","E1","batch5","spm_respsonse","2755.399999976158","img/question_1_9.jpeg","0","mat_09","1","1","1","2755.399999976158","","","","","","","","","","","","","","","","","","","","",""
"","","","","","html-keyboard-response","22","86113","0.0-2.0-2.0-0.9","63d42c21dc6f4d60e34cc337","E1","batch5","spm_show_trial_num","null","<p class=block-text>Trial 10 out of 60</p>","null","","","","","","","","","","","","","","","","","","","","","","","","","",""
"","","","","","image-button-response","23","91241","0.0-2.0-2.0-1.9","63d42c21dc6f4d60e34cc337","E1","batch5","spm_respsonse","5123.5","img/question_1_10.jpeg","2","mat_10","3","1","1","5123.5","","","","","","","","","","","","","","","","","","","","",""
"","","","","","html-keyboard-response","24","92322","0.0-2.0-2.0-0.10","63d42c21dc6f4d60e34cc337","E1","batch5","spm_show_trial_num","null","<p class=block-text>Trial 11 out of 60</p>","null","","","","","","","","","","","","","","","","","","","","","","","","","",""
"","","","","","image-button-response","25","102167","0.0-2.0-2.0-1.10","63d42c21dc6f4d60e34cc337","E1","batch5","spm_respsonse","9841.599999904633","img/question_1_11.jpeg","3","mat_11","4","1","1","9841.599999904633","","","","","","","","","","","","","","","","","","","","",""
"","","","","","html-keyboard-response","26","103241","0.0-2.0-2.0-0.11","63d42c21dc6f4d60e34cc337","E1","batch5","spm_show_trial_num","null","<p class=block-text>Trial 12 out of 60</p>","null","","","","","","","","","","","","","","","","","","","","","","","","","",""
"","","","","","image-button-response","27","117810","0.0-2.0-2.0-1.11","63d42c21dc6f4d60e34cc337","E1","batch5","spm_respsonse","14564.199999928474","img/question_1_12.jpeg","2","mat_12","5","0","0","14564.199999928474","","","","","","","","","","","","","","","","","","","","",""
"","","","","","html-keyboard-response","28","118899","0.0-2.0-2.0-0.12","63d42c21dc6f4d60e34cc337","E1","batch5","spm_show_trial_num","null","<p class=block-text>Trial 13 out of 60</p>","null","","","","","","","","","","","","","","","","","","","","","","","","","",""
"","","","","","image-button-response","29","122683","0.0-2.0-2.0-1.12","63d42c21dc6f4d60e34cc337","E1","batch5","spm_respsonse","3779.2000000476837","img/question_2_1.jpeg","1","mat_13","2","1","1","3779.2000000476837","","","","","","","","","","","","","","","","","","","","",""
"","","","","","html-keyboard-response","30","123760","0.0-2.0-2.0-0.13","63d42c21dc6f4d60e34cc337","E1","batch5","spm_show_trial_num","null","<p class=block-text>Trial 14 out of 60</p>","null","","","","","","","","","","","","","","","","","","","","","","","","","",""
"","","","","","image-button-response","31","129237","0.0-2.0-2.0-1.13","63d42c21dc6f4d60e34cc337","E1","batch5","spm_respsonse","5472.900000095367","img/question_2_2.jpeg","5","mat_14","6","1","1","5472.900000095367","","","","","","","","","","","","","","","","","","","","",""
"","","","","","html-keyboard-response","32","130313","0.0-2.0-2.0-0.14","63d42c21dc6f4d60e34cc337","E1","batch5","spm_show_trial_num","null","<p class=block-text>Trial 15 out of 60</p>","null","","","","","","","","","","","","","","","","","","","","","","","","","",""
"","","","","","image-button-response","33","133975","0.0-2.0-2.0-1.14","63d42c21dc6f4d60e34cc337","E1","batch5","spm_respsonse","3657.2999999523163","img/question_2_3.jpeg","0","mat_15","1","1","1","3657.2999999523163","","","","","","","","","","","","","","","","","","","","",""
"","","","","","html-keyboard-response","34","135047","0.0-2.0-2.0-0.15","63d42c21dc6f4d60e34cc337","E1","batch5","spm_show_trial_num","null","<p class=block-text>Trial 16 out of 60</p>","null","","","","","","","","","","","","","","","","","","","","","","","","","",""
"","","","","","image-button-response","35","138604","0.0-2.0-2.0-1.15","63d42c21dc6f4d60e34cc337","E1","batch5","spm_respsonse","3553.0999999046326","img/question_2_4.jpeg","1","mat_16","2","1","1","3553.0999999046326","","","","","","","","","","","","","","","","","","","","",""
"","","","","","html-keyboard-response","36","139668","0.0-2.0-2.0-0.16","63d42c21dc6f4d60e34cc337","E1","batch5","spm_show_trial_num","null","<p class=block-text>Trial 17 out of 60</p>","null","","","","","","","","","","","","","","","","","","","","","","","","","",""
"","","","","","image-button-response","37","143782","0.0-2.0-2.0-1.16","63d42c21dc6f4d60e34cc337","E1","batch5","spm_respsonse","4109.800000071526","img/question_2_5.jpeg","0","mat_17","1","1","1","4109.800000071526","","","","","","","","","","","","","","","","","","","","",""
"","","","","","html-keyboard-response","38","144851","0.0-2.0-2.0-0.17","63d42c21dc6f4d60e34cc337","E1","batch5","spm_show_trial_num","null","<p class=block-text>Trial 18 out of 60</p>","null","","","","","","","","","","","","","","","","","","","","","","","","","",""
"","","","","","image-button-response","39","151822","0.0-2.0-2.0-1.17","63d42c21dc6f4d60e34cc337","E1","batch5","spm_respsonse","6967","img/question_2_6.jpeg","2","mat_18","3","1","1","6967","","","","","","","","","","","","","","","","","","","","",""
"","","","","","html-keyboard-response","40","152894","0.0-2.0-2.0-0.18","63d42c21dc6f4d60e34cc337","E1","batch5","spm_show_trial_num","null","<p class=block-text>Trial 19 out of 60</p>","null","","","","","","","","","","","","","","","","","","","","","","","","","",""
"","","","","","image-button-response","41","167964","0.0-2.0-2.0-1.18","63d42c21dc6f4d60e34cc337","E1","batch5","spm_respsonse","15065.400000095367","img/question_2_7.jpeg","4","mat_19","5","1","1","15065.400000095367","","","","","","","","","","","","","","","","","","","","",""
"","","","","","html-keyboard-response","42","169037","0.0-2.0-2.0-0.19","63d42c21dc6f4d60e34cc337","E1","batch5","spm_show_trial_num","null","<p class=block-text>Trial 20 out of 60</p>","null","","","","","","","","","","","","","","","","","","","","","","","","","",""
"","","","","","image-button-response","43","177832","0.0-2.0-2.0-1.19","63d42c21dc6f4d60e34cc337","E1","batch5","spm_respsonse","8790","img/question_2_8.jpeg","5","mat_20","6","1","1","8790","","","","","","","","","","","","","","","","","","","","",""
"","","","","","html-keyboard-response","44","178897","0.0-2.0-2.0-0.20","63d42c21dc6f4d60e34cc337","E1","batch5","spm_show_trial_num","null","<p class=block-text>Trial 21 out of 60</p>","null","","","","","","","","","","","","","","","","","","","","","","","","","",""
"","","","","","image-button-response","45","182912","0.0-2.0-2.0-1.20","63d42c21dc6f4d60e34cc337","E1","batch5","spm_respsonse","4010.100000023842","img/question_2_9.jpeg","0","mat_21","4","0","0","4010.100000023842","","","","","","","","","","","","","","","","","","","","",""
"","","","","","html-keyboard-response","46","184000","0.0-2.0-2.0-0.21","63d42c21dc6f4d60e34cc337","E1","batch5","spm_show_trial_num","null","<p class=block-text>Trial 22 out of 60</p>","null","","","","","","","","","","","","","","","","","","","","","","","","","",""
"","","","","","image-button-response","47","188339","0.0-2.0-2.0-1.21","63d42c21dc6f4d60e34cc337","E1","batch5","spm_respsonse","4329.5","img/question_2_10.jpeg","2","mat_22","3","1","1","4329.5","","","","","","","","","","","","","","","","","","","","",""
"","","","","","html-keyboard-response","48","189432","0.0-2.0-2.0-0.22","63d42c21dc6f4d60e34cc337","E1","batch5","spm_show_trial_num","null","<p class=block-text>Trial 23 out of 60</p>","null","","","","","","","","","","","","","","","","","","","","","","","","","",""
"","","","","","image-button-response","49","197945","0.0-2.0-2.0-1.22","63d42c21dc6f4d60e34cc337","E1","batch5","spm_respsonse","8509.299999952316","img/question_2_11.jpeg","3","mat_23","4","1","1","8509.299999952316","","","","","","","","","","","","","","","","","","","","",""
"","","","","","html-keyboard-response","50","199034","0.0-2.0-2.0-0.23","63d42c21dc6f4d60e34cc337","E1","batch5","spm_show_trial_num","null","<p class=block-text>Trial 24 out of 60</p>","null","","","","","","","","","","","","","","","","","","","","","","","","","",""
"","","","","","image-button-response","51","219326","0.0-2.0-2.0-1.23","63d42c21dc6f4d60e34cc337","E1","batch5","spm_respsonse","20287.5","img/question_2_12.jpeg","4","mat_24","5","1","1","20287.5","","","","","","","","","","","","","","","","","","","","",""
"","","","","","html-button-response","52","222067","0.0-2.0-3.0","63d42c21dc6f4d60e34cc337","E1","batch5","attention_check","2486","<p class = block-text>Attention check: Please choose 1<br></p>","0","","","true","","","","","","","","","","","","","","","","","","","","","","",""
"","","","","","html-keyboard-response","53","222881","0.0-2.0-4.0-0.0","63d42c21dc6f4d60e34cc337","E1","batch5","spm_show_trial_num","null","<p class=block-text>Trial 25 out of 60</p>","null","","","","","","","","","","","","","","","","","","","","","","","","","",""
"","","","","","image-button-response","54","231386","0.0-2.0-4.0-1.0","63d42c21dc6f4d60e34cc337","E1","batch5","spm_respsonse","8499.600000023842","img/question_3_1.jpeg","7","mat_25","8","1","1","8499.600000023842","","","","","","","","","","","","","","","","","","","","",""
"","","","","","html-keyboard-response","55","232455","0.0-2.0-4.0-0.1","63d42c21dc6f4d60e34cc337","E1","batch5","spm_show_trial_num","null","<p class=block-text>Trial 26 out of 60</p>","null","","","","","","","","","","","","","","","","","","","","","","","","","",""
"","","","","","image-button-response","56","236490","0.0-2.0-4.0-1.1","63d42c21dc6f4d60e34cc337","E1","batch5","spm_respsonse","4030.100000023842","img/question_3_2.jpeg","1","mat_26","2","1","1","4030.100000023842","","","","","","","","","","","","","","","","","","","","",""
"","","","","","html-keyboard-response","57","237558","0.0-2.0-4.0-0.2","63d42c21dc6f4d60e34cc337","E1","batch5","spm_show_trial_num","null","<p class=block-text>Trial 27 out of 60</p>","null","","","","","","","","","","","","","","","","","","","","","","","","","",""
"","","","","","image-button-response","58","247771","0.0-2.0-4.0-1.2","63d42c21dc6f4d60e34cc337","E1","batch5","spm_respsonse","10208.100000023842","img/question_3_3.jpeg","2","mat_27","3","1","1","10208.100000023842","","","","","","","","","","","","","","","","","","","","",""
"","","","","","html-keyboard-response","59","248846","0.0-2.0-4.0-0.3","63d42c21dc6f4d60e34cc337","E1","batch5","spm_show_trial_num","null","<p class=block-text>Trial 28 out of 60</p>","null","","","","","","","","","","","","","","","","","","","","","","","","","",""
"","","","","","image-button-response","60","254971","0.0-2.0-4.0-1.3","63d42c21dc6f4d60e34cc337","E1","batch5","spm_respsonse","6120.600000023842","img/question_3_4.jpeg","7","mat_28","8","1","1","6120.600000023842","","","","","","","","","","","","","","","","","","","","",""
"","","","","","html-keyboard-response","61","256057","0.0-2.0-4.0-0.4","63d42c21dc6f4d60e34cc337","E1","batch5","spm_show_trial_num","null","<p class=block-text>Trial 29 out of 60</p>","null","","","","","","","","","","","","","","","","","","","","","","","","","",""
"","","","","","image-button-response","62","262183","0.0-2.0-4.0-1.4","63d42c21dc6f4d60e34cc337","E1","batch5","spm_respsonse","6121","img/question_3_5.jpeg","6","mat_29","7","1","1","6121","","","","","","","","","","","","","","","","","","","","",""
"","","","","","html-keyboard-response","63","263255","0.0-2.0-4.0-0.5","63d42c21dc6f4d60e34cc337","E1","batch5","spm_show_trial_num","null","<p class=block-text>Trial 30 out of 60</p>","null","","","","","","","","","","","","","","","","","","","","","","","","","",""
"","","","","","image-button-response","64","268310","0.0-2.0-4.0-1.5","63d42c21dc6f4d60e34cc337","E1","batch5","spm_respsonse","5050","img/question_3_6.jpeg","7","mat_30","4","0","0","5050","","","","","","","","","","","","","","","","","","","","",""
"","","","","","html-keyboard-response","65","269393","0.0-2.0-4.0-0.6","63d42c21dc6f4d60e34cc337","E1","batch5","spm_show_trial_num","null","<p class=block-text>Trial 31 out of 60</p>","null","","","","","","","","","","","","","","","","","","","","","","","","","",""
"","","","","","image-button-response","66","278763","0.0-2.0-4.0-1.6","63d42c21dc6f4d60e34cc337","E1","batch5","spm_respsonse","9365.299999952316","img/question_3_7.jpeg","4","mat_31","5","1","1","9365.299999952316","","","","","","","","","","","","","","","","","","","","",""
"","","","","","html-keyboard-response","67","279847","0.0-2.0-4.0-0.7","63d42c21dc6f4d60e34cc337","E1","batch5","spm_show_trial_num","null","<p class=block-text>Trial 32 out of 60</p>","null","","","","","","","","","","","","","","","","","","","","","","","","","",""
"","","","","","image-button-response","68","292419","0.0-2.0-4.0-1.7","63d42c21dc6f4d60e34cc337","E1","batch5","spm_respsonse","12566.299999952316","img/question_3_8.jpeg","2","mat_32","1","0","0","12566.299999952316","","","","","","","","","","","","","","","","","","","","",""
"","","","","","html-keyboard-response","69","293495","0.0-2.0-4.0-0.8","63d42c21dc6f4d60e34cc337","E1","batch5","spm_show_trial_num","null","<p class=block-text>Trial 33 out of 60</p>","null","","","","","","","","","","","","","","","","","","","","","","","","","",""
"","","","","","image-button-response","70","302884","0.0-2.0-4.0-1.8","63d42c21dc6f4d60e34cc337","E1","batch5","spm_respsonse","9384.800000071526","img/question_3_9.jpeg","6","mat_33","7","1","1","9384.800000071526","","","","","","","","","","","","","","","","","","","","",""
"","","","","","html-keyboard-response","71","303962","0.0-2.0-4.0-0.9","63d42c21dc6f4d60e34cc337","E1","batch5","spm_show_trial_num","null","<p class=block-text>Trial 34 out of 60</p>","null","","","","","","","","","","","","","","","","","","","","","","","","","",""
"","","","","","image-button-response","72","309852","0.0-2.0-4.0-1.9","63d42c21dc6f4d60e34cc337","E1","batch5","spm_respsonse","5883.900000095367","img/question_3_10.jpeg","7","mat_34","6","0","0","5883.900000095367","","","","","","","","","","","","","","","","","","","","",""
"","","","","","html-keyboard-response","73","310934","0.0-2.0-4.0-0.10","63d42c21dc6f4d60e34cc337","E1","batch5","spm_show_trial_num","null","<p class=block-text>Trial 35 out of 60</p>","null","","","","","","","","","","","","","","","","","","","","","","","","","",""
"","","","","","image-button-response","74","323632","0.0-2.0-4.0-1.10","63d42c21dc6f4d60e34cc337","E1","batch5","spm_respsonse","12691.600000023842","img/question_3_11.jpeg","4","mat_35","1","0","0","12691.600000023842","","","","","","","","","","","","","","","","","","","","",""
"","","","","","html-keyboard-response","75","324711","0.0-2.0-4.0-0.11","63d42c21dc6f4d60e34cc337","E1","batch5","spm_show_trial_num","null","<p class=block-text>Trial 36 out of 60</p>","null","","","","","","","","","","","","","","","","","","","","","","","","","",""
"","","","","","image-button-response","76","349799","0.0-2.0-4.0-1.11","63d42c21dc6f4d60e34cc337","E1","batch5","spm_respsonse","25082.799999952316","img/question_3_12.jpeg","7","mat_36","2","0","0","25082.799999952316","","","","","","","","","","","","","","","","","","","","",""
"","","","","","html-keyboard-response","77","350874","0.0-2.0-4.0-0.12","63d42c21dc6f4d60e34cc337","E1","batch5","spm_show_trial_num","null","<p class=block-text>Trial 37 out of 60</p>","null","","","","","","","","","","","","","","","","","","","","","","","","","",""
"","","","","","image-button-response","78","354379","0.0-2.0-4.0-1.12","63d42c21dc6f4d60e34cc337","E1","batch5","spm_respsonse","3499.5","img/question_4_1.jpeg","2","mat_37","3","1","1","3499.5","","","","","","","","","","","","","","","","","","","","",""
"","","","","","html-keyboard-response","79","355454","0.0-2.0-4.0-0.13","63d42c21dc6f4d60e34cc337","E1","batch5","spm_show_trial_num","null","<p class=block-text>Trial 38 out of 60</p>","null","","","","","","","","","","","","","","","","","","","","","","","","","",""
"","","","","","image-button-response","80","363566","0.0-2.0-4.0-1.13","63d42c21dc6f4d60e34cc337","E1","batch5","spm_respsonse","8106.800000071526","img/question_4_2.jpeg","3","mat_38","4","1","1","8106.800000071526","","","","","","","","","","","","","","","","","","","","",""
"","","","","","html-keyboard-response","81","364636","0.0-2.0-4.0-0.14","63d42c21dc6f4d60e34cc337","E1","batch5","spm_show_trial_num","null","<p class=block-text>Trial 39 out of 60</p>","null","","","","","","","","","","","","","","","","","","","","","","","","","",""
"","","","","","image-button-response","82","371278","0.0-2.0-4.0-1.14","63d42c21dc6f4d60e34cc337","E1","batch5","spm_respsonse","6636.200000047684","img/question_4_3.jpeg","2","mat_39","3","1","1","6636.200000047684","","","","","","","","","","","","","","","","","","","","",""
"","","","","","html-keyboard-response","83","372370","0.0-2.0-4.0-0.15","63d42c21dc6f4d60e34cc337","E1","batch5","spm_show_trial_num","null","<p class=block-text>Trial 40 out of 60</p>","null","","","","","","","","","","","","","","","","","","","","","","","","","",""
"","","","","","image-button-response","84","382169","0.0-2.0-4.0-1.15","63d42c21dc6f4d60e34cc337","E1","batch5","spm_respsonse","9793.100000023842","img/question_4_4.jpeg","6","mat_40","7","1","1","9793.100000023842","","","","","","","","","","","","","","","","","","","","",""
"","","","","","html-keyboard-response","85","383244","0.0-2.0-4.0-0.16","63d42c21dc6f4d60e34cc337","E1","batch5","spm_show_trial_num","null","<p class=block-text>Trial 41 out of 60</p>","null","","","","","","","","","","","","","","","","","","","","","","","","","",""
"","","","","","image-button-response","86","390002","0.0-2.0-4.0-1.16","63d42c21dc6f4d60e34cc337","E1","batch5","spm_respsonse","6753.199999928474","img/question_4_5.jpeg","7","mat_41","8","1","1","6753.199999928474","","","","","","","","","","","","","","","","","","","","",""
"","","","","","html-keyboard-response","87","391079","0.0-2.0-4.0-0.17","63d42c21dc6f4d60e34cc337","E1","batch5","spm_show_trial_num","null","<p class=block-text>Trial 42 out of 60</p>","null","","","","","","","","","","","","","","","","","","","","","","","","","",""
"","","","","","image-button-response","88","398909","0.0-2.0-4.0-1.17","63d42c21dc6f4d60e34cc337","E1","batch5","spm_respsonse","7825.100000023842","img/question_4_6.jpeg","5","mat_42","6","1","1","7825.100000023842","","","","","","","","","","","","","","","","","","","","",""
"","","","","","html-keyboard-response","89","399977","0.0-2.0-4.0-0.18","63d42c21dc6f4d60e34cc337","E1","batch5","spm_show_trial_num","null","<p class=block-text>Trial 43 out of 60</p>","null","","","","","","","","","","","","","","","","","","","","","","","","","",""
"","","","","","image-button-response","90","412515","0.0-2.0-4.0-1.18","63d42c21dc6f4d60e34cc337","E1","batch5","spm_respsonse","12534.400000095367","img/question_4_7.jpeg","4","mat_43","5","1","1","12534.400000095367","","","","","","","","","","","","","","","","","","","","",""
"","","","","","html-keyboard-response","91","413603","0.0-2.0-4.0-0.19","63d42c21dc6f4d60e34cc337","E1","batch5","spm_show_trial_num","null","<p class=block-text>Trial 44 out of 60</p>","null","","","","","","","","","","","","","","","","","","","","","","","","","",""
"","","","","","image-button-response","92","424772","0.0-2.0-4.0-1.19","63d42c21dc6f4d60e34cc337","E1","batch5","spm_respsonse","11163.5","img/question_4_8.jpeg","3","mat_44","4","1","1","11163.5","","","","","","","","","","","","","","","","","","","","",""
"","","","","","html-keyboard-response","93","425850","0.0-2.0-4.0-0.20","63d42c21dc6f4d60e34cc337","E1","batch5","spm_show_trial_num","null","<p class=block-text>Trial 45 out of 60</p>","null","","","","","","","","","","","","","","","","","","","","","","","","","",""
"","","","","","image-button-response","94","441961","0.0-2.0-4.0-1.20","63d42c21dc6f4d60e34cc337","E1","batch5","spm_respsonse","16106.200000047684","img/question_4_9.jpeg","0","mat_45","1","1","1","16106.200000047684","","","","","","","","","","","","","","","","","","","","",""
"","","","","","html-keyboard-response","95","443046","0.0-2.0-4.0-0.21","63d42c21dc6f4d60e34cc337","E1","batch5","spm_show_trial_num","null","<p class=block-text>Trial 46 out of 60</p>","null","","","","","","","","","","","","","","","","","","","","","","","","","",""
"","","","","","image-button-response","96","454790","0.0-2.0-4.0-1.21","63d42c21dc6f4d60e34cc337","E1","batch5","spm_respsonse","11739.299999952316","img/question_4_10.jpeg","4","mat_46","2","0","0","11739.299999952316","","","","","","","","","","","","","","","","","","","","",""
"","","","","","html-keyboard-response","97","455857","0.0-2.0-4.0-0.22","63d42c21dc6f4d60e34cc337","E1","batch5","spm_show_trial_num","null","<p class=block-text>Trial 47 out of 60</p>","null","","","","","","","","","","","","","","","","","","","","","","","","","",""
"","","","","","image-button-response","98","477985","0.0-2.0-4.0-1.22","63d42c21dc6f4d60e34cc337","E1","batch5","spm_respsonse","22123.200000047684","img/question_4_11.jpeg","5","mat_47","5","0","0","22123.200000047684","","","","","","","","","","","","","","","","","","","","",""
"","","","","","html-keyboard-response","99","479063","0.0-2.0-4.0-0.23","63d42c21dc6f4d60e34cc337","E1","batch5","spm_show_trial_num","null","<p class=block-text>Trial 48 out of 60</p>","null","","","","","","","","","","","","","","","","","","","","","","","","","",""
"","","","","","image-button-response","100","494079","0.0-2.0-4.0-1.23","63d42c21dc6f4d60e34cc337","E1","batch5","spm_respsonse","15010.599999904633","img/question_4_12.jpeg","6","mat_48","6","0","0","15010.599999904633","","","","","","","","","","","","","","","","","","","","",""
"","","","","","html-keyboard-response","101","495151","0.0-2.0-4.0-0.24","63d42c21dc6f4d60e34cc337","E1","batch5","spm_show_trial_num","null","<p class=block-text>Trial 49 out of 60</p>","null","","","","","","","","","","","","","","","","","","","","","","","","","",""
"","","","","","image-button-response","102","502082","0.0-2.0-4.0-1.24","63d42c21dc6f4d60e34cc337","E1","batch5","spm_respsonse","6926.600000023842","img/question_5_1.jpeg","6","mat_49","7","1","1","6926.600000023842","","","","","","","","","","","","","","","","","","","","",""
"","","","","","html-keyboard-response","103","503156","0.0-2.0-4.0-0.25","63d42c21dc6f4d60e34cc337","E1","batch5","spm_show_trial_num","null","<p class=block-text>Trial 50 out of 60</p>","null","","","","","","","","","","","","","","","","","","","","","","","","","",""
"","","","","","image-button-response","104","517140","0.0-2.0-4.0-1.25","63d42c21dc6f4d60e34cc337","E1","batch5","spm_respsonse","13978.700000047684","img/question_5_2.jpeg","5","mat_50","6","1","1","13978.700000047684","","","","","","","","","","","","","","","","","","","","",""
"","","","","","html-keyboard-response","105","518226","0.0-2.0-4.0-0.26","63d42c21dc6f4d60e34cc337","E1","batch5","spm_show_trial_num","null","<p class=block-text>Trial 51 out of 60</p>","null","","","","","","","","","","","","","","","","","","","","","","","","","",""
"","","","","","image-button-response","106","523025","0.0-2.0-4.0-1.26","63d42c21dc6f4d60e34cc337","E1","batch5","spm_respsonse","4794.700000047684","img/question_5_3.jpeg","7","mat_51","8","1","1","4794.700000047684","","","","","","","","","","","","","","","","","","","","",""
"","","","","","html-keyboard-response","107","524106","0.0-2.0-4.0-0.27","63d42c21dc6f4d60e34cc337","E1","batch5","spm_show_trial_num","null","<p class=block-text>Trial 52 out of 60</p>","null","","","","","","","","","","","","","","","","","","","","","","","","","",""
"","","","","","image-button-response","108","532502","0.0-2.0-4.0-1.27","63d42c21dc6f4d60e34cc337","E1","batch5","spm_respsonse","8391.399999976158","img/question_5_4.jpeg","2","mat_52","2","0","0","8391.399999976158","","","","","","","","","","","","","","","","","","","","",""
"","","","","","html-keyboard-response","109","533575","0.0-2.0-4.0-0.28","63d42c21dc6f4d60e34cc337","E1","batch5","spm_show_trial_num","null","<p class=block-text>Trial 53 out of 60</p>","null","","","","","","","","","","","","","","","","","","","","","","","","","",""
"","","","","","image-button-response","110","567001","0.0-2.0-4.0-1.28","63d42c21dc6f4d60e34cc337","E1","batch5","spm_respsonse","33421.199999928474","img/question_5_5.jpeg","0","mat_53","1","1","1","33421.199999928474","","","","","","","","","","","","","","","","","","","","",""
"","","","","","html-keyboard-response","111","568083","0.0-2.0-4.0-0.29","63d42c21dc6f4d60e34cc337","E1","batch5","spm_show_trial_num","null","<p class=block-text>Trial 54 out of 60</p>","null","","","","","","","","","","","","","","","","","","","","","","","","","",""
"","","","","","image-button-response","112","579050","0.0-2.0-4.0-1.29","63d42c21dc6f4d60e34cc337","E1","batch5","spm_respsonse","10962.100000023842","img/question_5_6.jpeg","7","mat_54","5","0","0","10962.100000023842","","","","","","","","","","","","","","","","","","","","",""
"","","","","","html-keyboard-response","113","580133","0.0-2.0-4.0-0.30","63d42c21dc6f4d60e34cc337","E1","batch5","spm_show_trial_num","null","<p class=block-text>Trial 55 out of 60</p>","null","","","","","","","","","","","","","","","","","","","","","","","","","",""
"","","","","","image-button-response","114","608919","0.0-2.0-4.0-1.30","63d42c21dc6f4d60e34cc337","E1","batch5","spm_respsonse","28781","img/question_5_7.jpeg","3","mat_55","1","0","0","28781","","","","","","","","","","","","","","","","","","","","",""
"","","","","","html-keyboard-response","115","609993","0.0-2.0-4.0-0.31","63d42c21dc6f4d60e34cc337","E1","batch5","spm_show_trial_num","null","<p class=block-text>Trial 56 out of 60</p>","null","","","","","","","","","","","","","","","","","","","","","","","","","",""
"","","","","","image-button-response","116","621247","0.0-2.0-4.0-1.31","63d42c21dc6f4d60e34cc337","E1","batch5","spm_respsonse","11249.799999952316","img/question_5_8.jpeg","1","mat_56","6","0","0","11249.799999952316","","","","","","","","","","","","","","","","","","","","",""
"","","","","","html-keyboard-response","117","622315","0.0-2.0-4.0-0.32","63d42c21dc6f4d60e34cc337","E1","batch5","spm_show_trial_num","null","<p class=block-text>Trial 57 out of 60</p>","null","","","","","","","","","","","","","","","","","","","","","","","","","",""
"","","","","","image-button-response","118","661532","0.0-2.0-4.0-1.32","63d42c21dc6f4d60e34cc337","E1","batch5","spm_respsonse","39212.10000002384","img/question_5_9.jpeg","0","mat_57","3","0","0","39212.10000002384","","","","","","","","","","","","","","","","","","","","",""
"","","","","","html-keyboard-response","119","662605","0.0-2.0-4.0-0.33","63d42c21dc6f4d60e34cc337","E1","batch5","spm_show_trial_num","null","<p class=block-text>Trial 58 out of 60</p>","null","","","","","","","","","","","","","","","","","","","","","","","","","",""
"","","","","","image-button-response","120","680338","0.0-2.0-4.0-1.33","63d42c21dc6f4d60e34cc337","E1","batch5","spm_respsonse","17727.5","img/question_5_10.jpeg","6","mat_58","2","0","0","17727.5","","","","","","","","","","","","","","","","","","","","",""
"","","","","","html-keyboard-response","121","681418","0.0-2.0-4.0-0.34","63d42c21dc6f4d60e34cc337","E1","batch5","spm_show_trial_num","null","<p class=block-text>Trial 59 out of 60</p>","null","","","","","","","","","","","","","","","","","","","","","","","","","",""
"","","","","","image-button-response","122","688281","0.0-2.0-4.0-1.34","63d42c21dc6f4d60e34cc337","E1","batch5","spm_respsonse","6857.399999976158","img/question_5_11.jpeg","2","mat_59","4","0","0","6857.399999976158","","","","","","","","","","","","","","","","","","","","",""
"","","","","","html-keyboard-response","123","689354","0.0-2.0-4.0-0.35","63d42c21dc6f4d60e34cc337","E1","batch5","spm_show_trial_num","null","<p class=block-text>Trial 60 out of 60</p>","null","","","","","","","","","","","","","","","","","","","","","","","","","",""
"","","","","","image-button-response","124","700023","0.0-2.0-4.0-1.35","63d42c21dc6f4d60e34cc337","E1","batch5","spm_respsonse","10664.5","img/question_5_12.jpeg","0","mat_60","5","0","0","10664.5","","","","","","","","","","","","","","","","","","","","",""
"","","","","","html-button-response","125","713386","0.0-2.0-5.0","63d42c21dc6f4d60e34cc337","E1","batch5","spm_goodbye","13088.399999976158","<p class= block-text>This concludes the Standard Progressive Matrix game. Thank you for your responses!<br> When you are ready, click the button continue</p>","0","","","","","","","","","","","","","","","","","","","","","","","","","",""
"true","","","","","fullscreen","126","716472","0.0-3.0-0.0","63d42c21dc6f4d60e34cc337","E1","batch5","","","","","","","","","","","","","","","","","","","","","","","","","","","","","",""
"","","","","","instructions","127","742611","0.0-3.0-1.0-0.0-0.0","63d42c21dc6f4d60e34cc337","E1","batch5","tol-instructions","26136.600000023842","","","","","","","","[{""page_index"":0,""viewing_time"":8545.399999976158},{""page_index"":1,""viewing_time"":4579.399999976158},{""page_index"":2,""viewing_time"":1522.8000000715256},{""page_index"":3,""viewing_time"":3325.899999976158},{""page_index"":4,""viewing_time"":2254},{""page_index"":5,""viewing_time"":3776},{""page_index"":6,""viewing_time"":2132.2000000476837}]","","","","","","","","","","","","","","","","","","","",""
"","","","","","html-button-response","128","743853","0.0-3.0-1.0-1.0-0.0","63d42c21dc6f4d60e34cc337","E1","batch5","tol_enter_quiz","1239.2999999523163","<p class=block-text> Let's answer a few questions <br>","0","","","","","","","","","","","","","","","","","","","","","","","","","",""
"","","","","","html-button-response","129","747836","0.0-3.0-1.0-1.0-1.0","63d42c21dc6f4d60e34cc337","E1","batch5","tol_quiz","3981.3000000715256","<p class = block-text>True or False: You can only move the ball on top of a peg. <br></p>","0","","","true","","","","","","","","","","","","","","","","","","","","","","",""
"","","","","","html-button-response","130","749322","0.0-3.0-1.0-1.0-2.0","63d42c21dc6f4d60e34cc337","E1","batch5","tol_quiz_feedback","1482.1999999284744","<p class = block-text>Correct! You can only move the ball on top of a peg.</p>","0","","","","","","","","","","","","","","","","","","","","","","","","","",""
"","","","","","html-button-response","131","753453","0.0-3.0-1.0-1.0-3.0","63d42c21dc6f4d60e34cc337","E1","batch5","tol_quiz","4128.399999976158","<p class = block-text>True or False: You should try to match your board with the target board with fewest moves possible. <br></p>","0","","","true","","","","","","","","","","","","","","","","","","","","","","",""
"","","","","","html-button-response","132","754549","0.0-3.0-1.0-1.0-4.0","63d42c21dc6f4d60e34cc337","E1","batch5","tol_quiz_feedback","1093.0999999046326","<p class = block-text>Correct! </p>","0","","","","","","","","","","","","","","","","","","","","","","","","","",""
"","","","","","html-button-response","133","755913","0.0-3.0-2.0","63d42c21dc6f4d60e34cc337","E1","batch5","","1360.5","<p class=block-text> Now that you've understood the game, let's practice a few easier examples before we start!<br> <br>","0","","","","","","","","","","","","","","","","","","","","","","","","","",""
"","","","","","single-stim-button","134","758524","0.0-3.0-3.0-0.0","63d42c21dc6f4d60e34cc337","E1","batch5","tol_practice","2606","","","","","","","","","tol_peg_2","2606","2606","0","[[1,2,0],[0,0],[0]]","1","[[1,2,0],[0,0],[3]]","practice","2606","","","","","","","","","","",""
"","","","","","single-stim-button","135","760081","0.0-3.0-3.0-1.0","63d42c21dc6f4d60e34cc337","E1","batch5","tol_practice","1554","","","","","","","","","tol_peg_3","1554","1554","0","[[1,2,0],[0,0],[3]]","1","[[1,2,0],[0,0],[3]]","practice","1554","","","","","","","","","","",""
"","","","","","poldrack-single-stim","136","761103","0.0-3.0-4.0","63d42c21dc6f4d60e34cc337","E1","batch5","tol_feedback","-1","","","","","true","","","","","1000","1000","500","","","","","","-1","none","true","","0","","","","","",""
"","","","","","single-stim-button","137","765318","0.0-3.0-5.0-0.0","63d42c21dc6f4d60e34cc337","E1","batch5","tol_practice","4213","","","","","","","","","tol_peg_1","4213","4213","0","[[1,0,0],[3,0],[0]]","2","[[0,0,0],[3,1],[2]]","practice","4213","","","","","","","","","","",""
"","","","","","single-stim-button","138","766415","0.0-3.0-5.0-1.0","63d42c21dc6f4d60e34cc337","E1","batch5","tol_practice","1095","","","","","","","","","tol_peg_3","1095","1095","0","[[1,0,0],[3,0],[2]]","2","[[0,0,0],[3,1],[2]]","practice","1095","","","","","","","","","","",""
"","","","","","single-stim-button","139","767705","0.0-3.0-5.1-0.1","63d42c21dc6f4d60e34cc337","E1","batch5","tol_practice","1288","","","","","","","","","tol_peg_1","1288","1288","0","[[0,0,0],[3,0],[2]]","3","[[0,0,0],[3,1],[2]]","practice","1288","","","","","","","","","","",""
"","","","","","single-stim-button","140","768765","0.0-3.0-5.1-1.1","63d42c21dc6f4d60e34cc337","E1","batch5","tol_practice","1058","","","","","","","","","tol_peg_2","1058","1058","0","[[0,0,0],[3,1],[2]]","3","[[0,0,0],[3,1],[2]]","practice","1058","","","","","","","","","","",""
"","","","","","poldrack-single-stim","141","769785","0.0-3.0-6.0","63d42c21dc6f4d60e34cc337","E1","batch5","tol_feedback","-1","","","","","true","","","","","1000","1000","500","","","","","","-1","none","true","","0","","","","","",""
"","","","","","single-stim-button","142","772383","0.0-3.0-7.0-0.0","63d42c21dc6f4d60e34cc337","E1","batch5","tol_practice","2596","","","","","","","","","tol_peg_2","2596","2596","0","[[1,2,0],[0,0],[0]]","4","[[1,0,0],[2,0],[3]]","practice","2596","","","","","","","","","","",""
"","","","","","single-stim-button","143","773333","0.0-3.0-7.0-1.0","63d42c21dc6f4d60e34cc337","E1","batch5","tol_practice","948","","","","","","","","","tol_peg_3","948","948","0","[[1,2,0],[0,0],[3]]","4","[[1,0,0],[2,0],[3]]","practice","948","","","","","","","","","","",""
"","","","","","single-stim-button","144","774478","0.0-3.0-7.1-0.1","63d42c21dc6f4d60e34cc337","E1","batch5","tol_practice","1143","","","","","","","","","tol_peg_1","1143","1143","0","[[1,0,0],[0,0],[3]]","5","[[1,0,0],[2,0],[3]]","practice","1143","","","","","","","","","","",""
"","","","","","single-stim-button","145","775466","0.0-3.0-7.1-1.1","63d42c21dc6f4d60e34cc337","E1","batch5","tol_practice","986","","","","","","","","","tol_peg_2","986","986","0","[[1,0,0],[2,0],[3]]","5","[[1,0,0],[2,0],[3]]","practice","986","","","","","","","","","","",""
"","","","","","poldrack-single-stim","146","776490","0.0-3.0-8.0","63d42c21dc6f4d60e34cc337","E1","batch5","tol_feedback","-1","","","","","true","","","","","1000","1000","500","","","","","","-1","none","true","","0","","","","","",""
"","","","","","html-button-response","147","777912","0.0-3.0-9.0","63d42c21dc6f4d60e34cc337","E1","batch5","tol_instruction","1420.3999999761581","<div class = centerbox><p class = center-block-text>Great job! You are done with practice trials<br>You are about to start official trials.<br> <br> Problem <strong>1</strong> out of 25 problems</p></div>","0","","","","","","","","","","","","","","","","","","","","","","","","","",""
"","","","","","single-stim-button","148","781702","0.0-3.0-10.0-0.0","63d42c21dc6f4d60e34cc337","E1","batch5","tol_tohand","2779","","","","","","","","","tol_peg_2","2779","2779","0","[[1,2,0],[0,0],[0]]","1","[[1,3,0],[2,0],[0]]","0","0","","","","","","3","","","","",""
"","","","","","single-stim-button","149","782799","0.0-3.0-10.0-1.0","63d42c21dc6f4d60e34cc337","E1","batch5","tol_toboard","1095","","","","","","","","","tol_peg_3","1095","1095","0","[[1,2,0],[0,0],[3]]","1","[[1,3,0],[2,0],[0]]","0","0","","","","","","3","","","","",""
"","","","","","single-stim-button","150","783784","0.0-3.0-10.1-0.1","63d42c21dc6f4d60e34cc337","E1","batch5","tol_tohand","983","","","","","","","","","tol_peg_1","983","983","0","[[1,0,0],[0,0],[3]]","2","[[1,3,0],[2,0],[0]]","0","0","","","","","","3","","","","",""
"","","","","","single-stim-button","151","784845","0.0-3.0-10.1-1.1","63d42c21dc6f4d60e34cc337","E1","batch5","tol_toboard","1059","","","","","","","","","tol_peg_2","1059","1059","0","[[1,0,0],[2,0],[3]]","2","[[1,3,0],[2,0],[0]]","0","0","","","","","","3","","","","",""
"","","","","","single-stim-button","152","785697","0.0-3.0-10.2-0.2","63d42c21dc6f4d60e34cc337","E1","batch5","tol_tohand","850","","","","","","","","","tol_peg_3","850","850","0","[[1,0,0],[2,0],[0]]","3","[[1,3,0],[2,0],[0]]","0","0","","","","","","3","","","","",""
"","","","","","single-stim-button","153","787050","0.0-3.0-10.2-1.2","63d42c21dc6f4d60e34cc337","E1","batch5","tol_toboard","1351","","","","","","","","","tol_peg_1","1351","1351","0","[[1,3,0],[2,0],[0]]","3","[[1,3,0],[2,0],[0]]","0","0","","","","","","3","","","","",""
"","","","","","poldrack-single-stim","154","788058","0.0-3.0-11.0","63d42c21dc6f4d60e34cc337","E1","batch5","tol_feedback","-1","","","","","true","","","","","1000","1000","500","","","","","","-1","none","true","2779","4612","","","","","",""
"","","","","","html-button-response","155","789643","0.0-3.0-12.0","63d42c21dc6f4d60e34cc337","E1","batch5","tol_trial_num","1582.7999999523163","<div class = centerbox><p class = center-block-text>problem <strong>2</strong> out of 25 problems</p></div>","0","","","","","","","","","","","","","","","","","","","","","","","","","",""
"","","","","","single-stim-button","156","792531","0.0-3.0-13.0-0.0","63d42c21dc6f4d60e34cc337","E1","batch5","tol_tohand","2885","","","","","","","","","tol_peg_1","2885","2885","0","[[1,0,0],[3,0],[0]]","1","[[2,1,3],[0,0],[0]]","1","0","","","","","","5","","","","",""
"","","","","","single-stim-button","157","793762","0.0-3.0-13.0-1.0","63d42c21dc6f4d60e34cc337","E1","batch5","tol_toboard","1229","","","","","","","","","tol_peg_3","1229","1229","0","[[1,0,0],[3,0],[2]]","1","[[2,1,3],[0,0],[0]]","1","0","","","","","","5","","","","",""
"","","","","","single-stim-button","158","794565","0.0-3.0-13.1-0.1","63d42c21dc6f4d60e34cc337","E1","batch5","tol_tohand","801","","","","","","","","","tol_peg_2","801","801","0","[[1,0,0],[0,0],[2]]","2","[[2,1,3],[0,0],[0]]","1","0","","","","","","5","","","","",""
"","","","","","single-stim-button","159","797221","0.0-3.0-13.1-1.1","63d42c21dc6f4d60e34cc337","E1","batch5","tol_toboard","2654","","","","","","","","","tol_peg_2","2654","2654","0","[[1,0,0],[3,0],[2]]","2","[[2,1,3],[0,0],[0]]","1","0","","","","","","5","","","","",""
"","","","","","single-stim-button","160","799486","0.0-3.0-13.2-0.2","63d42c21dc6f4d60e34cc337","E1","batch5","tol_tohand","2263","","","","","","","","","tol_peg_1","2263","2263","0","[[0,0,0],[3,0],[2]]","3","[[2,1,3],[0,0],[0]]","1","0","","","","","","5","","","","",""
"","","","","","single-stim-button","161","800510","0.0-3.0-13.2-1.2","63d42c21dc6f4d60e34cc337","E1","batch5","tol_toboard","1022","","","","","","","","","tol_peg_2","1022","1022","0","[[0,0,0],[3,1],[2]]","3","[[2,1,3],[0,0],[0]]","1","0","","","","","","5","","","","",""
"","","","","","single-stim-button","162","801302","0.0-3.0-13.3-0.3","63d42c21dc6f4d60e34cc337","E1","batch5","tol_tohand","790","","","","","","","","","tol_peg_3","790","790","0","[[0,0,0],[3,1],[0]]","4","[[2,1,3],[0,0],[0]]","1","0","","","","","","5","","","","",""
"","","","","","single-stim-button","163","802423","0.0-3.0-13.3-1.3","63d42c21dc6f4d60e34cc337","E1","batch5","tol_toboard","1118","","","","","","","","","tol_peg_1","1118","1118","0","[[2,0,0],[3,1],[0]]","4","[[2,1,3],[0,0],[0]]","1","0","","","","","","5","","","","",""
"","","","","","single-stim-button","164","804006","0.0-3.0-13.4-0.4","63d42c21dc6f4d60e34cc337","E1","batch5","tol_tohand","1582","","","","","","","","","tol_peg_2","1582","1582","0","[[2,0,0],[3,0],[0]]","5","[[2,1,3],[0,0],[0]]","1","0","","","","","","5","","","","",""
"","","","","","single-stim-button","165","804822","0.0-3.0-13.4-1.4","63d42c21dc6f4d60e34cc337","E1","batch5","tol_toboard","815","","","","","","","","","tol_peg_1","815","815","0","[[2,1,0],[3,0],[0]]","5","[[2,1,3],[0,0],[0]]","1","0","","","","","","5","","","","",""
"","","","","","single-stim-button","166","805832","0.0-3.0-13.5-0.5","63d42c21dc6f4d60e34cc337","E1","batch5","tol_tohand","1008","","","","","","","","","tol_peg_2","1008","1008","0","[[2,1,0],[0,0],[0]]","6","[[2,1,3],[0,0],[0]]","1","0","","","","","","5","","","","",""
"","","","","","single-stim-button","167","806820","0.0-3.0-13.5-1.5","63d42c21dc6f4d60e34cc337","E1","batch5","tol_toboard","986","","","","","","","","","tol_peg_1","986","986","0","[[2,1,3],[0,0],[0]]","6","[[2,1,3],[0,0],[0]]","1","0","","","","","","5","","","","",""
"","","","","","poldrack-single-stim","168","807836","0.0-3.0-14.0","63d42c21dc6f4d60e34cc337","E1","batch5","tol_feedback","-1","","","","","true","","","","","1000","1000","500","","","","","","-1","none","true","2885","9329","","","","","",""
"","","","","","html-button-response","169","809257","0.0-3.0-15.0","63d42c21dc6f4d60e34cc337","E1","batch5","tol_trial_num","1419","<div class = centerbox><p class = center-block-text>problem <strong>3</strong> out of 25 problems</p></div>","0","","","","","","","","","","","","","","","","","","","","","","","","","",""
"","","","","","single-stim-button","170","812484","0.0-3.0-16.0-0.0","63d42c21dc6f4d60e34cc337","E1","batch5","tol_tohand","3225","","","","","","","","","tol_peg_1","3225","3225","0","[[2,0,0],[0,0],[1]]","1","[[1,2,0],[3,0],[0]]","2","0","","","","","","4","","","","",""
"","","","","","single-stim-button","171","813714","0.0-3.0-16.0-1.0","63d42c21dc6f4d60e34cc337","E1","batch5","tol_toboard","1228","","","","","","","","","tol_peg_2","1228","1228","0","[[2,0,0],[3,0],[1]]","1","[[1,2,0],[3,0],[0]]","2","0","","","","","","4","","","","",""
"","","","","","single-stim-button","172","814800","0.0-3.0-16.1-0.1","63d42c21dc6f4d60e34cc337","E1","batch5","tol_tohand","1084","","","","","","","","","tol_peg_1","1084","1084","0","[[0,0,0],[3,0],[1]]","2","[[1,2,0],[3,0],[0]]","2","0","","","","","","4","","","","",""
"","","","","","single-stim-button","173","815822","0.0-3.0-16.1-1.1","63d42c21dc6f4d60e34cc337","E1","batch5","tol_toboard","1020","","","","","","","","","tol_peg_2","1020","1020","0","[[0,0,0],[3,2],[1]]","2","[[1,2,0],[3,0],[0]]","2","0","","","","","","4","","","","",""
"","","","","","single-stim-button","174","816736","0.0-3.0-16.2-0.2","63d42c21dc6f4d60e34cc337","E1","batch5","tol_tohand","912","","","","","","","","","tol_peg_3","912","912","0","[[0,0,0],[3,2],[0]]","3","[[1,2,0],[3,0],[0]]","2","0","","","","","","4","","","","",""
"","","","","","single-stim-button","175","817978","0.0-3.0-16.2-1.2","63d42c21dc6f4d60e34cc337","E1","batch5","tol_toboard","1241","","","","","","","","","tol_peg_1","1241","1241","0","[[1,0,0],[3,2],[0]]","3","[[1,2,0],[3,0],[0]]","2","0","","","","","","4","","","","",""
"","","","","","single-stim-button","176","818733","0.0-3.0-16.3-0.3","63d42c21dc6f4d60e34cc337","E1","batch5","tol_tohand","753","","","","","","","","","tol_peg_2","753","753","0","[[1,0,0],[3,0],[0]]","4","[[1,2,0],[3,0],[0]]","2","0","","","","","","4","","","","",""
"","","","","","single-stim-button","177","819806","0.0-3.0-16.3-1.3","63d42c21dc6f4d60e34cc337","E1","batch5","tol_toboard","1071","","","","","","","","","tol_peg_1","1071","1071","0","[[1,2,0],[3,0],[0]]","4","[[1,2,0],[3,0],[0]]","2","0","","","","","","4","","","","",""
"","","","","","poldrack-single-stim","178","820820","0.0-3.0-17.0","63d42c21dc6f4d60e34cc337","E1","batch5","tol_feedback","-1","","","","","true","","","","","1000","1000","500","","","","","","-1","none","true","3225","5974","","","","","",""
"","","","","","html-button-response","179","822108","0.0-3.0-18.0","63d42c21dc6f4d60e34cc337","E1","batch5","tol_trial_num","1285.7000000476837","<div class = centerbox><p class = center-block-text>problem <strong>4</strong> out of 25 problems</p></div>","0","","","","","","","","","","","","","","","","","","","","","","","","","",""
"","","","","","single-stim-button","180","824167","0.0-3.0-19.0-0.0","63d42c21dc6f4d60e34cc337","E1","batch5","tol_tohand","2057","","","","","","","","","tol_peg_2","2057","2057","0","[[3,0,0],[2,0],[0]]","1","[[3,0,0],[1,0],[2]]","3","0","","","","","","3","","","","",""
"","","","","","single-stim-button","181","825262","0.0-3.0-19.0-1.0","63d42c21dc6f4d60e34cc337","E1","batch5","tol_toboard","1093","","","","","","","","","tol_peg_1","1093","1093","0","[[3,1,0],[2,0],[0]]","1","[[3,0,0],[1,0],[2]]","3","0","","","","","","3","","","","",""
"","","","","","single-stim-button","182","826165","0.0-3.0-19.1-0.1","63d42c21dc6f4d60e34cc337","E1","batch5","tol_tohand","901","","","","","","","","","tol_peg_2","901","901","0","[[3,1,0],[0,0],[0]]","2","[[3,0,0],[1,0],[2]]","3","0","","","","","","3","","","","",""
"","","","","","single-stim-button","183","827200","0.0-3.0-19.1-1.1","63d42c21dc6f4d60e34cc337","E1","batch5","tol_toboard","1033","","","","","","","","","tol_peg_3","1033","1033","0","[[3,1,0],[0,0],[2]]","2","[[3,0,0],[1,0],[2]]","3","0","","","","","","3","","","","",""
"","","","","","single-stim-button","184","828187","0.0-3.0-19.2-0.2","63d42c21dc6f4d60e34cc337","E1","batch5","tol_tohand","985","","","","","","","","","tol_peg_1","985","985","0","[[3,0,0],[0,0],[2]]","3","[[3,0,0],[1,0],[2]]","3","0","","","","","","3","","","","",""
"","","","","","single-stim-button","185","829162","0.0-3.0-19.2-1.2","63d42c21dc6f4d60e34cc337","E1","batch5","tol_toboard","973","","","","","","","","","tol_peg_2","973","973","0","[[3,0,0],[1,0],[2]]","3","[[3,0,0],[1,0],[2]]","3","0","","","","","","3","","","","",""
"","","","","","poldrack-single-stim","186","830185","0.0-3.0-20.0","63d42c21dc6f4d60e34cc337","E1","batch5","tol_feedback","-1","","","","","true","","","","","1000","1000","500","","","","","","-1","none","true","2057","3943","","","","","",""
"","","","","","html-button-response","187","831585","0.0-3.0-21.0","63d42c21dc6f4d60e34cc337","E1","batch5","tol_trial_num","1397.5","<div class = centerbox><p class = center-block-text>problem <strong>5</strong> out of 25 problems</p></div>","0","","","","","","","","","","","","","","","","","","","","","","","","","",""
"","","","","","single-stim-button","188","841990","0.0-3.0-22.0-0.0","63d42c21dc6f4d60e34cc337","E1","batch5","tol_tohand","10403","","","","","","","","","tol_peg_1","10403","10403","0","[[0,0,0],[2,0],[3]]","1","[[0,0,0],[1,2],[3]]","4","0","","","","","","7","","","","",""
"","","","","","single-stim-button","189","842842","0.0-3.0-22.0-1.0","63d42c21dc6f4d60e34cc337","E1","batch5","tol_toboard","850","","","","","","","","","tol_peg_2","850","850","0","[[0,0,0],[2,1],[3]]","1","[[0,0,0],[1,2],[3]]","4","0","","","","","","7","","","","",""
"","","","","","single-stim-button","190","843562","0.0-3.0-22.1-0.1","63d42c21dc6f4d60e34cc337","E1","batch5","tol_tohand","718","","","","","","","","","tol_peg_3","718","718","0","[[0,0,0],[2,1],[0]]","2","[[0,0,0],[1,2],[3]]","4","0","","","","","","7","","","","",""
"","","","","","single-stim-button","191","844573","0.0-3.0-22.1-1.1","63d42c21dc6f4d60e34cc337","E1","batch5","tol_toboard","1010","","","","","","","","","tol_peg_1","1010","1010","0","[[3,0,0],[2,1],[0]]","2","[[0,0,0],[1,2],[3]]","4","0","","","","","","7","","","","",""
"","","","","","single-stim-button","192","845327","0.0-3.0-22.2-0.2","63d42c21dc6f4d60e34cc337","E1","batch5","tol_tohand","752","","","","","","","","","tol_peg_2","752","752","0","[[3,0,0],[2,0],[0]]","3","[[0,0,0],[1,2],[3]]","4","0","","","","","","7","","","","",""
"","","","","","single-stim-button","193","846242","0.0-3.0-22.2-1.2","63d42c21dc6f4d60e34cc337","E1","batch5","tol_toboard","913","","","","","","","","","tol_peg_1","913","913","0","[[3,1,0],[2,0],[0]]","3","[[0,0,0],[1,2],[3]]","4","0","","","","","","7","","","","",""
"","","","","","single-stim-button","194","846899","0.0-3.0-22.3-0.3","63d42c21dc6f4d60e34cc337","E1","batch5","tol_tohand","656","","","","","","","","","tol_peg_2","656","656","0","[[3,1,0],[0,0],[0]]","4","[[0,0,0],[1,2],[3]]","4","0","","","","","","7","","","","",""
"","","","","","single-stim-button","195","847850","0.0-3.0-22.3-1.3","63d42c21dc6f4d60e34cc337","E1","batch5","tol_toboard","949","","","","","","","","","tol_peg_3","949","949","0","[[3,1,0],[0,0],[2]]","4","[[0,0,0],[1,2],[3]]","4","0","","","","","","7","","","","",""
"","","","","","single-stim-button","196","848581","0.0-3.0-22.4-0.4","63d42c21dc6f4d60e34cc337","E1","batch5","tol_tohand","729","","","","","","","","","tol_peg_1","729","729","0","[[3,0,0],[0,0],[2]]","5","[[0,0,0],[1,2],[3]]","4","0","","","","","","7","","","","",""
"","","","","","single-stim-button","197","849641","0.0-3.0-22.4-1.4","63d42c21dc6f4d60e34cc337","E1","batch5","tol_toboard","1058","","","","","","","","","tol_peg_2","1058","1058","0","[[3,0,0],[1,0],[2]]","5","[[0,0,0],[1,2],[3]]","4","0","","","","","","7","","","","",""
"","","","","","single-stim-button","198","850457","0.0-3.0-22.5-0.5","63d42c21dc6f4d60e34cc337","E1","batch5","tol_tohand","814","","","","","","","","","tol_peg_3","814","814","0","[[3,0,0],[1,0],[0]]","6","[[0,0,0],[1,2],[3]]","4","0","","","","","","7","","","","",""
"","","","","","single-stim-button","199","851273","0.0-3.0-22.5-1.5","63d42c21dc6f4d60e34cc337","E1","batch5","tol_toboard","814","","","","","","","","","tol_peg_2","814","814","0","[[3,0,0],[1,2],[0]]","6","[[0,0,0],[1,2],[3]]","4","0","","","","","","7","","","","",""
"","","","","","single-stim-button","200","851882","0.0-3.0-22.6-0.6","63d42c21dc6f4d60e34cc337","E1","batch5","tol_tohand","607","","","","","","","","","tol_peg_1","607","607","0","[[0,0,0],[1,2],[0]]","7","[[0,0,0],[1,2],[3]]","4","0","","","","","","7","","","","",""
"","","","","","single-stim-button","201","853235","0.0-3.0-22.6-1.6","63d42c21dc6f4d60e34cc337","E1","batch5","tol_toboard","1351","","","","","","","","","tol_peg_3","1351","1351","0","[[0,0,0],[1,2],[3]]","7","[[0,0,0],[1,2],[3]]","4","0","","","","","","7","","","","",""
"","","","","","poldrack-single-stim","202","854256","0.0-3.0-23.0","63d42c21dc6f4d60e34cc337","E1","batch5","tol_feedback","-1","","","","","true","","","","","1000","1000","500","","","","","","-1","none","true","10403","14679","","","","","",""
"","","","","","html-button-response","203","855867","0.0-3.0-24.0","63d42c21dc6f4d60e34cc337","E1","batch5","tol_trial_num","1608.2000000476837","<div class = centerbox><p class = center-block-text>problem <strong>6</strong> out of 25 problems</p></div>","0","","","","","","","","","","","","","","","","","","","","","","","","","",""
"","","","","","single-stim-button","204","858120","0.0-3.0-25.0-0.0","63d42c21dc6f4d60e34cc337","E1","batch5","tol_tohand","2251","","","","","","","","","tol_peg_2","2251","2251","0","[[0,0,0],[1,0],[3]]","1","[[1,0,0],[2,3],[0]]","5","0","","","","","","6","","","","",""
"","","","","","single-stim-button","205","860619","0.0-3.0-25.0-1.0","63d42c21dc6f4d60e34cc337","E1","batch5","tol_toboard","2496","","","","","","","","","tol_peg_1","2496","2496","0","[[2,0,0],[1,0],[3]]","1","[[1,0,0],[2,3],[0]]","5","0","","","","","","6","","","","",""
"","","","","","single-stim-button","206","861495","0.0-3.0-25.1-0.1","63d42c21dc6f4d60e34cc337","E1","batch5","tol_tohand","874","","","","","","","","","tol_peg_3","874","874","0","[[2,0,0],[1,0],[0]]","2","[[1,0,0],[2,3],[0]]","5","0","","","","","","6","","","","",""
"","","","","","single-stim-button","207","862554","0.0-3.0-25.1-1.1","63d42c21dc6f4d60e34cc337","E1","batch5","tol_toboard","1058","","","","","","","","","tol_peg_1","1058","1058","0","[[2,3,0],[1,0],[0]]","2","[[1,0,0],[2,3],[0]]","5","0","","","","","","6","","","","",""
"","","","","","single-stim-button","208","863200","0.0-3.0-25.2-0.2","63d42c21dc6f4d60e34cc337","E1","batch5","tol_tohand","645","","","","","","","","","tol_peg_2","645","645","0","[[2,3,0],[0,0],[0]]","3","[[1,0,0],[2,3],[0]]","5","0","","","","","","6","","","","",""
"","","","","","single-stim-button","209","864223","0.0-3.0-25.2-1.2","63d42c21dc6f4d60e34cc337","E1","batch5","tol_toboard","1021","","","","","","","","","tol_peg_3","1021","1021","0","[[2,3,0],[0,0],[1]]","3","[[1,0,0],[2,3],[0]]","5","0","","","","","","6","","","","",""
"","","","","","single-stim-button","210","865758","0.0-3.0-25.3-0.3","63d42c21dc6f4d60e34cc337","E1","batch5","tol_tohand","1533","","","","","","","","","tol_peg_1","1533","1533","0","[[2,0,0],[0,0],[1]]","4","[[1,0,0],[2,3],[0]]","5","0","","","","","","6","","","","",""
"","","","","","single-stim-button","211","866636","0.0-3.0-25.3-1.3","63d42c21dc6f4d60e34cc337","E1","batch5","tol_toboard","876","","","","","","","","","tol_peg_2","876","876","0","[[2,0,0],[3,0],[1]]","4","[[1,0,0],[2,3],[0]]","5","0","","","","","","6","","","","",""
"","","","","","single-stim-button","212","867464","0.0-3.0-25.4-0.4","63d42c21dc6f4d60e34cc337","E1","batch5","tol_tohand","826","","","","","","","","","tol_peg_1","826","826","0","[[0,0,0],[3,0],[1]]","5","[[1,0,0],[2,3],[0]]","5","0","","","","","","6","","","","",""
"","","","","","single-stim-button","213","868524","0.0-3.0-25.4-1.4","63d42c21dc6f4d60e34cc337","E1","batch5","tol_toboard","1058","","","","","","","","","tol_peg_2","1058","1058","0","[[0,0,0],[3,2],[1]]","5","[[1,0,0],[2,3],[0]]","5","0","","","","","","6","","","","",""
"","","","","","single-stim-button","214","869254","0.0-3.0-25.5-0.5","63d42c21dc6f4d60e34cc337","E1","batch5","tol_tohand","728","","","","","","","","","tol_peg_3","728","728","0","[[0,0,0],[3,2],[0]]","6","[[1,0,0],[2,3],[0]]","5","0","","","","","","6","","","","",""
"","","","","","single-stim-button","215","870352","0.0-3.0-25.5-1.5","63d42c21dc6f4d60e34cc337","E1","batch5","tol_toboard","1095","","","","","","","","","tol_peg_1","1095","1095","0","[[1,0,0],[3,2],[0]]","6","[[1,0,0],[2,3],[0]]","5","0","","","","","","6","","","","",""
"","","","","","single-stim-button","216","871118","0.0-3.0-25.6-0.6","63d42c21dc6f4d60e34cc337","E1","batch5","tol_tohand","766","","","","","","","","","tol_peg_2","766","766","0","[[1,0,0],[3,0],[0]]","7","[[1,0,0],[2,3],[0]]","5","0","","","","","","6","","","","",""
"","","","","","single-stim-button","217","872033","0.0-3.0-25.6-1.6","63d42c21dc6f4d60e34cc337","E1","batch5","tol_toboard","913","","","","","","","","","tol_peg_1","913","913","0","[[1,2,0],[3,0],[0]]","7","[[1,0,0],[2,3],[0]]","5","0","","","","","","6","","","","",""
"","","","","","single-stim-button","218","873312","0.0-3.0-25.7-0.7","63d42c21dc6f4d60e34cc337","E1","batch5","tol_tohand","1277","","","","","","","","","tol_peg_2","1277","1277","0","[[1,2,0],[0,0],[0]]","8","[[1,0,0],[2,3],[0]]","5","0","","","","","","6","","","","",""
"","","","","","single-stim-button","219","874371","0.0-3.0-25.7-1.7","63d42c21dc6f4d60e34cc337","E1","batch5","tol_toboard","1057","","","","","","","","","tol_peg_3","1057","1057","0","[[1,2,0],[0,0],[3]]","8","[[1,0,0],[2,3],[0]]","5","0","","","","","","6","","","","",""
"","","","","","single-stim-button","220","875261","0.0-3.0-25.8-0.8","63d42c21dc6f4d60e34cc337","E1","batch5","tol_tohand","888","","","","","","","","","tol_peg_1","888","888","0","[[1,0,0],[0,0],[3]]","9","[[1,0,0],[2,3],[0]]","5","0","","","","","","6","","","","",""
"","","","","","single-stim-button","221","876272","0.0-3.0-25.8-1.8","63d42c21dc6f4d60e34cc337","E1","batch5","tol_toboard","1010","","","","","","","","","tol_peg_2","1010","1010","0","[[1,0,0],[2,0],[3]]","9","[[1,0,0],[2,3],[0]]","5","0","","","","","","6","","","","",""
"","","","","","single-stim-button","222","876443","0.0-3.0-25.9-0.9","63d42c21dc6f4d60e34cc337","E1","batch5","tol_tohand","169","","","","","","","","","tol_peg_2","169","169","0","[[1,0,0],[0,0],[3]]","10","[[1,0,0],[2,3],[0]]","5","0","","","","","","6","","","","",""
"","","","","","single-stim-button","223","877722","0.0-3.0-25.9-1.9","63d42c21dc6f4d60e34cc337","E1","batch5","tol_toboard","1277","","","","","","","","","tol_peg_2","1277","1277","0","[[1,0,0],[2,0],[3]]","10","[[1,0,0],[2,3],[0]]","5","0","","","","","","6","","","","",""
"","","","","","single-stim-button","224","878477","0.0-3.0-25.10-0.10","63d42c21dc6f4d60e34cc337","E1","batch5","tol_tohand","753","","","","","","","","","tol_peg_3","753","753","0","[[1,0,0],[2,0],[0]]","11","[[1,0,0],[2,3],[0]]","5","0","","","","","","6","","","","",""
"","","","","","single-stim-button","225","879391","0.0-3.0-25.10-1.10","63d42c21dc6f4d60e34cc337","E1","batch5","tol_toboard","912","","","","","","","","","tol_peg_2","912","912","0","[[1,0,0],[2,3],[0]]","11","[[1,0,0],[2,3],[0]]","5","0","","","","","","6","","","","",""
"","","","","","poldrack-single-stim","226","880411","0.0-3.0-26.0","63d42c21dc6f4d60e34cc337","E1","batch5","tol_feedback","-1","","","","","true","","","","","1000","1000","500","","","","","","-1","none","true","2251","10710","","","","","",""
"","","","","","html-button-response","227","881779","0.0-3.0-27.0","63d42c21dc6f4d60e34cc337","E1","batch5","tol_trial_num","1365.8999999761581","<div class = centerbox><p class = center-block-text>problem <strong>7</strong> out of 25 problems</p></div>","0","","","","","","","","","","","","","","","","","","","","","","","","","",""
"","","","","","single-stim-button","228","884069","0.0-3.0-28.0-0.0","63d42c21dc6f4d60e34cc337","E1","batch5","tol_tohand","2288","","","","","","","","","tol_peg_1","2288","2288","0","[[2,0,0],[0,0],[3]]","1","[[1,2,0],[3,0],[0]]","6","0","","","","","","5","","","","",""
"","","","","","single-stim-button","229","887213","0.0-3.0-28.0-1.0","63d42c21dc6f4d60e34cc337","E1","batch5","tol_toboard","3142","","","","","","","","","tol_peg_2","3142","3142","0","[[2,0,0],[1,0],[3]]","1","[[1,2,0],[3,0],[0]]","6","0","","","","","","5","","","","",""
"","","","","","single-stim-button","230","887882","0.0-3.0-28.1-0.1","63d42c21dc6f4d60e34cc337","E1","batch5","tol_tohand","667","","","","","","","","","tol_peg_3","667","667","0","[[2,0,0],[1,0],[0]]","2","[[1,2,0],[3,0],[0]]","6","0","","","","","","5","","","","",""
"","","","","","single-stim-button","231","888553","0.0-3.0-28.1-1.1","63d42c21dc6f4d60e34cc337","E1","batch5","tol_toboard","669","","","","","","","","","tol_peg_2","669","669","0","[[2,0,0],[1,3],[0]]","2","[[1,2,0],[3,0],[0]]","6","0","","","","","","5","","","","",""
"","","","","","single-stim-button","232","889478","0.0-3.0-28.2-0.2","63d42c21dc6f4d60e34cc337","E1","batch5","tol_tohand","924","","","","","","","","","tol_peg_1","924","924","0","[[0,0,0],[1,3],[0]]","3","[[1,2,0],[3,0],[0]]","6","0","","","","","","5","","","","",""
"","","","","","single-stim-button","233","890757","0.0-3.0-28.2-1.2","63d42c21dc6f4d60e34cc337","E1","batch5","tol_toboard","1278","","","","","","","","","tol_peg_3","1278","1278","0","[[0,0,0],[1,3],[2]]","3","[[1,2,0],[3,0],[0]]","6","0","","","","","","5","","","","",""
"","","","","","single-stim-button","234","892414","0.0-3.0-28.3-0.3","63d42c21dc6f4d60e34cc337","E1","batch5","tol_tohand","1655","","","","","","","","","tol_peg_3","1655","1655","0","[[0,0,0],[1,3],[0]]","4","[[1,2,0],[3,0],[0]]","6","0","","","","","","5","","","","",""
"","","","","","single-stim-button","235","893450","0.0-3.0-28.3-1.3","63d42c21dc6f4d60e34cc337","E1","batch5","tol_toboard","1034","","","","","","","","","tol_peg_1","1034","1034","0","[[2,0,0],[1,3],[0]]","4","[[1,2,0],[3,0],[0]]","6","0","","","","","","5","","","","",""
"","","","","","single-stim-button","236","894254","0.0-3.0-28.4-0.4","63d42c21dc6f4d60e34cc337","E1","batch5","tol_tohand","802","","","","","","","","","tol_peg_2","802","802","0","[[2,0,0],[1,0],[0]]","5","[[1,2,0],[3,0],[0]]","6","0","","","","","","5","","","","",""
"","","","","","single-stim-button","237","895400","0.0-3.0-28.4-1.4","63d42c21dc6f4d60e34cc337","E1","batch5","tol_toboard","1144","","","","","","","","","tol_peg_1","1144","1144","0","[[2,3,0],[1,0],[0]]","5","[[1,2,0],[3,0],[0]]","6","0","","","","","","5","","","","",""
"","","","","","single-stim-button","238","896033","0.0-3.0-28.5-0.5","63d42c21dc6f4d60e34cc337","E1","batch5","tol_tohand","631","","","","","","","","","tol_peg_2","631","631","0","[[2,3,0],[0,0],[0]]","6","[[1,2,0],[3,0],[0]]","6","0","","","","","","5","","","","",""
"","","","","","single-stim-button","239","897007","0.0-3.0-28.5-1.5","63d42c21dc6f4d60e34cc337","E1","batch5","tol_toboard","972","","","","","","","","","tol_peg_3","972","972","0","[[2,3,0],[0,0],[1]]","6","[[1,2,0],[3,0],[0]]","6","0","","","","","","5","","","","",""
"","","","","","single-stim-button","240","897945","0.0-3.0-28.6-0.6","63d42c21dc6f4d60e34cc337","E1","batch5","tol_tohand","936","","","","","","","","","tol_peg_1","936","936","0","[[2,0,0],[0,0],[1]]","7","[[1,2,0],[3,0],[0]]","6","0","","","","","","5","","","","",""
"","","","","","single-stim-button","241","899066","0.0-3.0-28.6-1.6","63d42c21dc6f4d60e34cc337","E1","batch5","tol_toboard","1119","","","","","","","","","tol_peg_2","1119","1119","0","[[2,0,0],[3,0],[1]]","7","[[1,2,0],[3,0],[0]]","6","0","","","","","","5","","","","",""
"","","","","","single-stim-button","242","900345","0.0-3.0-28.7-0.7","63d42c21dc6f4d60e34cc337","E1","batch5","tol_tohand","1277","","","","","","","","","tol_peg_1","1277","1277","0","[[0,0,0],[3,0],[1]]","8","[[1,2,0],[3,0],[0]]","6","0","","","","","","5","","","","",""
"","","","","","single-stim-button","243","903696","0.0-3.0-28.7-1.7","63d42c21dc6f4d60e34cc337","E1","batch5","tol_toboard","3349","","","","","","","","","tol_peg_2","3349","3349","0","[[0,0,0],[3,2],[1]]","8","[[1,2,0],[3,0],[0]]","6","0","","","","","","5","","","","",""
"","","","","","single-stim-button","244","904572","0.0-3.0-28.8-0.8","63d42c21dc6f4d60e34cc337","E1","batch5","tol_tohand","874","","","","","","","","","tol_peg_3","874","874","0","[[0,0,0],[3,2],[0]]","9","[[1,2,0],[3,0],[0]]","6","0","","","","","","5","","","","",""
"","","","","","single-stim-button","245","905571","0.0-3.0-28.8-1.8","63d42c21dc6f4d60e34cc337","E1","batch5","tol_toboard","997","","","","","","","","","tol_peg_1","997","997","0","[[1,0,0],[3,2],[0]]","9","[[1,2,0],[3,0],[0]]","6","0","","","","","","5","","","","",""
"","","","","","single-stim-button","246","906594","0.0-3.0-28.9-0.9","63d42c21dc6f4d60e34cc337","E1","batch5","tol_tohand","1021","","","","","","","","","tol_peg_2","1021","1021","0","[[1,0,0],[3,0],[0]]","10","[[1,2,0],[3,0],[0]]","6","0","","","","","","5","","","","",""
"","","","","","single-stim-button","247","907776","0.0-3.0-28.9-1.9","63d42c21dc6f4d60e34cc337","E1","batch5","tol_toboard","1180","","","","","","","","","tol_peg_1","1180","1180","0","[[1,2,0],[3,0],[0]]","10","[[1,2,0],[3,0],[0]]","6","0","","","","","","5","","","","",""
"","","","","","poldrack-single-stim","248","908782","0.0-3.0-29.0","63d42c21dc6f4d60e34cc337","E1","batch5","tol_feedback","-1","","","","","true","","","","","1000","1000","500","","","","","","-1","none","true","2288","11075","","","","","",""
"","","","","","html-button-response","249","909944","0.0-3.0-30.0","63d42c21dc6f4d60e34cc337","E1","batch5","tol_trial_num","1160","<div class = centerbox><p class = center-block-text>problem <strong>8</strong> out of 25 problems</p></div>","0","","","","","","","","","","","","","","","","","","","","","","","","","",""
"","","","","","single-stim-button","250","912747","0.0-3.0-31.0-0.0","63d42c21dc6f4d60e34cc337","E1","batch5","tol_tohand","2800","","","","","","","","","tol_peg_2","2800","2800","0","[[0,0,0],[2,0],[1]]","1","[[1,2,0],[3,0],[0]]","7","0","","","","","","4","","","","",""
"","","","","","single-stim-button","251","914330","0.0-3.0-31.0-1.0","63d42c21dc6f4d60e34cc337","E1","batch5","tol_toboard","1582","","","","","","","","","tol_peg_2","1582","1582","0","[[0,0,0],[2,3],[1]]","1","[[1,2,0],[3,0],[0]]","7","0","","","","","","4","","","","",""
"","","","","","single-stim-button","252","915305","0.0-3.0-31.1-0.1","63d42c21dc6f4d60e34cc337","E1","batch5","tol_tohand","973","","","","","","","","","tol_peg_3","973","973","0","[[0,0,0],[2,3],[0]]","2","[[1,2,0],[3,0],[0]]","7","0","","","","","","4","","","","",""
"","","","","","single-stim-button","253","916536","0.0-3.0-31.1-1.1","63d42c21dc6f4d60e34cc337","E1","batch5","tol_toboard","1229","","","","","","","","","tol_peg_1","1229","1229","0","[[1,0,0],[2,3],[0]]","2","[[1,2,0],[3,0],[0]]","7","0","","","","","","4","","","","",""
"","","","","","single-stim-button","254","917462","0.0-3.0-31.2-0.2","63d42c21dc6f4d60e34cc337","E1","batch5","tol_tohand","924","","","","","","","","","tol_peg_2","924","924","0","[[1,0,0],[2,0],[0]]","3","[[1,2,0],[3,0],[0]]","7","0","","","","","","4","","","","",""
"","","","","","single-stim-button","255","918339","0.0-3.0-31.2-1.2","63d42c21dc6f4d60e34cc337","E1","batch5","tol_toboard","876","","","","","","","","","tol_peg_3","876","876","0","[[1,0,0],[2,0],[3]]","3","[[1,2,0],[3,0],[0]]","7","0","","","","","","4","","","","",""
"","","","","","single-stim-button","256","919155","0.0-3.0-31.3-0.3","63d42c21dc6f4d60e34cc337","E1","batch5","tol_tohand","814","","","","","","","","","tol_peg_2","814","814","0","[[1,0,0],[0,0],[3]]","4","[[1,2,0],[3,0],[0]]","7","0","","","","","","4","","","","",""
"","","","","","single-stim-button","257","920166","0.0-3.0-31.3-1.3","63d42c21dc6f4d60e34cc337","E1","batch5","tol_toboard","1009","","","","","","","","","tol_peg_1","1009","1009","0","[[1,2,0],[0,0],[3]]","4","[[1,2,0],[3,0],[0]]","7","0","","","","","","4","","","","",""
"","","","","","single-stim-button","258","921897","0.0-3.0-31.4-0.4","63d42c21dc6f4d60e34cc337","E1","batch5","tol_tohand","1729","","","","","","","","","tol_peg_3","1729","1729","0","[[1,2,0],[0,0],[0]]","5","[[1,2,0],[3,0],[0]]","7","0","","","","","","4","","","","",""
"","","","","","single-stim-button","259","922969","0.0-3.0-31.4-1.4","63d42c21dc6f4d60e34cc337","E1","batch5","tol_toboard","1070","","","","","","","","","tol_peg_2","1070","1070","0","[[1,2,0],[3,0],[0]]","5","[[1,2,0],[3,0],[0]]","7","0","","","","","","4","","","","",""
"","","","","","poldrack-single-stim","260","923981","0.0-3.0-32.0","63d42c21dc6f4d60e34cc337","E1","batch5","tol_feedback","-1","","","","","true","","","","","1000","1000","500","","","","","","-1","none","true","2800","7240","","","","","",""
"","","","","","html-button-response","261","925344","0.0-3.0-33.0","63d42c21dc6f4d60e34cc337","E1","batch5","tol_trial_num","1361.6000000238419","<div class = centerbox><p class = center-block-text>problem <strong>9</strong> out of 25 problems</p></div>","0","","","","","","","","","","","","","","","","","","","","","","","","","",""
"","","","","","single-stim-button","262","928610","0.0-3.0-34.0-0.0","63d42c21dc6f4d60e34cc337","E1","batch5","tol_tohand","3263","","","","","","","","","tol_peg_1","3263","3263","0","[[3,0,0],[0,0],[1]]","1","[[2,1,0],[3,0],[0]]","8","0","","","","","","6","","","","",""
"","","","","","single-stim-button","263","929914","0.0-3.0-34.0-1.0","63d42c21dc6f4d60e34cc337","E1","batch5","tol_toboard","1302","","","","","","","","","tol_peg_2","1302","1302","0","[[3,0,0],[2,0],[1]]","1","[[2,1,0],[3,0],[0]]","8","0","","","","","","6","","","","",""
"","","","","","single-stim-button","264","930596","0.0-3.0-34.1-0.1","63d42c21dc6f4d60e34cc337","E1","batch5","tol_tohand","680","","","","","","","","","tol_peg_1","680","680","0","[[0,0,0],[2,0],[1]]","2","[[2,1,0],[3,0],[0]]","8","0","","","","","","6","","","","",""
"","","","","","single-stim-button","265","935446","0.0-3.0-34.1-1.1","63d42c21dc6f4d60e34cc337","E1","batch5","tol_toboard","4848","","","","","","","","","tol_peg_1","4848","4848","0","[[3,0,0],[2,0],[1]]","2","[[2,1,0],[3,0],[0]]","8","0","","","","","","6","","","","",""
"","","","","","single-stim-button","266","936249","0.0-3.0-34.2-0.2","63d42c21dc6f4d60e34cc337","E1","batch5","tol_tohand","802","","","","","","","","","tol_peg_3","802","802","0","[[3,0,0],[2,0],[0]]","3","[[2,1,0],[3,0],[0]]","8","0","","","","","","6","","","","",""
"","","","","","single-stim-button","267","937005","0.0-3.0-34.2-1.2","63d42c21dc6f4d60e34cc337","E1","batch5","tol_toboard","754","","","","","","","","","tol_peg_2","754","754","0","[[3,0,0],[2,1],[0]]","3","[[2,1,0],[3,0],[0]]","8","0","","","","","","6","","","","",""
"","","","","","single-stim-button","268","938272","0.0-3.0-34.3-0.3","63d42c21dc6f4d60e34cc337","E1","batch5","tol_tohand","1265","","","","","","","","","tol_peg_1","1265","1265","0","[[0,0,0],[2,1],[0]]","4","[[2,1,0],[3,0],[0]]","8","0","","","","","","6","","","","",""
"","","","","","single-stim-button","269","939381","0.0-3.0-34.3-1.3","63d42c21dc6f4d60e34cc337","E1","batch5","tol_toboard","1107","","","","","","","","","tol_peg_3","1107","1107","0","[[0,0,0],[2,1],[3]]","4","[[2,1,0],[3,0],[0]]","8","0","","","","","","6","","","","",""
"","","","","","single-stim-button","270","940064","0.0-3.0-34.4-0.4","63d42c21dc6f4d60e34cc337","E1","batch5","tol_tohand","680","","","","","","","","","tol_peg_2","680","680","0","[[0,0,0],[2,0],[3]]","5","[[2,1,0],[3,0],[0]]","8","0","","","","","","6","","","","",""
"","","","","","single-stim-button","271","941940","0.0-3.0-34.4-1.4","63d42c21dc6f4d60e34cc337","E1","batch5","tol_toboard","1875","","","","","","","","","tol_peg_1","1875","1875","0","[[1,0,0],[2,0],[3]]","5","[[2,1,0],[3,0],[0]]","8","0","","","","","","6","","","","",""
"","","","","","single-stim-button","272","942719","0.0-3.0-34.5-0.5","63d42c21dc6f4d60e34cc337","E1","batch5","tol_tohand","777","","","","","","","","","tol_peg_2","777","777","0","[[1,0,0],[0,0],[3]]","6","[[2,1,0],[3,0],[0]]","8","0","","","","","","6","","","","",""
"","","","","","single-stim-button","273","943341","0.0-3.0-34.5-1.5","63d42c21dc6f4d60e34cc337","E1","batch5","tol_toboard","620","","","","","","","","","tol_peg_1","620","620","0","[[1,2,0],[0,0],[3]]","6","[[2,1,0],[3,0],[0]]","8","0","","","","","","6","","","","",""
"","","","","","single-stim-button","274","944061","0.0-3.0-34.6-0.6","63d42c21dc6f4d60e34cc337","E1","batch5","tol_tohand","718","","","","","","","","","tol_peg_3","718","718","0","[[1,2,0],[0,0],[0]]","7","[[2,1,0],[3,0],[0]]","8","0","","","","","","6","","","","",""
"","","","","","single-stim-button","275","944645","0.0-3.0-34.6-1.6","63d42c21dc6f4d60e34cc337","E1","batch5","tol_toboard","582","","","","","","","","","tol_peg_2","582","582","0","[[1,2,0],[3,0],[0]]","7","[[2,1,0],[3,0],[0]]","8","0","","","","","","6","","","","",""
"","","","","","single-stim-button","276","945595","0.0-3.0-34.7-0.7","63d42c21dc6f4d60e34cc337","E1","batch5","tol_tohand","948","","","","","","","","","tol_peg_1","948","948","0","[[1,0,0],[3,0],[0]]","8","[[2,1,0],[3,0],[0]]","8","0","","","","","","6","","","","",""
"","","","","","single-stim-button","277","946813","0.0-3.0-34.7-1.7","63d42c21dc6f4d60e34cc337","E1","batch5","tol_toboard","1216","","","","","","","","","tol_peg_3","1216","1216","0","[[1,0,0],[3,0],[2]]","8","[[2,1,0],[3,0],[0]]","8","0","","","","","","6","","","","",""
"","","","","","single-stim-button","278","947727","0.0-3.0-34.8-0.8","63d42c21dc6f4d60e34cc337","E1","batch5","tol_tohand","912","","","","","","","","","tol_peg_1","912","912","0","[[0,0,0],[3,0],[2]]","9","[[2,1,0],[3,0],[0]]","8","0","","","","","","6","","","","",""
"","","","","","single-stim-button","279","948665","0.0-3.0-34.8-1.8","63d42c21dc6f4d60e34cc337","E1","batch5","tol_toboard","936","","","","","","","","","tol_peg_2","936","936","0","[[0,0,0],[3,1],[2]]","9","[[2,1,0],[3,0],[0]]","8","0","","","","","","6","","","","",""
"","","","","","single-stim-button","280","949323","0.0-3.0-34.9-0.9","63d42c21dc6f4d60e34cc337","E1","batch5","tol_tohand","656","","","","","","","","","tol_peg_3","656","656","0","[[0,0,0],[3,1],[0]]","10","[[2,1,0],[3,0],[0]]","8","0","","","","","","6","","","","",""
"","","","","","single-stim-button","281","950335","0.0-3.0-34.9-1.9","63d42c21dc6f4d60e34cc337","E1","batch5","tol_toboard","1010","","","","","","","","","tol_peg_1","1010","1010","0","[[2,0,0],[3,1],[0]]","10","[[2,1,0],[3,0],[0]]","8","0","","","","","","6","","","","",""
"","","","","","single-stim-button","282","951419","0.0-3.0-34.10-0.10","63d42c21dc6f4d60e34cc337","E1","batch5","tol_tohand","1082","","","","","","","","","tol_peg_2","1082","1082","0","[[2,0,0],[3,0],[0]]","11","[[2,1,0],[3,0],[0]]","8","0","","","","","","6","","","","",""
"","","","","","single-stim-button","283","952930","0.0-3.0-34.10-1.10","63d42c21dc6f4d60e34cc337","E1","batch5","tol_toboard","1509","","","","","","","","","tol_peg_1","1509","1509","0","[[2,1,0],[3,0],[0]]","11","[[2,1,0],[3,0],[0]]","8","0","","","","","","6","","","","",""
"","","","","","poldrack-single-stim","284","953954","0.0-3.0-35.0","63d42c21dc6f4d60e34cc337","E1","batch5","tol_feedback","-1","","","","","true","","","","","1000","1000","500","","","","","","-1","none","true","3263","11783","","","","","",""
"","","","","","html-button-response","285","955171","0.0-3.0-36.0","63d42c21dc6f4d60e34cc337","E1","batch5","tol_trial_num","1215.5","<div class = centerbox><p class = center-block-text>problem <strong>10</strong> out of 25 problems</p></div>","0","","","","","","","","","","","","","","","","","","","","","","","","","",""
"","","","","","single-stim-button","286","959035","0.0-3.0-37.0-0.0","63d42c21dc6f4d60e34cc337","E1","batch5","tol_tohand","3862","","","","","","","","","tol_peg_2","3862","3862","0","[[3,0,0],[0,0],[2]]","1","[[3,0,0],[2,1],[0]]","9","0","","","","","","3","","","","",""
"","","","","","single-stim-button","287","960046","0.0-3.0-37.0-1.0","63d42c21dc6f4d60e34cc337","E1","batch5","tol_toboard","1009","","","","","","","","","tol_peg_1","1009","1009","0","[[3,1,0],[0,0],[2]]","1","[[3,0,0],[2,1],[0]]","9","0","","","","","","3","","","","",""
"","","","","","single-stim-button","288","960886","0.0-3.0-37.1-0.1","63d42c21dc6f4d60e34cc337","E1","batch5","tol_tohand","837","","","","","","","","","tol_peg_3","837","837","0","[[3,1,0],[0,0],[0]]","2","[[3,0,0],[2,1],[0]]","9","0","","","","","","3","","","","",""
"","","","","","single-stim-button","289","961678","0.0-3.0-37.1-1.1","63d42c21dc6f4d60e34cc337","E1","batch5","tol_toboard","789","","","","","","","","","tol_peg_2","789","789","0","[[3,1,0],[2,0],[0]]","2","[[3,0,0],[2,1],[0]]","9","0","","","","","","3","","","","",""
"","","","","","single-stim-button","290","962287","0.0-3.0-37.2-0.2","63d42c21dc6f4d60e34cc337","E1","batch5","tol_tohand","607","","","","","","","","","tol_peg_1","607","607","0","[[3,0,0],[2,0],[0]]","3","[[3,0,0],[2,1],[0]]","9","0","","","","","","3","","","","",""
"","","","","","single-stim-button","291","963140","0.0-3.0-37.2-1.2","63d42c21dc6f4d60e34cc337","E1","batch5","tol_toboard","851","","","","","","","","","tol_peg_2","851","851","0","[[3,0,0],[2,1],[0]]","3","[[3,0,0],[2,1],[0]]","9","0","","","","","","3","","","","",""
"","","","","","poldrack-single-stim","292","964163","0.0-3.0-38.0","63d42c21dc6f4d60e34cc337","E1","batch5","tol_feedback","-1","","","","","true","","","","","1000","1000","500","","","","","","-1","none","true","3862","5306","","","","","",""
"","","","","","html-button-response","293","965675","0.0-3.0-39.0","63d42c21dc6f4d60e34cc337","E1","batch5","tol_trial_num","1509.8000000715256","<div class = centerbox><p class = center-block-text>problem <strong>11</strong> out of 25 problems</p></div>","0","","","","","","","","","","","","","","","","","","","","","","","","","",""
"","","","","","single-stim-button","294","969306","0.0-3.0-40.0-0.0","63d42c21dc6f4d60e34cc337","E1","batch5","tol_tohand","3629","","","","","","","","","tol_peg_1","3629","3629","0","[[1,0,0],[3,0],[0]]","1","[[2,0,0],[1,3],[0]]","10","0","","","","","","6","","","","",""
"","","","","","single-stim-button","295","970890","0.0-3.0-40.0-1.0","63d42c21dc6f4d60e34cc337","E1","batch5","tol_toboard","1582","","","","","","","","","tol_peg_3","1582","1582","0","[[1,0,0],[3,0],[2]]","1","[[2,0,0],[1,3],[0]]","10","0","","","","","","6","","","","",""
"","","","","","single-stim-button","296","972279","0.0-3.0-40.1-0.1","63d42c21dc6f4d60e34cc337","E1","batch5","tol_tohand","1387","","","","","","","","","tol_peg_1","1387","1387","0","[[0,0,0],[3,0],[2]]","2","[[2,0,0],[1,3],[0]]","10","0","","","","","","6","","","","",""
"","","","","","single-stim-button","297","973376","0.0-3.0-40.1-1.1","63d42c21dc6f4d60e34cc337","E1","batch5","tol_toboard","1095","","","","","","","","","tol_peg_2","1095","1095","0","[[0,0,0],[3,1],[2]]","2","[[2,0,0],[1,3],[0]]","10","0","","","","","","6","","","","",""
"","","","","","single-stim-button","298","974204","0.0-3.0-40.2-0.2","63d42c21dc6f4d60e34cc337","E1","batch5","tol_tohand","827","","","","","","","","","tol_peg_3","827","827","0","[[0,0,0],[3,1],[0]]","3","[[2,0,0],[1,3],[0]]","10","0","","","","","","6","","","","",""
"","","","","","single-stim-button","299","975215","0.0-3.0-40.2-1.2","63d42c21dc6f4d60e34cc337","E1","batch5","tol_toboard","1009","","","","","","","","","tol_peg_1","1009","1009","0","[[2,0,0],[3,1],[0]]","3","[[2,0,0],[1,3],[0]]","10","0","","","","","","6","","","","",""
"","","","","","single-stim-button","300","975849","0.0-3.0-40.3-0.3","63d42c21dc6f4d60e34cc337","E1","batch5","tol_tohand","632","","","","","","","","","tol_peg_2","632","632","0","[[2,0,0],[3,0],[0]]","4","[[2,0,0],[1,3],[0]]","10","0","","","","","","6","","","","",""
"","","","","","single-stim-button","301","977128","0.0-3.0-40.3-1.3","63d42c21dc6f4d60e34cc337","E1","batch5","tol_toboard","1278","","","","","","","","","tol_peg_3","1278","1278","0","[[2,0,0],[3,0],[1]]","4","[[2,0,0],[1,3],[0]]","10","0","","","","","","6","","","","",""
"","","","","","single-stim-button","302","977822","0.0-3.0-40.4-0.4","63d42c21dc6f4d60e34cc337","E1","batch5","tol_tohand","692","","","","","","","","","tol_peg_2","692","692","0","[[2,0,0],[0,0],[1]]","5","[[2,0,0],[1,3],[0]]","10","0","","","","","","6","","","","",""
"","","","","","single-stim-button","303","979005","0.0-3.0-40.4-1.4","63d42c21dc6f4d60e34cc337","E1","batch5","tol_toboard","1181","","","","","","","","","tol_peg_1","1181","1181","0","[[2,3,0],[0,0],[1]]","5","[[2,0,0],[1,3],[0]]","10","0","","","","","","6","","","","",""
"","","","","","single-stim-button","304","980016","0.0-3.0-40.5-0.5","63d42c21dc6f4d60e34cc337","E1","batch5","tol_tohand","1009","","","","","","","","","tol_peg_3","1009","1009","0","[[2,3,0],[0,0],[0]]","6","[[2,0,0],[1,3],[0]]","10","0","","","","","","6","","","","",""
"","","","","","single-stim-button","305","980978","0.0-3.0-40.5-1.5","63d42c21dc6f4d60e34cc337","E1","batch5","tol_toboard","960","","","","","","","","","tol_peg_2","960","960","0","[[2,3,0],[1,0],[0]]","6","[[2,0,0],[1,3],[0]]","10","0","","","","","","6","","","","",""
"","","","","","single-stim-button","306","981612","0.0-3.0-40.6-0.6","63d42c21dc6f4d60e34cc337","E1","batch5","tol_tohand","632","","","","","","","","","tol_peg_1","632","632","0","[[2,0,0],[1,0],[0]]","7","[[2,0,0],[1,3],[0]]","10","0","","","","","","6","","","","",""
"","","","","","single-stim-button","307","982514","0.0-3.0-40.6-1.6","63d42c21dc6f4d60e34cc337","E1","batch5","tol_toboard","900","","","","","","","","","tol_peg_2","900","900","0","[[2,0,0],[1,3],[0]]","7","[[2,0,0],[1,3],[0]]","10","0","","","","","","6","","","","",""
"","","","","","poldrack-single-stim","308","983530","0.0-3.0-41.0","63d42c21dc6f4d60e34cc337","E1","batch5","tol_feedback","-1","","","","","true","","","","","1000","1000","500","","","","","","-1","none","true","3629","8808","","","","","",""
"","","","","","html-button-response","309","984975","0.0-3.0-42.0","63d42c21dc6f4d60e34cc337","E1","batch5","tol_trial_num","1443.5","<div class = centerbox><p class = center-block-text>problem <strong>12</strong> out of 25 problems</p></div>","0","","","","","","","","","","","","","","","","","","","","","","","","","",""
"","","","","","single-stim-button","310","987279","0.0-3.0-43.0-0.0","63d42c21dc6f4d60e34cc337","E1","batch5","tol_tohand","2301","","","","","","","","","tol_peg_1","2301","2301","0","[[1,0,0],[3,0],[0]]","1","[[2,3,0],[0,0],[1]]","11","0","","","","","","4","","","","",""
"","","","","","single-stim-button","311","988716","0.0-3.0-43.0-1.0","63d42c21dc6f4d60e34cc337","E1","batch5","tol_toboard","1435","","","","","","","","","tol_peg_2","1435","1435","0","[[1,0,0],[3,2],[0]]","1","[[2,3,0],[0,0],[1]]","11","0","","","","","","4","","","","",""
"","","","","","single-stim-button","312","989386","0.0-3.0-43.1-0.1","63d42c21dc6f4d60e34cc337","E1","batch5","tol_tohand","668","","","","","","","","","tol_peg_1","668","668","0","[[0,0,0],[3,2],[0]]","2","[[2,3,0],[0,0],[1]]","11","0","","","","","","4","","","","",""
"","","","","","single-stim-button","313","990740","0.0-3.0-43.1-1.1","63d42c21dc6f4d60e34cc337","E1","batch5","tol_toboard","1351","","","","","","","","","tol_peg_3","1351","1351","0","[[0,0,0],[3,2],[1]]","2","[[2,3,0],[0,0],[1]]","11","0","","","","","","4","","","","",""
"","","","","","single-stim-button","314","991908","0.0-3.0-43.2-0.2","63d42c21dc6f4d60e34cc337","E1","batch5","tol_tohand","1166","","","","","","","","","tol_peg_2","1166","1166","0","[[0,0,0],[3,0],[1]]","3","[[2,3,0],[0,0],[1]]","11","0","","","","","","4","","","","",""
"","","","","","single-stim-button","315","995869","0.0-3.0-43.2-1.2","63d42c21dc6f4d60e34cc337","E1","batch5","tol_toboard","3959","","","","","","","","","tol_peg_1","3959","3959","0","[[2,0,0],[3,0],[1]]","3","[[2,3,0],[0,0],[1]]","11","0","","","","","","4","","","","",""
"","","","","","single-stim-button","316","996758","0.0-3.0-43.3-0.3","63d42c21dc6f4d60e34cc337","E1","batch5","tol_tohand","887","","","","","","","","","tol_peg_3","887","887","0","[[2,0,0],[3,0],[0]]","4","[[2,3,0],[0,0],[1]]","11","0","","","","","","4","","","","",""
"","","","","","single-stim-button","317","997733","0.0-3.0-43.3-1.3","63d42c21dc6f4d60e34cc337","E1","batch5","tol_toboard","973","","","","","","","","","tol_peg_2","973","973","0","[[2,0,0],[3,1],[0]]","4","[[2,3,0],[0,0],[1]]","11","0","","","","","","4","","","","",""
"","","","","","single-stim-button","318","998476","0.0-3.0-43.4-0.4","63d42c21dc6f4d60e34cc337","E1","batch5","tol_tohand","741","","","","","","","","","tol_peg_1","741","741","0","[[0,0,0],[3,1],[0]]","5","[[2,3,0],[0,0],[1]]","11","0","","","","","","4","","","","",""
"","","","","","single-stim-button","319","999415","0.0-3.0-43.4-1.4","63d42c21dc6f4d60e34cc337","E1","batch5","tol_toboard","937","","","","","","","","","tol_peg_3","937","937","0","[[0,0,0],[3,1],[2]]","5","[[2,3,0],[0,0],[1]]","11","0","","","","","","4","","","","",""
"","","","","","single-stim-button","320","1000157","0.0-3.0-43.5-0.5","63d42c21dc6f4d60e34cc337","E1","batch5","tol_tohand","740","","","","","","","","","tol_peg_2","740","740","0","[[0,0,0],[3,0],[2]]","6","[[2,3,0],[0,0],[1]]","11","0","","","","","","4","","","","",""
"","","","","","single-stim-button","321","1004277","0.0-3.0-43.5-1.5","63d42c21dc6f4d60e34cc337","E1","batch5","tol_toboard","4118","","","","","","","","","tol_peg_1","4118","4118","0","[[1,0,0],[3,0],[2]]","6","[[2,3,0],[0,0],[1]]","11","0","","","","","","4","","","","",""
"","","","","","single-stim-button","322","1005386","0.0-3.0-43.6-0.6","63d42c21dc6f4d60e34cc337","E1","batch5","tol_tohand","1107","","","","","","","","","tol_peg_2","1107","1107","0","[[1,0,0],[0,0],[2]]","7","[[2,3,0],[0,0],[1]]","11","0","","","","","","4","","","","",""
"","","","","","single-stim-button","323","1006836","0.0-3.0-43.6-1.6","63d42c21dc6f4d60e34cc337","E1","batch5","tol_toboard","1448","","","","","","","","","tol_peg_1","1448","1448","0","[[1,3,0],[0,0],[2]]","7","[[2,3,0],[0,0],[1]]","11","0","","","","","","4","","","","",""
"","","","","","single-stim-button","324","1007749","0.0-3.0-43.7-0.7","63d42c21dc6f4d60e34cc337","E1","batch5","tol_tohand","911","","","","","","","","","tol_peg_3","911","911","0","[[1,3,0],[0,0],[0]]","8","[[2,3,0],[0,0],[1]]","11","0","","","","","","4","","","","",""
"","","","","","single-stim-button","325","1008894","0.0-3.0-43.7-1.7","63d42c21dc6f4d60e34cc337","E1","batch5","tol_toboard","1144","","","","","","","","","tol_peg_2","1144","1144","0","[[1,3,0],[2,0],[0]]","8","[[2,3,0],[0,0],[1]]","11","0","","","","","","4","","","","",""
"","","","","","single-stim-button","326","1009491","0.0-3.0-43.8-0.8","63d42c21dc6f4d60e34cc337","E1","batch5","tol_tohand","595","","","","","","","","","tol_peg_1","595","595","0","[[1,0,0],[2,0],[0]]","9","[[2,3,0],[0,0],[1]]","11","0","","","","","","4","","","","",""
"","","","","","single-stim-button","327","1010625","0.0-3.0-43.8-1.8","63d42c21dc6f4d60e34cc337","E1","batch5","tol_toboard","1132","","","","","","","","","tol_peg_3","1132","1132","0","[[1,0,0],[2,0],[3]]","9","[[2,3,0],[0,0],[1]]","11","0","","","","","","4","","","","",""
"","","","","","single-stim-button","328","1013317","0.0-3.0-43.9-0.9","63d42c21dc6f4d60e34cc337","E1","batch5","tol_tohand","2690","","","","","","","","","tol_peg_3","2690","2690","0","[[1,0,0],[2,0],[0]]","10","[[2,3,0],[0,0],[1]]","11","0","","","","","","4","","","","",""
"","","","","","single-stim-button","329","1018154","0.0-3.0-43.9-1.9","63d42c21dc6f4d60e34cc337","E1","batch5","tol_toboard","4835","","","","","","","","","tol_peg_3","4835","4835","0","[[1,0,0],[2,0],[3]]","10","[[2,3,0],[0,0],[1]]","11","0","","","","","","4","","","","",""
"","","","","","single-stim-button","330","1018885","0.0-3.0-43.10-0.10","63d42c21dc6f4d60e34cc337","E1","batch5","tol_tohand","729","","","","","","","","","tol_peg_1","729","729","0","[[0,0,0],[2,0],[3]]","11","[[2,3,0],[0,0],[1]]","11","0","","","","","","4","","","","",""
"","","","","","single-stim-button","331","1019714","0.0-3.0-43.10-1.10","63d42c21dc6f4d60e34cc337","E1","batch5","tol_toboard","827","","","","","","","","","tol_peg_2","827","827","0","[[0,0,0],[2,1],[3]]","11","[[2,3,0],[0,0],[1]]","11","0","","","","","","4","","","","",""
"","","","","","single-stim-button","332","1020384","0.0-3.0-43.11-0.11","63d42c21dc6f4d60e34cc337","E1","batch5","tol_tohand","667","","","","","","","","","tol_peg_3","667","667","0","[[0,0,0],[2,1],[0]]","12","[[2,3,0],[0,0],[1]]","11","0","","","","","","4","","","","",""
"","","","","","single-stim-button","333","1021457","0.0-3.0-43.11-1.11","63d42c21dc6f4d60e34cc337","E1","batch5","tol_toboard","1071","","","","","","","","","tol_peg_1","1071","1071","0","[[3,0,0],[2,1],[0]]","12","[[2,3,0],[0,0],[1]]","11","0","","","","","","4","","","","",""
"","","","","","single-stim-button","334","1022090","0.0-3.0-43.12-0.12","63d42c21dc6f4d60e34cc337","E1","batch5","tol_tohand","631","","","","","","","","","tol_peg_2","631","631","0","[[3,0,0],[2,0],[0]]","13","[[2,3,0],[0,0],[1]]","11","0","","","","","","4","","","","",""
"","","","","","single-stim-button","335","1023320","0.0-3.0-43.12-1.12","63d42c21dc6f4d60e34cc337","E1","batch5","tol_toboard","1229","","","","","","","","","tol_peg_1","1229","1229","0","[[3,1,0],[2,0],[0]]","13","[[2,3,0],[0,0],[1]]","11","0","","","","","","4","","","","",""
"","","","","","single-stim-button","336","1023978","0.0-3.0-43.13-0.13","63d42c21dc6f4d60e34cc337","E1","batch5","tol_tohand","656","","","","","","","","","tol_peg_2","656","656","0","[[3,1,0],[0,0],[0]]","14","[[2,3,0],[0,0],[1]]","11","0","","","","","","4","","","","",""
"","","","","","single-stim-button","337","1025159","0.0-3.0-43.13-1.13","63d42c21dc6f4d60e34cc337","E1","batch5","tol_toboard","1180","","","","","","","","","tol_peg_3","1180","1180","0","[[3,1,0],[0,0],[2]]","14","[[2,3,0],[0,0],[1]]","11","0","","","","","","4","","","","",""
"","","","","","single-stim-button","338","1025939","0.0-3.0-43.14-0.14","63d42c21dc6f4d60e34cc337","E1","batch5","tol_tohand","779","","","","","","","","","tol_peg_1","779","779","0","[[3,0,0],[0,0],[2]]","15","[[2,3,0],[0,0],[1]]","11","0","","","","","","4","","","","",""
"","","","","","single-stim-button","339","1026913","0.0-3.0-43.14-1.14","63d42c21dc6f4d60e34cc337","E1","batch5","tol_toboard","973","","","","","","","","","tol_peg_2","973","973","0","[[3,0,0],[1,0],[2]]","15","[[2,3,0],[0,0],[1]]","11","0","","","","","","4","","","","",""
"","","","","","single-stim-button","340","1027535","0.0-3.0-43.15-0.15","63d42c21dc6f4d60e34cc337","E1","batch5","tol_tohand","620","","","","","","","","","tol_peg_1","620","620","0","[[0,0,0],[1,0],[2]]","16","[[2,3,0],[0,0],[1]]","11","0","","","","","","4","","","","",""
"","","","","","single-stim-button","341","1028364","0.0-3.0-43.15-1.15","63d42c21dc6f4d60e34cc337","E1","batch5","tol_toboard","827","","","","","","","","","tol_peg_2","827","827","0","[[0,0,0],[1,3],[2]]","16","[[2,3,0],[0,0],[1]]","11","0","","","","","","4","","","","",""
"","","","","","single-stim-button","342","1029009","0.0-3.0-43.16-0.16","63d42c21dc6f4d60e34cc337","E1","batch5","tol_tohand","643","","","","","","","","","tol_peg_3","643","643","0","[[0,0,0],[1,3],[0]]","17","[[2,3,0],[0,0],[1]]","11","0","","","","","","4","","","","",""
"","","","","","single-stim-button","343","1029984","0.0-3.0-43.16-1.16","63d42c21dc6f4d60e34cc337","E1","batch5","tol_toboard","974","","","","","","","","","tol_peg_1","974","974","0","[[2,0,0],[1,3],[0]]","17","[[2,3,0],[0,0],[1]]","11","0","","","","","","4","","","","",""
"","","","","","single-stim-button","344","1031532","0.0-3.0-43.17-0.17","63d42c21dc6f4d60e34cc337","E1","batch5","tol_tohand","1545","","","","","","","","","tol_peg_2","1545","1545","0","[[2,0,0],[1,0],[0]]","18","[[2,3,0],[0,0],[1]]","11","0","","","","","","4","","","","",""
"","","","","","single-stim-button","345","1032483","0.0-3.0-43.17-1.17","63d42c21dc6f4d60e34cc337","E1","batch5","tol_toboard","949","","","","","","","","","tol_peg_1","949","949","0","[[2,3,0],[1,0],[0]]","18","[[2,3,0],[0,0],[1]]","11","0","","","","","","4","","","","",""
"","","","","","single-stim-button","346","1033165","0.0-3.0-43.18-0.18","63d42c21dc6f4d60e34cc337","E1","batch5","tol_tohand","680","","","","","","","","","tol_peg_2","680","680","0","[[2,3,0],[0,0],[0]]","19","[[2,3,0],[0,0],[1]]","11","0","","","","","","4","","","","",""
"","","","","","single-stim-button","347","1034188","0.0-3.0-43.18-1.18","63d42c21dc6f4d60e34cc337","E1","batch5","tol_toboard","1021","","","","","","","","","tol_peg_3","1021","1021","0","[[2,3,0],[0,0],[1]]","19","[[2,3,0],[0,0],[1]]","11","0","","","","","","4","","","","",""
"","","","","","poldrack-single-stim","348","1035196","0.0-3.0-44.0","63d42c21dc6f4d60e34cc337","E1","batch5","tol_feedback","-1","","","","","true","","","","","1000","1000","500","","","","","","-1","none","true","2301","18756","","","","","",""
"","","","","","html-button-response","349","1036539","0.0-3.0-45.0","63d42c21dc6f4d60e34cc337","E1","batch5","tol_trial_num","1341.8999999761581","<div class = centerbox><p class = center-block-text>problem <strong>13</strong> out of 25 problems</p></div>","0","","","","","","","","","","","","","","","","","","","","","","","","","",""
"","","","","","single-stim-button","350","1039269","0.0-3.0-46.0-0.0","63d42c21dc6f4d60e34cc337","E1","batch5","tol_tohand","2727","","","","","","","","","tol_peg_1","2727","2727","0","[[1,0,0],[3,0],[0]]","1","[[0,0,0],[2,3],[1]]","12","0","","","","","","4","","","","",""
"","","","","","single-stim-button","351","1040305","0.0-3.0-46.0-1.0","63d42c21dc6f4d60e34cc337","E1","batch5","tol_toboard","1034","","","","","","","","","tol_peg_2","1034","1034","0","[[1,0,0],[3,2],[0]]","1","[[0,0,0],[2,3],[1]]","12","0","","","","","","4","","","","",""
"","","","","","single-stim-button","352","1040951","0.0-3.0-46.1-0.1","63d42c21dc6f4d60e34cc337","E1","batch5","tol_tohand","644","","","","","","","","","tol_peg_1","644","644","0","[[0,0,0],[3,2],[0]]","2","[[0,0,0],[2,3],[1]]","12","0","","","","","","4","","","","",""
"","","","","","single-stim-button","353","1042242","0.0-3.0-46.1-1.1","63d42c21dc6f4d60e34cc337","E1","batch5","tol_toboard","1289","","","","","","","","","tol_peg_3","1289","1289","0","[[0,0,0],[3,2],[1]]","2","[[0,0,0],[2,3],[1]]","12","0","","","","","","4","","","","",""
"","","","","","single-stim-button","354","1042924","0.0-3.0-46.2-0.2","63d42c21dc6f4d60e34cc337","E1","batch5","tol_tohand","681","","","","","","","","","tol_peg_2","681","681","0","[[0,0,0],[3,0],[1]]","3","[[0,0,0],[2,3],[1]]","12","0","","","","","","4","","","","",""
"","","","","","single-stim-button","355","1046422","0.0-3.0-46.2-1.2","63d42c21dc6f4d60e34cc337","E1","batch5","tol_toboard","3496","","","","","","","","","tol_peg_1","3496","3496","0","[[2,0,0],[3,0],[1]]","3","[[0,0,0],[2,3],[1]]","12","0","","","","","","4","","","","",""
