"success","timeout","failed_images","failed_audio","failed_video","trial_type","trial_index","time_elapsed","internal_node_id","subject_id","study_id","session_id","view_history","rt","task","stimulus","response","correct","mouse_click","stim_duration","block_duration","timing_post_trial","current_position","tol_num_moves_made","tol_target","tol_problem_id","tol_rt","key_press","possible_responses","tol_correct","preplanning","tol_rt_per_trial","tol_min_moves","item","answer","spm_correct","spm_rt","fiar_detect_rt","fiar_detect_correct","total_correct_fiar_detect","post_trial_gap","choices"
"true","false","[]","[]","[]","preload","0","6336","0.0-0.0","63d431741930507f67d6c9ec","E1","batch5","","","","","","","","","","","","","","","","","","","","","","","","","","","","","",""
"true","","","","","fullscreen","1","14673","0.0-1.0-0.0","63d431741930507f67d6c9ec","E1","batch5","","","","","","","","","","","","","","","","","","","","","","","","","","","","","",""
"true","","","","","fullscreen","2","17058","0.0-2.0-0.0","63d431741930507f67d6c9ec","E1","batch5","","","","","","","","","","","","","","","","","","","","","","","","","","","","","",""
"","","","","","instructions","3","37638","0.0-2.0-1.0-0.0-0.0","63d431741930507f67d6c9ec","E1","batch5","[{""page_index"":0,""viewing_time"":7454.5},{""page_index"":1,""viewing_time"":3310.9000000003725},{""page_index"":2,""viewing_time"":1922.8999999994412},{""page_index"":3,""viewing_time"":1305.2000000001863},{""page_index"":4,""viewing_time"":2104.7999999998137},{""page_index"":5,""viewing_time"":1450.2000000001863},{""page_index"":6,""viewing_time"":3031.5}]","20580.099999999627","tol-instructions","","","","","","","","","","","","","","","","","","","","","","","","","","",""
"","","","","","html-button-response","4","38605","0.0-2.0-1.0-1.0-0.0","63d431741930507f67d6c9ec","E1","batch5","","966.4000000003725","tol_enter_quiz","<p class=block-text> Let's answer a few questions <br>","0","","","","","","","","","","","","","","","","","","","","","","","","",""
"","","","","","html-button-response","5","44853","0.0-2.0-1.0-1.0-1.0","63d431741930507f67d6c9ec","E1","batch5","","6246.9000000003725","tol_quiz","<p class = block-text>True or False: You can only move the ball on top of a peg. <br></p>","0","true","","","","","","","","","","","","","","","","","","","","","","","",""
"","","","","","html-button-response","6","45943","0.0-2.0-1.0-1.0-2.0","63d431741930507f67d6c9ec","E1","batch5","","1089.300000000745","tol_quiz_feedback","<p class = block-text>Correct! You can only move the ball on top of a peg.</p>","0","","","","","","","","","","","","","","","","","","","","","","","","",""
"","","","","","html-button-response","7","48231","0.0-2.0-1.0-1.0-3.0","63d431741930507f67d6c9ec","E1","batch5","","2287.5","tol_quiz","<p class = block-text>True or False: You should try to match your board with the target board with fewest moves possible. <br></p>","0","true","","","","","","","","","","","","","","","","","","","","","","","",""
"","","","","","html-button-response","8","48939","0.0-2.0-1.0-1.0-4.0","63d431741930507f67d6c9ec","E1","batch5","","708","tol_quiz_feedback","<p class = block-text>Correct! </p>","0","","","","","","","","","","","","","","","","","","","","","","","","",""
"","","","","","html-button-response","9","50844","0.0-2.0-2.0","63d431741930507f67d6c9ec","E1","batch5","","1903.9000000003725","","<p class=block-text> Now that you've understood the game, let's practice a few easier examples before we start!<br> <br>","0","","","","","","","","","","","","","","","","","","","","","","","","",""
"","","","","","single-stim-button","10","51869","0.0-2.0-3.0-0.0","63d431741930507f67d6c9ec","E1","batch5","","1025","tol_practice","","","","tol_peg_2","1025","1025","0","[[1,2,0],[0,0],[0]]","1","[[1,2,0],[0,0],[3]]","practice","1025","","","","","","","","","","","","","","",""
"","","","","","single-stim-button","11","53401","0.0-2.0-3.0-1.0","63d431741930507f67d6c9ec","E1","batch5","","1530","tol_practice","","","","tol_peg_3","1530","1530","0","[[1,2,0],[0,0],[3]]","1","[[1,2,0],[0,0],[3]]","practice","1530","","","","","","","","","","","","","","",""
"","","","","","poldrack-single-stim","12","54402","0.0-2.0-4.0","63d431741930507f67d6c9ec","E1","batch5","","-1","tol_feedback","","","true","","1000","1000","500","","","","","","-1","none","true","","0","","","","","","","","","",""
"","","","","","single-stim-button","13","58029","0.0-2.0-5.0-0.0","63d431741930507f67d6c9ec","E1","batch5","","3625","tol_practice","","","","tol_peg_1","3625","3625","0","[[1,0,0],[3,0],[0]]","2","[[0,0,0],[3,1],[2]]","practice","3625","","","","","","","","","","","","","","",""
"","","","","","single-stim-button","14","58513","0.0-2.0-5.0-1.0","63d431741930507f67d6c9ec","E1","batch5","","483","tol_practice","","","","tol_peg_3","483","483","0","[[1,0,0],[3,0],[2]]","2","[[0,0,0],[3,1],[2]]","practice","483","","","","","","","","","","","","","","",""
"","","","","","single-stim-button","15","59056","0.0-2.0-5.1-0.1","63d431741930507f67d6c9ec","E1","batch5","","542","tol_practice","","","","tol_peg_1","542","542","0","[[0,0,0],[3,0],[2]]","3","[[0,0,0],[3,1],[2]]","practice","542","","","","","","","","","","","","","","",""
"","","","","","single-stim-button","16","59426","0.0-2.0-5.1-1.1","63d431741930507f67d6c9ec","E1","batch5","","370","tol_practice","","","","tol_peg_2","370","370","0","[[0,0,0],[3,1],[2]]","3","[[0,0,0],[3,1],[2]]","practice","370","","","","","","","","","","","","","","",""
"","","","","","poldrack-single-stim","17","60427","0.0-2.0-6.0","63d431741930507f67d6c9ec","E1","batch5","","-1","tol_feedback","","","true","","1000","1000","500","","","","","","-1","none","true","","0","","","","","","","","","",""
"","","","","","single-stim-button","18","62531","0.0-2.0-7.0-0.0","63d431741930507f67d6c9ec","E1","batch5","","2104","tol_practice","","","","tol_peg_2","2104","2104","0","[[1,2,0],[0,0],[0]]","4","[[1,0,0],[2,0],[3]]","practice","2104","","","","","","","","","","","","","","",""
"","","","","","single-stim-button","19","62912","0.0-2.0-7.0-1.0","63d431741930507f67d6c9ec","E1","batch5","","380","tol_practice","","","","tol_peg_3","380","380","0","[[1,2,0],[0,0],[3]]","4","[[1,0,0],[2,0],[3]]","practice","380","","","","","","","","","","","","","","",""
"","","","","","single-stim-button","20","63363","0.0-2.0-7.1-0.1","63d431741930507f67d6c9ec","E1","batch5","","451","tol_practice","","","","tol_peg_1","451","451","0","[[1,0,0],[0,0],[3]]","5","[[1,0,0],[2,0],[3]]","practice","451","","","","","","","","","","","","","","",""
"","","","","","single-stim-button","21","63712","0.0-2.0-7.1-1.1","63d431741930507f67d6c9ec","E1","batch5","","349","tol_practice","","","","tol_peg_2","349","349","0","[[1,0,0],[2,0],[3]]","5","[[1,0,0],[2,0],[3]]","practice","349","","","","","","","","","","","","","","",""
"","","","","","poldrack-single-stim","22","64713","0.0-2.0-8.0","63d431741930507f67d6c9ec","E1","batch5","","-1","tol_feedback","","","true","","1000","1000","500","","","","","","-1","none","true","","0","","","","","","","","","",""
"","","","","","html-button-response","23","66607","0.0-2.0-9.0","63d431741930507f67d6c9ec","E1","batch5","","1893.5999999996275","tol_instruction","<div class = centerbox><p class = center-block-text>Great job! You are done with practice trials<br>You are about to start official trials.<br> <br> Problem <strong>1</strong> out of 25 problems</p></div>","0","","","","","","","","","","","","","","","","","","","","","","","","",""
"","","","","","single-stim-button","24","71648","0.0-2.0-10.0-0.0","63d431741930507f67d6c9ec","E1","batch5","","4036","tol_tohand","","","","tol_peg_2","4036","4036","0","[[1,2,0],[0,0],[0]]","1","[[1,3,0],[2,0],[0]]","0","0","","","","","","3","","","","","","","","",""
"","","","","","single-stim-button","25","72144","0.0-2.0-10.0-1.0","63d431741930507f67d6c9ec","E1","batch5","","495","tol_toboard","","","","tol_peg_3","495","495","0","[[1,2,0],[0,0],[3]]","1","[[1,3,0],[2,0],[0]]","0","0","","","","","","3","","","","","","","","",""
"","","","","","single-stim-button","26","72581","0.0-2.0-10.1-0.1","63d431741930507f67d6c9ec","E1","batch5","","437","tol_tohand","","","","tol_peg_1","437","437","0","[[1,0,0],[0,0],[3]]","2","[[1,3,0],[2,0],[0]]","0","0","","","","","","3","","","","","","","","",""
"","","","","","single-stim-button","27","73021","0.0-2.0-10.1-1.1","63d431741930507f67d6c9ec","E1","batch5","","440","tol_toboard","","","","tol_peg_2","440","440","0","[[1,0,0],[2,0],[3]]","2","[[1,3,0],[2,0],[0]]","0","0","","","","","","3","","","","","","","","",""
"","","","","","single-stim-button","28","73331","0.0-2.0-10.2-0.2","63d431741930507f67d6c9ec","E1","batch5","","310","tol_tohand","","","","tol_peg_3","310","310","0","[[1,0,0],[2,0],[0]]","3","[[1,3,0],[2,0],[0]]","0","0","","","","","","3","","","","","","","","",""
"","","","","","single-stim-button","29","73778","0.0-2.0-10.2-1.2","63d431741930507f67d6c9ec","E1","batch5","","446","tol_toboard","","","","tol_peg_1","446","446","0","[[1,3,0],[2,0],[0]]","3","[[1,3,0],[2,0],[0]]","0","0","","","","","","3","","","","","","","","",""
"","","","","","poldrack-single-stim","30","74780","0.0-2.0-11.0","63d431741930507f67d6c9ec","E1","batch5","","-1","tol_feedback","","","true","","1000","1000","500","","","","","","-1","none","true","4036","4783","","","","","","","","","",""
"","","","","","html-button-response","31","75731","0.0-2.0-12.0","63d431741930507f67d6c9ec","E1","batch5","","950.5","tol_trial_num","<div class = centerbox><p class = center-block-text>problem <strong>2</strong> out of 25 problems</p></div>","0","","","","","","","","","","","","","","","","","","","","","","","","",""
"","","","","","single-stim-button","32","80934","0.0-2.0-13.0-0.0","63d431741930507f67d6c9ec","E1","batch5","","5203","tol_tohand","","","","tol_peg_1","5203","5203","0","[[1,0,0],[3,0],[0]]","1","[[2,1,3],[0,0],[0]]","1","0","","","","","","5","","","","","","","","",""
"","","","","","single-stim-button","33","81508","0.0-2.0-13.0-1.0","63d431741930507f67d6c9ec","E1","batch5","","574","tol_toboard","","","","tol_peg_3","574","574","0","[[1,0,0],[3,0],[2]]","1","[[2,1,3],[0,0],[0]]","1","0","","","","","","5","","","","","","","","",""
"","","","","","single-stim-button","34","81977","0.0-2.0-13.1-0.1","63d431741930507f67d6c9ec","E1","batch5","","469","tol_tohand","","","","tol_peg_1","469","469","0","[[0,0,0],[3,0],[2]]","2","[[2,1,3],[0,0],[0]]","1","0","","","","","","5","","","","","","","","",""
"","","","","","single-stim-button","35","82438","0.0-2.0-13.1-1.1","63d431741930507f67d6c9ec","E1","batch5","","460","tol_toboard","","","","tol_peg_2","460","460","0","[[0,0,0],[3,1],[2]]","2","[[2,1,3],[0,0],[0]]","1","0","","","","","","5","","","","","","","","",""
"","","","","","single-stim-button","36","82781","0.0-2.0-13.2-0.2","63d431741930507f67d6c9ec","E1","batch5","","343","tol_tohand","","","","tol_peg_3","343","343","0","[[0,0,0],[3,1],[0]]","3","[[2,1,3],[0,0],[0]]","1","0","","","","","","5","","","","","","","","",""
"","","","","","single-stim-button","37","83222","0.0-2.0-13.2-1.2","63d431741930507f67d6c9ec","E1","batch5","","440","tol_toboard","","","","tol_peg_1","440","440","0","[[2,0,0],[3,1],[0]]","3","[[2,1,3],[0,0],[0]]","1","0","","","","","","5","","","","","","","","",""
"","","","","","single-stim-button","38","83596","0.0-2.0-13.3-0.3","63d431741930507f67d6c9ec","E1","batch5","","374","tol_tohand","","","","tol_peg_2","374","374","0","[[2,0,0],[3,0],[0]]","4","[[2,1,3],[0,0],[0]]","1","0","","","","","","5","","","","","","","","",""
"","","","","","single-stim-button","39","84044","0.0-2.0-13.3-1.3","63d431741930507f67d6c9ec","E1","batch5","","448","tol_toboard","","","","tol_peg_1","448","448","0","[[2,1,0],[3,0],[0]]","4","[[2,1,3],[0,0],[0]]","1","0","","","","","","5","","","","","","","","",""
"","","","","","single-stim-button","40","84366","0.0-2.0-13.4-0.4","63d431741930507f67d6c9ec","E1","batch5","","322","tol_tohand","","","","tol_peg_2","322","322","0","[[2,1,0],[0,0],[0]]","5","[[2,1,3],[0,0],[0]]","1","0","","","","","","5","","","","","","","","",""
"","","","","","single-stim-button","41","84650","0.0-2.0-13.4-1.4","63d431741930507f67d6c9ec","E1","batch5","","284","tol_toboard","","","","tol_peg_1","284","284","0","[[2,1,3],[0,0],[0]]","5","[[2,1,3],[0,0],[0]]","1","0","","","","","","5","","","","","","","","",""
"","","","","","poldrack-single-stim","42","85661","0.0-2.0-14.0","63d431741930507f67d6c9ec","E1","batch5","","-1","tol_feedback","","","true","","1000","1000","500","","","","","","-1","none","true","5203","6711","","","","","","","","","",""
"","","","","","html-button-response","43","86375","0.0-2.0-15.0","63d431741930507f67d6c9ec","E1","batch5","","713.2999999998137","tol_trial_num","<div class = centerbox><p class = center-block-text>problem <strong>3</strong> out of 25 problems</p></div>","0","","","","","","","","","","","","","","","","","","","","","","","","",""
"","","","","","single-stim-button","44","91182","0.0-2.0-16.0-0.0","63d431741930507f67d6c9ec","E1","batch5","","4807","tol_tohand","","","","tol_peg_1","4807","4807","0","[[2,0,0],[0,0],[1]]","1","[[1,2,0],[3,0],[0]]","2","0","","","","","","4","","","","","","","","",""
"","","","","","single-stim-button","45","91629","0.0-2.0-16.0-1.0","63d431741930507f67d6c9ec","E1","batch5","","447","tol_toboard","","","","tol_peg_2","447","447","0","[[2,0,0],[3,0],[1]]","1","[[1,2,0],[3,0],[0]]","2","0","","","","","","4","","","","","","","","",""
"","","","","","single-stim-button","46","92089","0.0-2.0-16.1-0.1","63d431741930507f67d6c9ec","E1","batch5","","460","tol_tohand","","","","tol_peg_1","460","460","0","[[0,0,0],[3,0],[1]]","2","[[1,2,0],[3,0],[0]]","2","0","","","","","","4","","","","","","","","",""
"","","","","","single-stim-button","47","92420","0.0-2.0-16.1-1.1","63d431741930507f67d6c9ec","E1","batch5","","331","tol_toboard","","","","tol_peg_2","331","331","0","[[0,0,0],[3,2],[1]]","2","[[1,2,0],[3,0],[0]]","2","0","","","","","","4","","","","","","","","",""
"","","","","","single-stim-button","48","92757","0.0-2.0-16.2-0.2","63d431741930507f67d6c9ec","E1","batch5","","337","tol_tohand","","","","tol_peg_3","337","337","0","[[0,0,0],[3,2],[0]]","3","[[1,2,0],[3,0],[0]]","2","0","","","","","","4","","","","","","","","",""
"","","","","","single-stim-button","49","93144","0.0-2.0-16.2-1.2","63d431741930507f67d6c9ec","E1","batch5","","387","tol_toboard","","","","tol_peg_1","387","387","0","[[1,0,0],[3,2],[0]]","3","[[1,2,0],[3,0],[0]]","2","0","","","","","","4","","","","","","","","",""
"","","","","","single-stim-button","50","93488","0.0-2.0-16.3-0.3","63d431741930507f67d6c9ec","E1","batch5","","343","tol_tohand","","","","tol_peg_2","343","343","0","[[1,0,0],[3,0],[0]]","4","[[1,2,0],[3,0],[0]]","2","0","","","","","","4","","","","","","","","",""
"","","","","","single-stim-button","51","93789","0.0-2.0-16.3-1.3","63d431741930507f67d6c9ec","E1","batch5","","301","tol_toboard","","","","tol_peg_1","301","301","0","[[1,2,0],[3,0],[0]]","4","[[1,2,0],[3,0],[0]]","2","0","","","","","","4","","","","","","","","",""
"","","","","","poldrack-single-stim","52","94791","0.0-2.0-17.0","63d431741930507f67d6c9ec","E1","batch5","","-1","tol_feedback","","","true","","1000","1000","500","","","","","","-1","none","true","4807","5947","","","","","","","","","",""
"","","","","","html-button-response","53","95260","0.0-2.0-18.0","63d431741930507f67d6c9ec","E1","batch5","","468.70000000018626","tol_trial_num","<div class = centerbox><p class = center-block-text>problem <strong>4</strong> out of 25 problems</p></div>","0","","","","","","","","","","","","","","","","","","","","","","","","",""
"","","","","","single-stim-button","54","99240","0.0-2.0-19.0-0.0","63d431741930507f67d6c9ec","E1","batch5","","3980","tol_tohand","","","","tol_peg_2","3980","3980","0","[[3,0,0],[2,0],[0]]","1","[[3,0,0],[1,0],[2]]","3","0","","","","","","3","","","","","","","","",""
"","","","","","single-stim-button","55","100056","0.0-2.0-19.0-1.0","63d431741930507f67d6c9ec","E1","batch5","","816","tol_toboard","","","","tol_peg_1","816","816","0","[[3,1,0],[2,0],[0]]","1","[[3,0,0],[1,0],[2]]","3","0","","","","","","3","","","","","","","","",""
"","","","","","single-stim-button","56","100419","0.0-2.0-19.1-0.1","63d431741930507f67d6c9ec","E1","batch5","","363","tol_tohand","","","","tol_peg_2","363","363","0","[[3,1,0],[0,0],[0]]","2","[[3,0,0],[1,0],[2]]","3","0","","","","","","3","","","","","","","","",""
"","","","","","single-stim-button","57","100725","0.0-2.0-19.1-1.1","63d431741930507f67d6c9ec","E1","batch5","","306","tol_toboard","","","","tol_peg_3","306","306","0","[[3,1,0],[0,0],[2]]","2","[[3,0,0],[1,0],[2]]","3","0","","","","","","3","","","","","","","","",""
"","","","","","single-stim-button","58","101089","0.0-2.0-19.2-0.2","63d431741930507f67d6c9ec","E1","batch5","","364","tol_tohand","","","","tol_peg_1","364","364","0","[[3,0,0],[0,0],[2]]","3","[[3,0,0],[1,0],[2]]","3","0","","","","","","3","","","","","","","","",""
"","","","","","single-stim-button","59","101365","0.0-2.0-19.2-1.2","63d431741930507f67d6c9ec","E1","batch5","","276","tol_toboard","","","","tol_peg_2","276","276","0","[[3,0,0],[1,0],[2]]","3","[[3,0,0],[1,0],[2]]","3","0","","","","","","3","","","","","","","","",""
"","","","","","poldrack-single-stim","60","102366","0.0-2.0-20.0","63d431741930507f67d6c9ec","E1","batch5","","-1","tol_feedback","","","true","","1000","1000","500","","","","","","-1","none","true","3980","4707","","","","","","","","","",""
"","","","","","html-button-response","61","103401","0.0-2.0-21.0","63d431741930507f67d6c9ec","E1","batch5","","1034.2000000001863","tol_trial_num","<div class = centerbox><p class = center-block-text>problem <strong>5</strong> out of 25 problems</p></div>","0","","","","","","","","","","","","","","","","","","","","","","","","",""
"","","","","","single-stim-button","62","200175","0.0-2.0-22.0-0.0","63d431741930507f67d6c9ec","E1","batch5","","96774","tol_tohand","","","","tol_peg_1","96774","96774","0","[[0,0,0],[2,0],[3]]","1","[[0,0,0],[1,2],[3]]","4","0","","","","","","7","","","","","","","","",""
"","","","","","single-stim-button","63","200462","0.0-2.0-22.0-1.0","63d431741930507f67d6c9ec","E1","batch5","","287","tol_toboard","","","","tol_peg_2","287","287","0","[[0,0,0],[2,1],[3]]","1","[[0,0,0],[1,2],[3]]","4","0","","","","","","7","","","","","","","","",""
"","","","","","single-stim-button","64","200758","0.0-2.0-22.1-0.1","63d431741930507f67d6c9ec","E1","batch5","","296","tol_tohand","","","","tol_peg_3","296","296","0","[[0,0,0],[2,1],[0]]","2","[[0,0,0],[1,2],[3]]","4","0","","","","","","7","","","","","","","","",""
"","","","","","single-stim-button","65","201109","0.0-2.0-22.1-1.1","63d431741930507f67d6c9ec","E1","batch5","","351","tol_toboard","","","","tol_peg_1","351","351","0","[[3,0,0],[2,1],[0]]","2","[[0,0,0],[1,2],[3]]","4","0","","","","","","7","","","","","","","","",""
"","","","","","single-stim-button","66","207835","0.0-2.0-22.2-0.2","63d431741930507f67d6c9ec","E1","batch5","","6726","tol_tohand","","","","tol_peg_2","6726","6726","0","[[3,0,0],[2,0],[0]]","3","[[0,0,0],[1,2],[3]]","4","0","","","","","","7","","","","","","","","",""
"","","","","","single-stim-button","67","208280","0.0-2.0-22.2-1.2","63d431741930507f67d6c9ec","E1","batch5","","444","tol_toboard","","","","tol_peg_3","444","444","0","[[3,0,0],[2,0],[1]]","3","[[0,0,0],[1,2],[3]]","4","0","","","","","","7","","","","","","","","",""
"","","","","","single-stim-button","68","208604","0.0-2.0-22.3-0.3","63d431741930507f67d6c9ec","E1","batch5","","324","tol_tohand","","","","tol_peg_2","324","324","0","[[3,0,0],[0,0],[1]]","4","[[0,0,0],[1,2],[3]]","4","0","","","","","","7","","","","","","","","",""
"","","","","","single-stim-button","69","209109","0.0-2.0-22.3-1.3","63d431741930507f67d6c9ec","E1","batch5","","505","tol_toboard","","","","tol_peg_1","505","505","0","[[3,2,0],[0,0],[1]]","4","[[0,0,0],[1,2],[3]]","4","0","","","","","","7","","","","","","","","",""
"","","","","","single-stim-button","70","209547","0.0-2.0-22.4-0.4","63d431741930507f67d6c9ec","E1","batch5","","438","tol_tohand","","","","tol_peg_3","438","438","0","[[3,2,0],[0,0],[0]]","5","[[0,0,0],[1,2],[3]]","4","0","","","","","","7","","","","","","","","",""
"","","","","","single-stim-button","71","209920","0.0-2.0-22.4-1.4","63d431741930507f67d6c9ec","E1","batch5","","373","tol_toboard","","","","tol_peg_2","373","373","0","[[3,2,0],[1,0],[0]]","5","[[0,0,0],[1,2],[3]]","4","0","","","","","","7","","","","","","","","",""
"","","","","","single-stim-button","72","210308","0.0-2.0-22.5-0.5","63d431741930507f67d6c9ec","E1","batch5","","388","tol_tohand","","","","tol_peg_1","388","388","0","[[3,0,0],[1,0],[0]]","6","[[0,0,0],[1,2],[3]]","4","0","","","","","","7","","","","","","","","",""
"","","","","","single-stim-button","73","210542","0.0-2.0-22.5-1.5","63d431741930507f67d6c9ec","E1","batch5","","234","tol_toboard","","","","tol_peg_2","234","234","0","[[3,0,0],[1,2],[0]]","6","[[0,0,0],[1,2],[3]]","4","0","","","","","","7","","","","","","","","",""
"","","","","","single-stim-button","74","210850","0.0-2.0-22.6-0.6","63d431741930507f67d6c9ec","E1","batch5","","308","tol_tohand","","","","tol_peg_1","308","308","0","[[0,0,0],[1,2],[0]]","7","[[0,0,0],[1,2],[3]]","4","0","","","","","","7","","","","","","","","",""
"","","","","","single-stim-button","75","211167","0.0-2.0-22.6-1.6","63d431741930507f67d6c9ec","E1","batch5","","317","tol_toboard","","","","tol_peg_3","317","317","0","[[0,0,0],[1,2],[3]]","7","[[0,0,0],[1,2],[3]]","4","0","","","","","","7","","","","","","","","",""
"","","","","","poldrack-single-stim","76","212171","0.0-2.0-23.0","63d431741930507f67d6c9ec","E1","batch5","","-1","tol_feedback","","","true","","1000","1000","500","","","","","","-1","none","true","96774","105254","","","","","","","","","",""
"","","","","","html-button-response","77","212675","0.0-2.0-24.0","63d431741930507f67d6c9ec","E1","batch5","","502.70000000018626","tol_trial_num","<div class = centerbox><p class = center-block-text>problem <strong>6</strong> out of 25 problems</p></div>","0","","","","","","","","","","","","","","","","","","","","","","","","",""
"","","","","","single-stim-button","78","277337","0.0-2.0-25.0-0.0","63d431741930507f67d6c9ec","E1","batch5","","64662","tol_tohand","","","","tol_peg_3","64662","64662","0","[[0,0,0],[1,2],[0]]","1","[[1,0,0],[2,3],[0]]","5","0","","","","","","6","","","","","","","","",""
"","","","","","single-stim-button","79","277865","0.0-2.0-25.0-1.0","63d431741930507f67d6c9ec","E1","batch5","","528","tol_toboard","","","","tol_peg_1","528","528","0","[[3,0,0],[1,2],[0]]","1","[[1,0,0],[2,3],[0]]","5","0","","","","","","6","","","","","","","","",""
"","","","","","single-stim-button","80","278538","0.0-2.0-25.1-0.1","63d431741930507f67d6c9ec","E1","batch5","","673","tol_tohand","","","","tol_peg_2","673","673","0","[[3,0,0],[1,0],[0]]","2","[[1,0,0],[2,3],[0]]","5","0","","","","","","6","","","","","","","","",""
"","","","","","single-stim-button","81","278867","0.0-2.0-25.1-1.1","63d431741930507f67d6c9ec","E1","batch5","","328","tol_toboard","","","","tol_peg_3","328","328","0","[[3,0,0],[1,0],[2]]","2","[[1,0,0],[2,3],[0]]","5","0","","","","","","6","","","","","","","","",""
"","","","","","single-stim-button","82","279199","0.0-2.0-25.2-0.2","63d431741930507f67d6c9ec","E1","batch5","","332","tol_tohand","","","","tol_peg_2","332","332","0","[[3,0,0],[0,0],[2]]","3","[[1,0,0],[2,3],[0]]","5","0","","","","","","6","","","","","","","","",""
"","","","","","single-stim-button","83","279499","0.0-2.0-25.2-1.2","63d431741930507f67d6c9ec","E1","batch5","","300","tol_toboard","","","","tol_peg_1","300","300","0","[[3,1,0],[0,0],[2]]","3","[[1,0,0],[2,3],[0]]","5","0","","","","","","6","","","","","","","","",""
"","","","","","single-stim-button","84","279941","0.0-2.0-25.3-0.3","63d431741930507f67d6c9ec","E1","batch5","","442","tol_tohand","","","","tol_peg_3","442","442","0","[[3,1,0],[0,0],[0]]","4","[[1,0,0],[2,3],[0]]","5","0","","","","","","6","","","","","","","","",""
"","","","","","single-stim-button","85","280343","0.0-2.0-25.3-1.3","63d431741930507f67d6c9ec","E1","batch5","","402","tol_toboard","","","","tol_peg_2","402","402","0","[[3,1,0],[2,0],[0]]","4","[[1,0,0],[2,3],[0]]","5","0","","","","","","6","","","","","","","","",""
"","","","","","single-stim-button","86","280936","0.0-2.0-25.4-0.4","63d431741930507f67d6c9ec","E1","batch5","","593","tol_tohand","","","","tol_peg_1","593","593","0","[[3,0,0],[2,0],[0]]","5","[[1,0,0],[2,3],[0]]","5","0","","","","","","6","","","","","","","","",""
"","","","","","single-stim-button","87","281470","0.0-2.0-25.4-1.4","63d431741930507f67d6c9ec","E1","batch5","","534","tol_toboard","","","","tol_peg_3","534","534","0","[[3,0,0],[2,0],[1]]","5","[[1,0,0],[2,3],[0]]","5","0","","","","","","6","","","","","","","","",""
"","","","","","single-stim-button","88","281831","0.0-2.0-25.5-0.5","63d431741930507f67d6c9ec","E1","batch5","","361","tol_tohand","","","","tol_peg_1","361","361","0","[[0,0,0],[2,0],[1]]","6","[[1,0,0],[2,3],[0]]","5","0","","","","","","6","","","","","","","","",""
"","","","","","single-stim-button","89","282095","0.0-2.0-25.5-1.5","63d431741930507f67d6c9ec","E1","batch5","","264","tol_toboard","","","","tol_peg_2","264","264","0","[[0,0,0],[2,3],[1]]","6","[[1,0,0],[2,3],[0]]","5","0","","","","","","6","","","","","","","","",""
"","","","","","single-stim-button","90","282441","0.0-2.0-25.6-0.6","63d431741930507f67d6c9ec","E1","batch5","","346","tol_tohand","","","","tol_peg_3","346","346","0","[[0,0,0],[2,3],[0]]","7","[[1,0,0],[2,3],[0]]","5","0","","","","","","6","","","","","","","","",""
"","","","","","single-stim-button","91","282817","0.0-2.0-25.6-1.6","63d431741930507f67d6c9ec","E1","batch5","","376","tol_toboard","","","","tol_peg_1","376","376","0","[[1,0,0],[2,3],[0]]","7","[[1,0,0],[2,3],[0]]","5","0","","","","","","6","","","","","","","","",""
"","","","","","poldrack-single-stim","92","283832","0.0-2.0-26.0","63d431741930507f67d6c9ec","E1","batch5","","-1","tol_feedback","","","true","","1000","1000","500","","","","","","-1","none","true","64662","67409","","","","","","","","","",""
"","","","","","html-button-response","93","284431","0.0-2.0-27.0","63d431741930507f67d6c9ec","E1","batch5","","598","tol_trial_num","<div class = centerbox><p class = center-block-text>problem <strong>7</strong> out of 25 problems</p></div>","0","","","","","","","","","","","","","","","","","","","","","","","","",""
"","","","","","single-stim-button","94","291379","0.0-2.0-28.0-0.0","63d431741930507f67d6c9ec","E1","batch5","","6948","tol_tohand","","","","tol_peg_3","6948","6948","0","[[2,1,0],[0,0],[0]]","1","[[1,2,0],[3,0],[0]]","6","0","","","","","","5","","","","","","","","",""
"","","","","","single-stim-button","95","292122","0.0-2.0-28.0-1.0","63d431741930507f67d6c9ec","E1","batch5","","743","tol_toboard","","","","tol_peg_2","743","743","0","[[2,1,0],[3,0],[0]]","1","[[1,2,0],[3,0],[0]]","6","0","","","","","","5","","","","","","","","",""
"","","","","","single-stim-button","96","294636","0.0-2.0-28.1-0.1","63d431741930507f67d6c9ec","E1","batch5","","2514","tol_tohand","","","","tol_peg_1","2514","2514","0","[[2,0,0],[3,0],[0]]","2","[[1,2,0],[3,0],[0]]","6","0","","","","","","5","","","","","","","","",""
"","","","","","single-stim-button","97","295289","0.0-2.0-28.1-1.1","63d431741930507f67d6c9ec","E1","batch5","","653","tol_toboard","","","","tol_peg_2","653","653","0","[[2,0,0],[3,1],[0]]","2","[[1,2,0],[3,0],[0]]","6","0","","","","","","5","","","","","","","","",""
"","","","","","single-stim-button","98","295637","0.0-2.0-28.2-0.2","63d431741930507f67d6c9ec","E1","batch5","","348","tol_tohand","","","","tol_peg_1","348","348","0","[[0,0,0],[3,1],[0]]","3","[[1,2,0],[3,0],[0]]","6","0","","","","","","5","","","","","","","","",""
"","","","","","single-stim-button","99","296031","0.0-2.0-28.2-1.2","63d431741930507f67d6c9ec","E1","batch5","","393","tol_toboard","","","","tol_peg_3","393","393","0","[[0,0,0],[3,1],[2]]","3","[[1,2,0],[3,0],[0]]","6","0","","","","","","5","","","","","","","","",""
"","","","","","single-stim-button","100","296333","0.0-2.0-28.3-0.3","63d431741930507f67d6c9ec","E1","batch5","","302","tol_tohand","","","","tol_peg_2","302","302","0","[[0,0,0],[3,0],[2]]","4","[[1,2,0],[3,0],[0]]","6","0","","","","","","5","","","","","","","","",""
"","","","","","single-stim-button","101","296633","0.0-2.0-28.3-1.3","63d431741930507f67d6c9ec","E1","batch5","","300","tol_toboard","","","","tol_peg_1","300","300","0","[[1,0,0],[3,0],[2]]","4","[[1,2,0],[3,0],[0]]","6","0","","","","","","5","","","","","","","","",""
"","","","","","single-stim-button","102","296933","0.0-2.0-28.4-0.4","63d431741930507f67d6c9ec","E1","batch5","","300","tol_tohand","","","","tol_peg_3","300","300","0","[[1,0,0],[3,0],[0]]","5","[[1,2,0],[3,0],[0]]","6","0","","","","","","5","","","","","","","","",""
"","","","","","single-stim-button","103","297652","0.0-2.0-28.4-1.4","63d431741930507f67d6c9ec","E1","batch5","","719","tol_toboard","","","","tol_peg_1","719","719","0","[[1,2,0],[3,0],[0]]","5","[[1,2,0],[3,0],[0]]","6","0","","","","","","5","","","","","","","","",""
"","","","","","poldrack-single-stim","104","298655","0.0-2.0-29.0","63d431741930507f67d6c9ec","E1","batch5","","-1","tol_feedback","","","true","","1000","1000","500","","","","","","-1","none","true","6948","10412","","","","","","","","","",""
"","","","","","html-button-response","105","299184","0.0-2.0-30.0","63d431741930507f67d6c9ec","E1","batch5","","528.6000000005588","tol_trial_num","<div class = centerbox><p class = center-block-text>problem <strong>8</strong> out of 25 problems</p></div>","0","","","","","","","","","","","","","","","","","","","","","","","","",""
"","","","","","single-stim-button","106","307873","0.0-2.0-31.0-0.0","63d431741930507f67d6c9ec","E1","batch5","","8689","tol_tohand","","","","tol_peg_3","8689","8689","0","[[0,0,0],[2,3],[0]]","1","[[1,2,0],[3,0],[0]]","7","0","","","","","","4","","","","","","","","",""
"","","","","","single-stim-button","107","308328","0.0-2.0-31.0-1.0","63d431741930507f67d6c9ec","E1","batch5","","455","tol_toboard","","","","tol_peg_1","455","455","0","[[1,0,0],[2,3],[0]]","1","[[1,2,0],[3,0],[0]]","7","0","","","","","","4","","","","","","","","",""
"","","","","","single-stim-button","108","308743","0.0-2.0-31.1-0.1","63d431741930507f67d6c9ec","E1","batch5","","415","tol_tohand","","","","tol_peg_2","415","415","0","[[1,0,0],[2,0],[0]]","2","[[1,2,0],[3,0],[0]]","7","0","","","","","","4","","","","","","","","",""
"","","","","","single-stim-button","109","309043","0.0-2.0-31.1-1.1","63d431741930507f67d6c9ec","E1","batch5","","300","tol_toboard","","","","tol_peg_3","300","300","0","[[1,0,0],[2,0],[3]]","2","[[1,2,0],[3,0],[0]]","7","0","","","","","","4","","","","","","","","",""
"","","","","","single-stim-button","110","309280","0.0-2.0-31.2-0.2","63d431741930507f67d6c9ec","E1","batch5","","236","tol_tohand","","","","tol_peg_2","236","236","0","[[1,0,0],[0,0],[3]]","3","[[1,2,0],[3,0],[0]]","7","0","","","","","","4","","","","","","","","",""
"","","","","","single-stim-button","111","309515","0.0-2.0-31.2-1.2","63d431741930507f67d6c9ec","E1","batch5","","235","tol_toboard","","","","tol_peg_1","235","235","0","[[1,2,0],[0,0],[3]]","3","[[1,2,0],[3,0],[0]]","7","0","","","","","","4","","","","","","","","",""
"","","","","","single-stim-button","112","309868","0.0-2.0-31.3-0.3","63d431741930507f67d6c9ec","E1","batch5","","353","tol_tohand","","","","tol_peg_3","353","353","0","[[1,2,0],[0,0],[0]]","4","[[1,2,0],[3,0],[0]]","7","0","","","","","","4","","","","","","","","",""
"","","","","","single-stim-button","113","310078","0.0-2.0-31.3-1.3","63d431741930507f67d6c9ec","E1","batch5","","210","tol_toboard","","","","tol_peg_2","210","210","0","[[1,2,0],[3,0],[0]]","4","[[1,2,0],[3,0],[0]]","7","0","","","","","","4","","","","","","","","",""
"","","","","","poldrack-single-stim","114","311079","0.0-2.0-32.0","63d431741930507f67d6c9ec","E1","batch5","","-1","tol_feedback","","","true","","1000","1000","500","","","","","","-1","none","true","8689","9693","","","","","","","","","",""
"","","","","","html-button-response","115","311591","0.0-2.0-33.0","63d431741930507f67d6c9ec","E1","batch5","","510.8999999994412","tol_trial_num","<div class = centerbox><p class = center-block-text>problem <strong>9</strong> out of 25 problems</p></div>","0","","","","","","","","","","","","","","","","","","","","","","","","",""
"","","","","","single-stim-button","116","332622","0.0-2.0-34.0-0.0","63d431741930507f67d6c9ec","E1","batch5","","21031","tol_tohand","","","","tol_peg_3","21031","21031","0","[[3,2,0],[0,0],[0]]","1","[[2,1,0],[3,0],[0]]","8","0","","","","","","6","","","","","","","","",""
"","","","","","single-stim-button","117","332860","0.0-2.0-34.0-1.0","63d431741930507f67d6c9ec","E1","batch5","","237","tol_toboard","","","","tol_peg_2","237","237","0","[[3,2,0],[1,0],[0]]","1","[[2,1,0],[3,0],[0]]","8","0","","","","","","6","","","","","","","","",""
"","","","","","single-stim-button","118","333174","0.0-2.0-34.1-0.1","63d431741930507f67d6c9ec","E1","batch5","","314","tol_tohand","","","","tol_peg_1","314","314","0","[[3,0,0],[1,0],[0]]","2","[[2,1,0],[3,0],[0]]","8","0","","","","","","6","","","","","","","","",""
"","","","","","single-stim-button","119","333413","0.0-2.0-34.1-1.1","63d431741930507f67d6c9ec","E1","batch5","","239","tol_toboard","","","","tol_peg_2","239","239","0","[[3,0,0],[1,2],[0]]","2","[[2,1,0],[3,0],[0]]","8","0","","","","","","6","","","","","","","","",""
"","","","","","single-stim-button","120","333771","0.0-2.0-34.2-0.2","63d431741930507f67d6c9ec","E1","batch5","","358","tol_tohand","","","","tol_peg_1","358","358","0","[[0,0,0],[1,2],[0]]","3","[[2,1,0],[3,0],[0]]","8","0","","","","","","6","","","","","","","","",""
"","","","","","single-stim-button","121","334222","0.0-2.0-34.2-1.2","63d431741930507f67d6c9ec","E1","batch5","","451","tol_toboard","","","","tol_peg_3","451","451","0","[[0,0,0],[1,2],[3]]","3","[[2,1,0],[3,0],[0]]","8","0","","","","","","6","","","","","","","","",""
"","","","","","single-stim-button","122","334518","0.0-2.0-34.3-0.3","63d431741930507f67d6c9ec","E1","batch5","","296","tol_tohand","","","","tol_peg_2","296","296","0","[[0,0,0],[1,0],[3]]","4","[[2,1,0],[3,0],[0]]","8","0","","","","","","6","","","","","","","","",""
"","","","","","single-stim-button","123","334785","0.0-2.0-34.3-1.3","63d431741930507f67d6c9ec","E1","batch5","","266","tol_toboard","","","","tol_peg_1","266","266","0","[[2,0,0],[1,0],[3]]","4","[[2,1,0],[3,0],[0]]","8","0","","","","","","6","","","","","","","","",""
"","","","","","single-stim-button","124","335057","0.0-2.0-34.4-0.4","63d431741930507f67d6c9ec","E1","batch5","","272","tol_tohand","","","","tol_peg_2","272","272","0","[[2,0,0],[0,0],[3]]","5","[[2,1,0],[3,0],[0]]","8","0","","","","","","6","","","","","","","","",""
"","","","","","single-stim-button","125","335333","0.0-2.0-34.4-1.4","63d431741930507f67d6c9ec","E1","batch5","","276","tol_toboard","","","","tol_peg_1","276","276","0","[[2,1,0],[0,0],[3]]","5","[[2,1,0],[3,0],[0]]","8","0","","","","","","6","","","","","","","","",""
"","","","","","single-stim-button","126","335628","0.0-2.0-34.5-0.5","63d431741930507f67d6c9ec","E1","batch5","","295","tol_tohand","","","","tol_peg_3","295","295","0","[[2,1,0],[0,0],[0]]","6","[[2,1,0],[3,0],[0]]","8","0","","","","","","6","","","","","","","","",""
"","","","","","single-stim-button","127","335836","0.0-2.0-34.5-1.5","63d431741930507f67d6c9ec","E1","batch5","","207","tol_toboard","","","","tol_peg_2","207","207","0","[[2,1,0],[3,0],[0]]","6","[[2,1,0],[3,0],[0]]","8","0","","","","","","6","","","","","","","","",""
"","","","","","poldrack-single-stim","128","336837","0.0-2.0-35.0","63d431741930507f67d6c9ec","E1","batch5","","-1","tol_feedback","","","true","","1000","1000","500","","","","","","-1","none","true","21031","22566","","","","","","","","","",""
"","","","","","html-button-response","129","337511","0.0-2.0-36.0","63d431741930507f67d6c9ec","E1","batch5","","673.8000000007451","tol_trial_num","<div class = centerbox><p class = center-block-text>problem <strong>10</strong> out of 25 problems</p></div>","0","","","","","","","","","","","","","","","","","","","","","","","","",""
"","","","","","single-stim-button","130","339938","0.0-2.0-37.0-0.0","63d431741930507f67d6c9ec","E1","batch5","","2427","tol_tohand","","","","tol_peg_2","2427","2427","0","[[3,0,0],[0,0],[2]]","1","[[3,0,0],[2,1],[0]]","9","0","","","","","","3","","","","","","","","",""
"","","","","","single-stim-button","131","340237","0.0-2.0-37.0-1.0","63d431741930507f67d6c9ec","E1","batch5","","299","tol_toboard","","","","tol_peg_1","299","299","0","[[3,1,0],[0,0],[2]]","1","[[3,0,0],[2,1],[0]]","9","0","","","","","","3","","","","","","","","",""
"","","","","","single-stim-button","132","340598","0.0-2.0-37.1-0.1","63d431741930507f67d6c9ec","E1","batch5","","361","tol_tohand","","","","tol_peg_3","361","361","0","[[3,1,0],[0,0],[0]]","2","[[3,0,0],[2,1],[0]]","9","0","","","","","","3","","","","","","","","",""
"","","","","","single-stim-button","133","340825","0.0-2.0-37.1-1.1","63d431741930507f67d6c9ec","E1","batch5","","227","tol_toboard","","","","tol_peg_2","227","227","0","[[3,1,0],[2,0],[0]]","2","[[3,0,0],[2,1],[0]]","9","0","","","","","","3","","","","","","","","",""
"","","","","","single-stim-button","134","341142","0.0-2.0-37.2-0.2","63d431741930507f67d6c9ec","E1","batch5","","317","tol_tohand","","","","tol_peg_1","317","317","0","[[3,0,0],[2,0],[0]]","3","[[3,0,0],[2,1],[0]]","9","0","","","","","","3","","","","","","","","",""
"","","","","","single-stim-button","135","341461","0.0-2.0-37.2-1.2","63d431741930507f67d6c9ec","E1","batch5","","319","tol_toboard","","","","tol_peg_2","319","319","0","[[3,0,0],[2,1],[0]]","3","[[3,0,0],[2,1],[0]]","9","0","","","","","","3","","","","","","","","",""
"","","","","","poldrack-single-stim","136","342462","0.0-2.0-38.0","63d431741930507f67d6c9ec","E1","batch5","","-1","tol_feedback","","","true","","1000","1000","500","","","","","","-1","none","true","2427","3105","","","","","","","","","",""
"","","","","","html-button-response","137","342969","0.0-2.0-39.0","63d431741930507f67d6c9ec","E1","batch5","","506.90000000037253","tol_trial_num","<div class = centerbox><p class = center-block-text>problem <strong>11</strong> out of 25 problems</p></div>","0","","","","","","","","","","","","","","","","","","","","","","","","",""
"","","","","","single-stim-button","138","370674","0.0-2.0-40.0-0.0","63d431741930507f67d6c9ec","E1","batch5","","27705","tol_tohand","","","","tol_peg_1","27705","27705","0","[[1,0,0],[3,0],[0]]","1","[[2,0,0],[1,3],[0]]","10","0","","","","","","6","","","","","","","","",""
"","","","","","single-stim-button","139","371141","0.0-2.0-40.0-1.0","63d431741930507f67d6c9ec","E1","batch5","","466","tol_toboard","","","","tol_peg_2","466","466","0","[[1,0,0],[3,2],[0]]","1","[[2,0,0],[1,3],[0]]","10","0","","","","","","6","","","","","","","","",""
"","","","","","single-stim-button","140","371460","0.0-2.0-40.1-0.1","63d431741930507f67d6c9ec","E1","batch5","","319","tol_tohand","","","","tol_peg_1","319","319","0","[[0,0,0],[3,2],[0]]","2","[[2,0,0],[1,3],[0]]","10","0","","","","","","6","","","","","","","","",""
"","","","","","single-stim-button","141","371800","0.0-2.0-40.1-1.1","63d431741930507f67d6c9ec","E1","batch5","","340","tol_toboard","","","","tol_peg_3","340","340","0","[[0,0,0],[3,2],[1]]","2","[[2,0,0],[1,3],[0]]","10","0","","","","","","6","","","","","","","","",""
"","","","","","single-stim-button","142","372229","0.0-2.0-40.2-0.2","63d431741930507f67d6c9ec","E1","batch5","","429","tol_tohand","","","","tol_peg_2","429","429","0","[[0,0,0],[3,0],[1]]","3","[[2,0,0],[1,3],[0]]","10","0","","","","","","6","","","","","","","","",""
"","","","","","single-stim-button","143","372710","0.0-2.0-40.2-1.2","63d431741930507f67d6c9ec","E1","batch5","","481","tol_toboard","","","","tol_peg_1","481","481","0","[[2,0,0],[3,0],[1]]","3","[[2,0,0],[1,3],[0]]","10","0","","","","","","6","","","","","","","","",""
"","","","","","single-stim-button","144","373847","0.0-2.0-40.3-0.3","63d431741930507f67d6c9ec","E1","batch5","","1136","tol_tohand","","","","tol_peg_2","1136","1136","0","[[2,0,0],[0,0],[1]]","4","[[2,0,0],[1,3],[0]]","10","0","","","","","","6","","","","","","","","",""
"","","","","","single-stim-button","145","374353","0.0-2.0-40.3-1.3","63d431741930507f67d6c9ec","E1","batch5","","506","tol_toboard","","","","tol_peg_1","506","506","0","[[2,3,0],[0,0],[1]]","4","[[2,0,0],[1,3],[0]]","10","0","","","","","","6","","","","","","","","",""
"","","","","","single-stim-button","146","374760","0.0-2.0-40.4-0.4","63d431741930507f67d6c9ec","E1","batch5","","407","tol_tohand","","","","tol_peg_3","407","407","0","[[2,3,0],[0,0],[0]]","5","[[2,0,0],[1,3],[0]]","10","0","","","","","","6","","","","","","","","",""
"","","","","","single-stim-button","147","375003","0.0-2.0-40.4-1.4","63d431741930507f67d6c9ec","E1","batch5","","242","tol_toboard","","","","tol_peg_2","242","242","0","[[2,3,0],[1,0],[0]]","5","[[2,0,0],[1,3],[0]]","10","0","","","","","","6","","","","","","","","",""
"","","","","","single-stim-button","148","375287","0.0-2.0-40.5-0.5","63d431741930507f67d6c9ec","E1","batch5","","284","tol_tohand","","","","tol_peg_1","284","284","0","[[2,0,0],[1,0],[0]]","6","[[2,0,0],[1,3],[0]]","10","0","","","","","","6","","","","","","","","",""
"","","","","","single-stim-button","149","375502","0.0-2.0-40.5-1.5","63d431741930507f67d6c9ec","E1","batch5","","214","tol_toboard","","","","tol_peg_2","214","214","0","[[2,0,0],[1,3],[0]]","6","[[2,0,0],[1,3],[0]]","10","0","","","","","","6","","","","","","","","",""
"","","","","","poldrack-single-stim","150","376509","0.0-2.0-41.0","63d431741930507f67d6c9ec","E1","batch5","","-1","tol_feedback","","","true","","1000","1000","500","","","","","","-1","none","true","27705","30280","","","","","","","","","",""
"","","","","","html-button-response","151","377397","0.0-2.0-42.0","63d431741930507f67d6c9ec","E1","batch5","","887.7999999998137","tol_trial_num","<div class = centerbox><p class = center-block-text>problem <strong>12</strong> out of 25 problems</p></div>","0","","","","","","","","","","","","","","","","","","","","","","","","",""
"","","","","","single-stim-button","152","382155","0.0-2.0-43.0-0.0","63d431741930507f67d6c9ec","E1","batch5","","4758","tol_tohand","","","","tol_peg_1","4758","4758","0","[[1,0,0],[3,0],[0]]","1","[[2,3,0],[0,0],[1]]","11","0","","","","","","4","","","","","","","","",""
"","","","","","single-stim-button","153","382447","0.0-2.0-43.0-1.0","63d431741930507f67d6c9ec","E1","batch5","","292","tol_toboard","","","","tol_peg_2","292","292","0","[[1,0,0],[3,2],[0]]","1","[[2,3,0],[0,0],[1]]","11","0","","","","","","4","","","","","","","","",""
"","","","","","single-stim-button","154","382834","0.0-2.0-43.1-0.1","63d431741930507f67d6c9ec","E1","batch5","","387","tol_tohand","","","","tol_peg_1","387","387","0","[[0,0,0],[3,2],[0]]","2","[[2,3,0],[0,0],[1]]","11","0","","","","","","4","","","","","","","","",""
"","","","","","single-stim-button","155","383402","0.0-2.0-43.1-1.1","63d431741930507f67d6c9ec","E1","batch5","","567","tol_toboard","","","","tol_peg_3","567","567","0","[[0,0,0],[3,2],[1]]","2","[[2,3,0],[0,0],[1]]","11","0","","","","","","4","","","","","","","","",""
"","","","","","single-stim-button","156","383719","0.0-2.0-43.2-0.2","63d431741930507f67d6c9ec","E1","batch5","","316","tol_tohand","","","","tol_peg_2","316","316","0","[[0,0,0],[3,0],[1]]","3","[[2,3,0],[0,0],[1]]","11","0","","","","","","4","","","","","","","","",""
"","","","","","single-stim-button","157","384091","0.0-2.0-43.2-1.2","63d431741930507f67d6c9ec","E1","batch5","","372","tol_toboard","","","","tol_peg_1","372","372","0","[[2,0,0],[3,0],[1]]","3","[[2,3,0],[0,0],[1]]","11","0","","","","","","4","","","","","","","","",""
"","","","","","single-stim-button","158","384443","0.0-2.0-43.3-0.3","63d431741930507f67d6c9ec","E1","batch5","","352","tol_tohand","","","","tol_peg_2","352","352","0","[[2,0,0],[0,0],[1]]","4","[[2,3,0],[0,0],[1]]","11","0","","","","","","4","","","","","","","","",""
"","","","","","single-stim-button","159","384687","0.0-2.0-43.3-1.3","63d431741930507f67d6c9ec","E1","batch5","","244","tol_toboard","","","","tol_peg_1","244","244","0","[[2,3,0],[0,0],[1]]","4","[[2,3,0],[0,0],[1]]","11","0","","","","","","4","","","","","","","","",""
"","","","","","poldrack-single-stim","160","385688","0.0-2.0-44.0","63d431741930507f67d6c9ec","E1","batch5","","-1","tol_feedback","","","true","","1000","1000","500","","","","","","-1","none","true","4758","5813","","","","","","","","","",""
"","","","","","html-button-response","161","386512","0.0-2.0-45.0","63d431741930507f67d6c9ec","E1","batch5","","824","tol_trial_num","<div class = centerbox><p class = center-block-text>problem <strong>13</strong> out of 25 problems</p></div>","0","","","","","","","","","","","","","","","","","","","","","","","","",""
"","","","","","single-stim-button","162","392929","0.0-2.0-46.0-0.0","63d431741930507f67d6c9ec","E1","batch5","","6416","tol_tohand","","","","tol_peg_2","6416","6416","0","[[1,2,0],[0,0],[0]]","1","[[0,0,0],[2,3],[1]]","12","0","","","","","","4","","","","","","","","",""
"","","","","","single-stim-button","163","393350","0.0-2.0-46.0-1.0","63d431741930507f67d6c9ec","E1","batch5","","421","tol_toboard","","","","tol_peg_3","421","421","0","[[1,2,0],[0,0],[3]]","1","[[0,0,0],[2,3],[1]]","12","0","","","","","","4","","","","","","","","",""
"","","","","","single-stim-button","164","393773","0.0-2.0-46.1-0.1","63d431741930507f67d6c9ec","E1","batch5","","422","tol_tohand","","","","tol_peg_1","422","422","0","[[1,0,0],[0,0],[3]]","2","[[0,0,0],[2,3],[1]]","12","0","","","","","","4","","","","","","","","",""
"","","","","","single-stim-button","165","394224","0.0-2.0-46.1-1.1","63d431741930507f67d6c9ec","E1","batch5","","451","tol_toboard","","","","tol_peg_2","451","451","0","[[1,0,0],[2,0],[3]]","2","[[0,0,0],[2,3],[1]]","12","0","","","","","","4","","","","","","","","",""
"","","","","","single-stim-button","166","394563","0.0-2.0-46.2-0.2","63d431741930507f67d6c9ec","E1","batch5","","339","tol_tohand","","","","tol_peg_3","339","339","0","[[1,0,0],[2,0],[0]]","3","[[0,0,0],[2,3],[1]]","12","0","","","","","","4","","","","","","","","",""
"","","","","","single-stim-button","167","394816","0.0-2.0-46.2-1.2","63d431741930507f67d6c9ec","E1","batch5","","253","tol_toboard","","","","tol_peg_2","253","253","0","[[1,0,0],[2,3],[0]]","3","[[0,0,0],[2,3],[1]]","12","0","","","","","","4","","","","","","","","",""
"","","","","","single-stim-button","168","395120","0.0-2.0-46.3-0.3","63d431741930507f67d6c9ec","E1","batch5","","303","tol_tohand","","","","tol_peg_1","303","303","0","[[0,0,0],[2,3],[0]]","4","[[0,0,0],[2,3],[1]]","12","0","","","","","","4","","","","","","","","",""
"","","","","","single-stim-button","169","395443","0.0-2.0-46.3-1.3","63d431741930507f67d6c9ec","E1","batch5","","323","tol_toboard","","","","tol_peg_3","323","323","0","[[0,0,0],[2,3],[1]]","4","[[0,0,0],[2,3],[1]]","12","0","","","","","","4","","","","","","","","",""
"","","","","","poldrack-single-stim","170","396458","0.0-2.0-47.0","63d431741930507f67d6c9ec","E1","batch5","","-1","tol_feedback","","","true","","1000","1000","500","","","","","","-1","none","true","6416","7480","","","","","","","","","",""
"","","","","","html-button-response","171","398585","0.0-2.0-48.0","63d431741930507f67d6c9ec","E1","batch5","","2125.7999999998137","attention_check","<p class = block-text>How many balls are in your board<br></p>","1","true","","","","","","","","","","","","","","","","","","","","","","","",""
"","","","","","html-button-response","172","399978","0.0-2.0-49.0","63d431741930507f67d6c9ec","E1","batch5","","1392.8999999994412","tol_trial_num","<div class = centerbox><p class = center-block-text>problem <strong>14</strong> out of 25 problems</p></div>","0","","","","","","","","","","","","","","","","","","","","","","","","",""
"","","","","","single-stim-button","173","405866","0.0-2.0-50.0-0.0","63d431741930507f67d6c9ec","E1","batch5","","5887","tol_tohand","","","","tol_peg_1","5887","5887","0","[[2,0,0],[3,0],[0]]","1","[[1,2,0],[3,0],[0]]","13","0","","","","","","4","","","","","","","","",""
"","","","","","single-stim-button","174","406247","0.0-2.0-50.0-1.0","63d431741930507f67d6c9ec","E1","batch5","","381","tol_toboard","","","","tol_peg_2","381","381","0","[[2,0,0],[3,1],[0]]","1","[[1,2,0],[3,0],[0]]","13","0","","","","","","4","","","","","","","","",""
"","","","","","single-stim-button","175","406587","0.0-2.0-50.1-0.1","63d431741930507f67d6c9ec","E1","batch5","","340","tol_tohand","","","","tol_peg_1","340","340","0","[[0,0,0],[3,1],[0]]","2","[[1,2,0],[3,0],[0]]","13","0","","","","","","4","","","","","","","","",""
"","","","","","single-stim-button","176","407137","0.0-2.0-50.1-1.1","63d431741930507f67d6c9ec","E1","batch5","","550","tol_toboard","","","","tol_peg_3","550","550","0","[[0,0,0],[3,1],[2]]","2","[[1,2,0],[3,0],[0]]","13","0","","","","","","4","","","","","","","","",""
"","","","","","single-stim-button","177","407441","0.0-2.0-50.2-0.2","63d431741930507f67d6c9ec","E1","batch5","","304","tol_tohand","","","","tol_peg_2","304","304","0","[[0,0,0],[3,0],[2]]","3","[[1,2,0],[3,0],[0]]","13","0","","","","","","4","","","","","","","","",""
"","","","","","single-stim-button","178","407735","0.0-2.0-50.2-1.2","63d431741930507f67d6c9ec","E1","batch5","","294","tol_toboard","","","","tol_peg_1","294","294","0","[[1,0,0],[3,0],[2]]","3","[[1,2,0],[3,0],[0]]","13","0","","","","","","4","","","","","","","","",""
"","","","","","single-stim-button","179","408135","0.0-2.0-50.3-0.3","63d431741930507f67d6c9ec","E1","batch5","","399","tol_tohand","","","","tol_peg_3","399","399","0","[[1,0,0],[3,0],[0]]","4","[[1,2,0],[3,0],[0]]","13","0","","","","","","4","","","","","","","","",""
"","","","","","single-stim-button","180","408568","0.0-2.0-50.3-1.3","63d431741930507f67d6c9ec","E1","batch5","","432","tol_toboard","","","","tol_peg_1","432","432","0","[[1,2,0],[3,0],[0]]","4","[[1,2,0],[3,0],[0]]","13","0","","","","","","4","","","","","","","","",""
"","","","","","poldrack-single-stim","181","409584","0.0-2.0-51.0","63d431741930507f67d6c9ec","E1","batch5","","-1","tol_feedback","","","true","","1000","1000","500","","","","","","-1","none","true","5887","6930","","","","","","","","","",""
"","","","","","html-button-response","182","410126","0.0-2.0-52.0","63d431741930507f67d6c9ec","E1","batch5","","541.9000000003725","tol_trial_num","<div class = centerbox><p class = center-block-text>problem <strong>15</strong> out of 25 problems</p></div>","0","","","","","","","","","","","","","","","","","","","","","","","","",""
"","","","","","single-stim-button","183","413577","0.0-2.0-53.0-0.0","63d431741930507f67d6c9ec","E1","batch5","","3451","tol_tohand","","","","tol_peg_1","3451","3451","0","[[1,0,0],[3,0],[0]]","1","[[2,0,0],[3,0],[1]]","14","0","","","","","","3","","","","","","","","",""
"","","","","","single-stim-button","184","414311","0.0-2.0-53.0-1.0","63d431741930507f67d6c9ec","E1","batch5","","734","tol_toboard","","","","tol_peg_2","734","734","0","[[1,0,0],[3,2],[0]]","1","[[2,0,0],[3,0],[1]]","14","0","","","","","","3","","","","","","","","",""
"","","","","","single-stim-button","185","414657","0.0-2.0-53.1-0.1","63d431741930507f67d6c9ec","E1","batch5","","345","tol_tohand","","","","tol_peg_1","345","345","0","[[0,0,0],[3,2],[0]]","2","[[2,0,0],[3,0],[1]]","14","0","","","","","","3","","","","","","","","",""
"","","","","","single-stim-button","186","415053","0.0-2.0-53.1-1.1","63d431741930507f67d6c9ec","E1","batch5","","396","tol_toboard","","","","tol_peg_3","396","396","0","[[0,0,0],[3,2],[1]]","2","[[2,0,0],[3,0],[1]]","14","0","","","","","","3","","","","","","","","",""
"","","","","","single-stim-button","187","415320","0.0-2.0-53.2-0.2","63d431741930507f67d6c9ec","E1","batch5","","267","tol_tohand","","","","tol_peg_2","267","267","0","[[0,0,0],[3,0],[1]]","3","[[2,0,0],[3,0],[1]]","14","0","","","","","","3","","","","","","","","",""
"","","","","","single-stim-button","188","415653","0.0-2.0-53.2-1.2","63d431741930507f67d6c9ec","E1","batch5","","333","tol_toboard","","","","tol_peg_1","333","333","0","[[2,0,0],[3,0],[1]]","3","[[2,0,0],[3,0],[1]]","14","0","","","","","","3","","","","","","","","",""
"","","","","","poldrack-single-stim","189","416655","0.0-2.0-54.0","63d431741930507f67d6c9ec","E1","batch5","","-1","tol_feedback","","","true","","1000","1000","500","","","","","","-1","none","true","3451","4063","","","","","","","","","",""
"","","","","","html-button-response","190","417270","0.0-2.0-55.0","63d431741930507f67d6c9ec","E1","batch5","","614.2999999998137","tol_trial_num","<div class = centerbox><p class = center-block-text>problem <strong>16</strong> out of 25 problems</p></div>","0","","","","","","","","","","","","","","","","","","","","","","","","",""
"","","","","","single-stim-button","191","426891","0.0-2.0-56.0-0.0","63d431741930507f67d6c9ec","E1","batch5","","9621","tol_tohand","","","","tol_peg_2","9621","9621","0","[[0,0,0],[2,0],[1]]","1","[[2,3,0],[1,0],[0]]","15","0","","","","","","7","","","","","","","","",""
"","","","","","single-stim-button","192","427320","0.0-2.0-56.0-1.0","63d431741930507f67d6c9ec","E1","batch5","","429","tol_toboard","","","","tol_peg_1","429","429","0","[[3,0,0],[2,0],[1]]","1","[[2,3,0],[1,0],[0]]","15","0","","","","","","7","","","","","","","","",""
"","","","","","single-stim-button","193","427594","0.0-2.0-56.1-0.1","63d431741930507f67d6c9ec","E1","batch5","","274","tol_tohand","","","","tol_peg_2","274","274","0","[[3,0,0],[0,0],[1]]","2","[[2,3,0],[1,0],[0]]","15","0","","","","","","7","","","","","","","","",""
"","","","","","single-stim-button","194","427831","0.0-2.0-56.1-1.1","63d431741930507f67d6c9ec","E1","batch5","","237","tol_toboard","","","","tol_peg_1","237","237","0","[[3,2,0],[0,0],[1]]","2","[[2,3,0],[1,0],[0]]","15","0","","","","","","7","","","","","","","","",""
"","","","","","single-stim-button","195","428176","0.0-2.0-56.2-0.2","63d431741930507f67d6c9ec","E1","batch5","","345","tol_tohand","","","","tol_peg_3","345","345","0","[[3,2,0],[0,0],[0]]","3","[[2,3,0],[1,0],[0]]","15","0","","","","","","7","","","","","","","","",""
"","","","","","single-stim-button","196","428416","0.0-2.0-56.2-1.2","63d431741930507f67d6c9ec","E1","batch5","","240","tol_toboard","","","","tol_peg_2","240","240","0","[[3,2,0],[1,0],[0]]","3","[[2,3,0],[1,0],[0]]","15","0","","","","","","7","","","","","","","","",""
"","","","","","single-stim-button","197","428753","0.0-2.0-56.3-0.3","63d431741930507f67d6c9ec","E1","batch5","","337","tol_tohand","","","","tol_peg_1","337","337","0","[[3,0,0],[1,0],[0]]","4","[[2,3,0],[1,0],[0]]","15","0","","","","","","7","","","","","","","","",""
"","","","","","single-stim-button","198","429314","0.0-2.0-56.3-1.3","63d431741930507f67d6c9ec","E1","batch5","","560","tol_toboard","","","","tol_peg_3","560","560","0","[[3,0,0],[1,0],[2]]","4","[[2,3,0],[1,0],[0]]","15","0","","","","","","7","","","","","","","","",""
"","","","","","single-stim-button","199","429662","0.0-2.0-56.4-0.4","63d431741930507f67d6c9ec","E1","batch5","","347","tol_tohand","","","","tol_peg_1","347","347","0","[[0,0,0],[1,0],[2]]","5","[[2,3,0],[1,0],[0]]","15","0","","","","","","7","","","","","","","","",""
"","","","","","single-stim-button","200","429924","0.0-2.0-56.4-1.4","63d431741930507f67d6c9ec","E1","batch5","","262","tol_toboard","","","","tol_peg_2","262","262","0","[[0,0,0],[1,3],[2]]","5","[[2,3,0],[1,0],[0]]","15","0","","","","","","7","","","","","","","","",""
"","","","","","single-stim-button","201","430203","0.0-2.0-56.5-0.5","63d431741930507f67d6c9ec","E1","batch5","","279","tol_tohand","","","","tol_peg_3","279","279","0","[[0,0,0],[1,3],[0]]","6","[[2,3,0],[1,0],[0]]","15","0","","","","","","7","","","","","","","","",""
"","","","","","single-stim-button","202","430496","0.0-2.0-56.5-1.5","63d431741930507f67d6c9ec","E1","batch5","","293","tol_toboard","","","","tol_peg_1","293","293","0","[[2,0,0],[1,3],[0]]","6","[[2,3,0],[1,0],[0]]","15","0","","","","","","7","","","","","","","","",""
"","","","","","single-stim-button","203","430745","0.0-2.0-56.6-0.6","63d431741930507f67d6c9ec","E1","batch5","","248","tol_tohand","","","","tol_peg_2","248","248","0","[[2,0,0],[1,0],[0]]","7","[[2,3,0],[1,0],[0]]","15","0","","","","","","7","","","","","","","","",""
"","","","","","single-stim-button","204","430945","0.0-2.0-56.6-1.6","63d431741930507f67d6c9ec","E1","batch5","","200","tol_toboard","","","","tol_peg_1","200","200","0","[[2,3,0],[1,0],[0]]","7","[[2,3,0],[1,0],[0]]","15","0","","","","","","7","","","","","","","","",""
"","","","","","poldrack-single-stim","205","431960","0.0-2.0-57.0","63d431741930507f67d6c9ec","E1","batch5","","-1","tol_feedback","","","true","","1000","1000","500","","","","","","-1","none","true","9621","11451","","","","","","","","","",""
"","","","","","html-button-response","206","432468","0.0-2.0-58.0","63d431741930507f67d6c9ec","E1","batch5","","508","tol_trial_num","<div class = centerbox><p class = center-block-text>problem <strong>17</strong> out of 25 problems</p></div>","0","","","","","","","","","","","","","","","","","","","","","","","","",""
"","","","","","single-stim-button","207","441271","0.0-2.0-59.0-0.0","63d431741930507f67d6c9ec","E1","batch5","","8803","tol_tohand","","","","tol_peg_2","8803","8803","0","[[1,2,0],[0,0],[0]]","1","[[3,1,0],[2,0],[0]]","16","0","","","","","","5","","","","","","","","",""
"","","","","","single-stim-button","208","442116","0.0-2.0-59.0-1.0","63d431741930507f67d6c9ec","E1","batch5","","845","tol_toboard","","","","tol_peg_3","845","845","0","[[1,2,0],[0,0],[3]]","1","[[3,1,0],[2,0],[0]]","16","0","","","","","","5","","","","","","","","",""
"","","","","","single-stim-button","209","442532","0.0-2.0-59.1-0.1","63d431741930507f67d6c9ec","E1","batch5","","416","tol_tohand","","","","tol_peg_1","416","416","0","[[1,0,0],[0,0],[3]]","2","[[3,1,0],[2,0],[0]]","16","0","","","","","","5","","","","","","","","",""
"","","","","","single-stim-button","210","442874","0.0-2.0-59.1-1.1","63d431741930507f67d6c9ec","E1","batch5","","342","tol_toboard","","","","tol_peg_2","342","342","0","[[1,0,0],[2,0],[3]]","2","[[3,1,0],[2,0],[0]]","16","0","","","","","","5","","","","","","","","",""
"","","","","","single-stim-button","211","444868","0.0-2.0-59.2-0.2","63d431741930507f67d6c9ec","E1","batch5","","1993","tol_tohand","","","","tol_peg_1","1993","1993","0","[[0,0,0],[2,0],[3]]","3","[[3,1,0],[2,0],[0]]","16","0","","","","","","5","","","","","","","","",""
"","","","","","single-stim-button","212","445691","0.0-2.0-59.2-1.2","63d431741930507f67d6c9ec","E1","batch5","","822","tol_toboard","","","","tol_peg_2","822","822","0","[[0,0,0],[2,1],[3]]","3","[[3,1,0],[2,0],[0]]","16","0","","","","","","5","","","","","","","","",""
"","","","","","single-stim-button","213","445994","0.0-2.0-59.3-0.3","63d431741930507f67d6c9ec","E1","batch5","","302","tol_tohand","","","","tol_peg_3","302","302","0","[[0,0,0],[2,1],[0]]","4","[[3,1,0],[2,0],[0]]","16","0","","","","","","5","","","","","","","","",""
"","","","","","single-stim-button","214","446277","0.0-2.0-59.3-1.3","63d431741930507f67d6c9ec","E1","batch5","","282","tol_toboard","","","","tol_peg_1","282","282","0","[[3,0,0],[2,1],[0]]","4","[[3,1,0],[2,0],[0]]","16","0","","","","","","5","","","","","","","","",""
"","","","","","single-stim-button","215","446546","0.0-2.0-59.4-0.4","63d431741930507f67d6c9ec","E1","batch5","","269","tol_tohand","","","","tol_peg_2","269","269","0","[[3,0,0],[2,0],[0]]","5","[[3,1,0],[2,0],[0]]","16","0","","","","","","5","","","","","","","","",""
"","","","","","single-stim-button","216","446776","0.0-2.0-59.4-1.4","63d431741930507f67d6c9ec","E1","batch5","","229","tol_toboard","","","","tol_peg_1","229","229","0","[[3,1,0],[2,0],[0]]","5","[[3,1,0],[2,0],[0]]","16","0","","","","","","5","","","","","","","","",""
"","","","","","poldrack-single-stim","217","447778","0.0-2.0-60.0","63d431741930507f67d6c9ec","E1","batch5","","-1","tol_feedback","","","true","","1000","1000","500","","","","","","-1","none","true","8803","11783","","","","","","","","","",""
"","","","","","html-button-response","218","448568","0.0-2.0-61.0","63d431741930507f67d6c9ec","E1","batch5","","789.7000000001863","tol_trial_num","<div class = centerbox><p class = center-block-text>problem <strong>18</strong> out of 25 problems</p></div>","0","","","","","","","","","","","","","","","","","","","","","","","","",""
"","","","","","single-stim-button","219","451114","0.0-2.0-62.0-0.0","63d431741930507f67d6c9ec","E1","batch5","","2546","tol_tohand","","","","tol_peg_1","2546","2546","0","[[1,0,0],[3,0],[0]]","1","[[3,0,0],[2,0],[1]]","17","0","","","","","","5","","","","","","","","",""
"","","","","","single-stim-button","220","451598","0.0-2.0-62.0-1.0","63d431741930507f67d6c9ec","E1","batch5","","484","tol_toboard","","","","tol_peg_2","484","484","0","[[1,0,0],[3,2],[0]]","1","[[3,0,0],[2,0],[1]]","17","0","","","","","","5","","","","","","","","",""
"","","","","","single-stim-button","221","451894","0.0-2.0-62.1-0.1","63d431741930507f67d6c9ec","E1","batch5","","296","tol_tohand","","","","tol_peg_1","296","296","0","[[0,0,0],[3,2],[0]]","2","[[3,0,0],[2,0],[1]]","17","0","","","","","","5","","","","","","","","",""
"","","","","","single-stim-button","222","453570","0.0-2.0-62.1-1.1","63d431741930507f67d6c9ec","E1","batch5","","1675","tol_toboard","","","","tol_peg_3","1675","1675","0","[[0,0,0],[3,2],[1]]","2","[[3,0,0],[2,0],[1]]","17","0","","","","","","5","","","","","","","","",""
"","","","","","single-stim-button","223","454136","0.0-2.0-62.2-0.2","63d431741930507f67d6c9ec","E1","batch5","","566","tol_tohand","","","","tol_peg_2","566","566","0","[[0,0,0],[3,0],[1]]","3","[[3,0,0],[2,0],[1]]","17","0","","","","","","5","","","","","","","","",""
"","","","","","single-stim-button","224","456633","0.0-2.0-62.2-1.2","63d431741930507f67d6c9ec","E1","batch5","","2497","tol_toboard","","","","tol_peg_2","2497","2497","0","[[0,0,0],[3,2],[1]]","3","[[3,0,0],[2,0],[1]]","17","0","","","","","","5","","","","","","","","",""
"","","","","","single-stim-button","225","459776","0.0-2.0-62.3-0.3","63d431741930507f67d6c9ec","E1","batch5","","3142","tol_tohand","","","","tol_peg_3","3142","3142","0","[[0,0,0],[3,2],[0]]","4","[[3,0,0],[2,0],[1]]","17","0","","","","","","5","","","","","","","","",""
"","","","","","single-stim-button","226","460172","0.0-2.0-62.3-1.3","63d431741930507f67d6c9ec","E1","batch5","","395","tol_toboard","","","","tol_peg_1","395","395","0","[[1,0,0],[3,2],[0]]","4","[[3,0,0],[2,0],[1]]","17","0","","","","","","5","","","","","","","","",""
"","","","","","single-stim-button","227","460421","0.0-2.0-62.4-0.4","63d431741930507f67d6c9ec","E1","batch5","","249","tol_tohand","","","","tol_peg_2","249","249","0","[[1,0,0],[3,0],[0]]","5","[[3,0,0],[2,0],[1]]","17","0","","","","","","5","","","","","","","","",""
"","","","","","single-stim-button","228","460701","0.0-2.0-62.4-1.4","63d431741930507f67d6c9ec","E1","batch5","","279","tol_toboard","","","","tol_peg_3","279","279","0","[[1,0,0],[3,0],[2]]","5","[[3,0,0],[2,0],[1]]","17","0","","","","","","5","","","","","","","","",""
"","","","","","single-stim-button","229","462129","0.0-2.0-62.5-0.5","63d431741930507f67d6c9ec","E1","batch5","","1428","tol_tohand","","","","tol_peg_2","1428","1428","0","[[1,0,0],[0,0],[2]]","6","[[3,0,0],[2,0],[1]]","17","0","","","","","","5","","","","","","","","",""
"","","","","","single-stim-button","230","464567","0.0-2.0-62.5-1.5","63d431741930507f67d6c9ec","E1","batch5","","2438","tol_toboard","","","","tol_peg_1","2438","2438","0","[[1,3,0],[0,0],[2]]","6","[[3,0,0],[2,0],[1]]","17","0","","","","","","5","","","","","","","","",""
"","","","","","single-stim-button","231","464868","0.0-2.0-62.6-0.6","63d431741930507f67d6c9ec","E1","batch5","","301","tol_tohand","","","","tol_peg_3","301","301","0","[[1,3,0],[0,0],[0]]","7","[[3,0,0],[2,0],[1]]","17","0","","","","","","5","","","","","","","","",""
"","","","","","single-stim-button","232","465092","0.0-2.0-62.6-1.6","63d431741930507f67d6c9ec","E1","batch5","","224","tol_toboard","","","","tol_peg_2","224","224","0","[[1,3,0],[2,0],[0]]","7","[[3,0,0],[2,0],[1]]","17","0","","","","","","5","","","","","","","","",""
"","","","","","single-stim-button","233","465371","0.0-2.0-62.7-0.7","63d431741930507f67d6c9ec","E1","batch5","","278","tol_tohand","","","","tol_peg_1","278","278","0","[[1,0,0],[2,0],[0]]","8","[[3,0,0],[2,0],[1]]","17","0","","","","","","5","","","","","","","","",""
"","","","","","single-stim-button","234","465592","0.0-2.0-62.7-1.7","63d431741930507f67d6c9ec","E1","batch5","","221","tol_toboard","","","","tol_peg_2","221","221","0","[[1,0,0],[2,3],[0]]","8","[[3,0,0],[2,0],[1]]","17","0","","","","","","5","","","","","","","","",""
"","","","","","single-stim-button","235","465905","0.0-2.0-62.8-0.8","63d431741930507f67d6c9ec","E1","batch5","","312","tol_tohand","","","","tol_peg_1","312","312","0","[[0,0,0],[2,3],[0]]","9","[[3,0,0],[2,0],[1]]","17","0","","","","","","5","","","","","","","","",""
"","","","","","single-stim-button","236","466183","0.0-2.0-62.8-1.8","63d431741930507f67d6c9ec","E1","batch5","","278","tol_toboard","","","","tol_peg_3","278","278","0","[[0,0,0],[2,3],[1]]","9","[[3,0,0],[2,0],[1]]","17","0","","","","","","5","","","","","","","","",""
"","","","","","single-stim-button","237","466492","0.0-2.0-62.9-0.9","63d431741930507f67d6c9ec","E1","batch5","","308","tol_tohand","","","","tol_peg_2","308","308","0","[[0,0,0],[2,0],[1]]","10","[[3,0,0],[2,0],[1]]","17","0","","","","","","5","","","","","","","","",""
"","","","","","single-stim-button","238","467176","0.0-2.0-62.9-1.9","63d431741930507f67d6c9ec","E1","batch5","","683","tol_toboard","","","","tol_peg_1","683","683","0","[[3,0,0],[2,0],[1]]","10","[[3,0,0],[2,0],[1]]","17","0","","","","","","5","","","","","","","","",""
"","","","","","poldrack-single-stim","239","468192","0.0-2.0-63.0","63d431741930507f67d6c9ec","E1","batch5","","-1","tol_feedback","","","true","","1000","1000","500","","","","","","-1","none","true","2546","9426","","","","","","","","","",""
"","","","","","html-button-response","240","468737","0.0-2.0-64.0","63d431741930507f67d6c9ec","E1","batch5","","544.7999999998137","tol_trial_num","<div class = centerbox><p class = center-block-text>problem <strong>19</strong> out of 25 problems</p></div>","0","","","","","","","","","","","","","","","","","","","","","","","","",""
"","","","","","single-stim-button","241","486850","0.0-2.0-65.0-0.0","63d431741930507f67d6c9ec","E1","batch5","","18111","tol_tohand","","","","tol_peg_1","18111","18111","0","[[1,0,0],[3,0],[0]]","1","[[0,0,0],[1,2],[3]]","18","0","","","","","","7","","","","","","","","",""
"","","","","","single-stim-button","242","487364","0.0-2.0-65.0-1.0","63d431741930507f67d6c9ec","E1","batch5","","514","tol_toboard","","","","tol_peg_3","514","514","0","[[1,0,0],[3,0],[2]]","1","[[0,0,0],[1,2],[3]]","18","0","","","","","","7","","","","","","","","",""
"","","","","","single-stim-button","243","487794","0.0-2.0-65.1-0.1","63d431741930507f67d6c9ec","E1","batch5","","429","tol_tohand","","","","tol_peg_1","429","429","0","[[0,0,0],[3,0],[2]]","2","[[0,0,0],[1,2],[3]]","18","0","","","","","","7","","","","","","","","",""
"","","","","","single-stim-button","244","488122","0.0-2.0-65.1-1.1","63d431741930507f67d6c9ec","E1","batch5","","328","tol_toboard","","","","tol_peg_2","328","328","0","[[0,0,0],[3,1],[2]]","2","[[0,0,0],[1,2],[3]]","18","0","","","","","","7","","","","","","","","",""
"","","","","","single-stim-button","245","488476","0.0-2.0-65.2-0.2","63d431741930507f67d6c9ec","E1","batch5","","352","tol_tohand","","","","tol_peg_3","352","352","0","[[0,0,0],[3,1],[0]]","3","[[0,0,0],[1,2],[3]]","18","0","","","","","","7","","","","","","","","",""
"","","","","","single-stim-button","246","488835","0.0-2.0-65.2-1.2","63d431741930507f67d6c9ec","E1","batch5","","359","tol_toboard","","","","tol_peg_1","359","359","0","[[2,0,0],[3,1],[0]]","3","[[0,0,0],[1,2],[3]]","18","0","","","","","","7","","","","","","","","",""
"","","","","","single-stim-button","247","489976","0.0-2.0-65.3-0.3","63d431741930507f67d6c9ec","E1","batch5","","1141","tol_tohand","","","","tol_peg_2","1141","1141","0","[[2,0,0],[3,0],[0]]","4","[[0,0,0],[1,2],[3]]","18","0","","","","","","7","","","","","","","","",""
"","","","","","single-stim-button","248","490618","0.0-2.0-65.3-1.3","63d431741930507f67d6c9ec","E1","batch5","","641","tol_toboard","","","","tol_peg_1","641","641","0","[[2,1,0],[3,0],[0]]","4","[[0,0,0],[1,2],[3]]","18","0","","","","","","7","","","","","","","","",""
"","","","","","single-stim-button","249","490914","0.0-2.0-65.4-0.4","63d431741930507f67d6c9ec","E1","batch5","","295","tol_tohand","","","","tol_peg_2","295","295","0","[[2,1,0],[0,0],[0]]","5","[[0,0,0],[1,2],[3]]","18","0","","","","","","7","","","","","","","","",""
"","","","","","single-stim-button","250","491153","0.0-2.0-65.4-1.4","63d431741930507f67d6c9ec","E1","batch5","","239","tol_toboard","","","","tol_peg_3","239","239","0","[[2,1,0],[0,0],[3]]","5","[[0,0,0],[1,2],[3]]","18","0","","","","","","7","","","","","","","","",""
"","","","","","single-stim-button","251","491456","0.0-2.0-65.5-0.5","63d431741930507f67d6c9ec","E1","batch5","","303","tol_tohand","","","","tol_peg_1","303","303","0","[[2,0,0],[0,0],[3]]","6","[[0,0,0],[1,2],[3]]","18","0","","","","","","7","","","","","","","","",""
"","","","","","single-stim-button","252","491701","0.0-2.0-65.5-1.5","63d431741930507f67d6c9ec","E1","batch5","","245","tol_toboard","","","","tol_peg_2","245","245","0","[[2,0,0],[1,0],[3]]","6","[[0,0,0],[1,2],[3]]","18","0","","","","","","7","","","","","","","","",""
"","","","","","single-stim-button","253","491938","0.0-2.0-65.6-0.6","63d431741930507f67d6c9ec","E1","batch5","","236","tol_tohand","","","","tol_peg_1","236","236","0","[[0,0,0],[1,0],[3]]","7","[[0,0,0],[1,2],[3]]","18","0","","","","","","7","","","","","","","","",""
"","","","","","single-stim-button","254","492190","0.0-2.0-65.6-1.6","63d431741930507f67d6c9ec","E1","batch5","","252","tol_toboard","","","","tol_peg_2","252","252","0","[[0,0,0],[1,2],[3]]","7","[[0,0,0],[1,2],[3]]","18","0","","","","","","7","","","","","","","","",""
"","","","","","poldrack-single-stim","255","493191","0.0-2.0-66.0","63d431741930507f67d6c9ec","E1","batch5","","-1","tol_feedback","","","true","","1000","1000","500","","","","","","-1","none","true","18111","20867","","","","","","","","","",""
"","","","","","html-button-response","256","493908","0.0-2.0-67.0","63d431741930507f67d6c9ec","E1","batch5","","717","tol_trial_num","<div class = centerbox><p class = center-block-text>problem <strong>20</strong> out of 25 problems</p></div>","0","","","","","","","","","","","","","","","","","","","","","","","","",""
"","","","","","single-stim-button","257","496165","0.0-2.0-68.0-0.0","63d431741930507f67d6c9ec","E1","batch5","","2256","tol_tohand","","","","tol_peg_2","2256","2256","0","[[1,2,0],[0,0],[0]]","1","[[2,1,0],[0,0],[3]]","19","0","","","","","","5","","","","","","","","",""
"","","","","","single-stim-button","258","496425","0.0-2.0-68.0-1.0","63d431741930507f67d6c9ec","E1","batch5","","259","tol_toboard","","","","tol_peg_3","259","259","0","[[1,2,0],[0,0],[3]]","1","[[2,1,0],[0,0],[3]]","19","0","","","","","","5","","","","","","","","",""
"","","","","","single-stim-button","259","496770","0.0-2.0-68.1-0.1","63d431741930507f67d6c9ec","E1","batch5","","343","tol_tohand","","","","tol_peg_1","343","343","0","[[1,0,0],[0,0],[3]]","2","[[2,1,0],[0,0],[3]]","19","0","","","","","","5","","","","","","","","",""
"","","","","","single-stim-button","260","497059","0.0-2.0-68.1-1.1","63d431741930507f67d6c9ec","E1","batch5","","289","tol_toboard","","","","tol_peg_2","289","289","0","[[1,0,0],[2,0],[3]]","2","[[2,1,0],[0,0],[3]]","19","0","","","","","","5","","","","","","","","",""
"","","","","","single-stim-button","261","497305","0.0-2.0-68.2-0.2","63d431741930507f67d6c9ec","E1","batch5","","246","tol_tohand","","","","tol_peg_1","246","246","0","[[0,0,0],[2,0],[3]]","3","[[2,1,0],[0,0],[3]]","19","0","","","","","","5","","","","","","","","",""
"","","","","","single-stim-button","262","499716","0.0-2.0-68.2-1.2","63d431741930507f67d6c9ec","E1","batch5","","2409","tol_toboard","","","","tol_peg_1","2409","2409","0","[[1,0,0],[2,0],[3]]","3","[[2,1,0],[0,0],[3]]","19","0","","","","","","5","","","","","","","","",""
"","","","","","single-stim-button","263","503232","0.0-2.0-68.3-0.3","63d431741930507f67d6c9ec","E1","batch5","","3516","tol_tohand","","","","tol_peg_3","3516","3516","0","[[1,0,0],[2,0],[0]]","4","[[2,1,0],[0,0],[3]]","19","0","","","","","","5","","","","","","","","",""
"","","","","","single-stim-button","264","504692","0.0-2.0-68.3-1.3","63d431741930507f67d6c9ec","E1","batch5","","1460","tol_toboard","","","","tol_peg_1","1460","1460","0","[[1,3,0],[2,0],[0]]","4","[[2,1,0],[0,0],[3]]","19","0","","","","","","5","","","","","","","","",""
"","","","","","single-stim-button","265","505004","0.0-2.0-68.4-0.4","63d431741930507f67d6c9ec","E1","batch5","","311","tol_tohand","","","","tol_peg_2","311","311","0","[[1,3,0],[0,0],[0]]","5","[[2,1,0],[0,0],[3]]","19","0","","","","","","5","","","","","","","","",""
"","","","","","single-stim-button","266","505943","0.0-2.0-68.4-1.4","63d431741930507f67d6c9ec","E1","batch5","","939","tol_toboard","","","","tol_peg_3","939","939","0","[[1,3,0],[0,0],[2]]","5","[[2,1,0],[0,0],[3]]","19","0","","","","","","5","","","","","","","","",""
"","","","","","single-stim-button","267","506286","0.0-2.0-68.5-0.5","63d431741930507f67d6c9ec","E1","batch5","","342","tol_tohand","","","","tol_peg_1","342","342","0","[[1,0,0],[0,0],[2]]","6","[[2,1,0],[0,0],[3]]","19","0","","","","","","5","","","","","","","","",""
"","","","","","single-stim-button","268","506587","0.0-2.0-68.5-1.5","63d431741930507f67d6c9ec","E1","batch5","","300","tol_toboard","","","","tol_peg_2","300","300","0","[[1,0,0],[3,0],[2]]","6","[[2,1,0],[0,0],[3]]","19","0","","","","","","5","","","","","","","","",""
"","","","","","single-stim-button","269","506870","0.0-2.0-68.6-0.6","63d431741930507f67d6c9ec","E1","batch5","","283","tol_tohand","","","","tol_peg_1","283","283","0","[[0,0,0],[3,0],[2]]","7","[[2,1,0],[0,0],[3]]","19","0","","","","","","5","","","","","","","","",""
"","","","","","single-stim-button","270","507102","0.0-2.0-68.6-1.6","63d431741930507f67d6c9ec","E1","batch5","","232","tol_toboard","","","","tol_peg_2","232","232","0","[[0,0,0],[3,1],[2]]","7","[[2,1,0],[0,0],[3]]","19","0","","","","","","5","","","","","","","","",""
"","","","","","single-stim-button","271","508759","0.0-2.0-68.7-0.7","63d431741930507f67d6c9ec","E1","batch5","","1655","tol_tohand","","","","tol_peg_3","1655","1655","0","[[0,0,0],[3,1],[0]]","8","[[2,1,0],[0,0],[3]]","19","0","","","","","","5","","","","","","","","",""
"","","","","","single-stim-button","272","509070","0.0-2.0-68.7-1.7","63d431741930507f67d6c9ec","E1","batch5","","311","tol_toboard","","","","tol_peg_1","311","311","0","[[2,0,0],[3,1],[0]]","8","[[2,1,0],[0,0],[3]]","19","0","","","","","","5","","","","","","","","",""
"","","","","","single-stim-button","273","509332","0.0-2.0-68.8-0.8","63d431741930507f67d6c9ec","E1","batch5","","262","tol_tohand","","","","tol_peg_2","262","262","0","[[2,0,0],[3,0],[0]]","9","[[2,1,0],[0,0],[3]]","19","0","","","","","","5","","","","","","","","",""
"","","","","","single-stim-button","274","509552","0.0-2.0-68.8-1.8","63d431741930507f67d6c9ec","E1","batch5","","219","tol_toboard","","","","tol_peg_1","219","219","0","[[2,1,0],[3,0],[0]]","9","[[2,1,0],[0,0],[3]]","19","0","","","","","","5","","","","","","","","",""
"","","","","","single-stim-button","275","510835","0.0-2.0-68.9-0.9","63d431741930507f67d6c9ec","E1","batch5","","1283","tol_tohand","","","","tol_peg_2","1283","1283","0","[[2,1,0],[0,0],[0]]","10","[[2,1,0],[0,0],[3]]","19","0","","","","","","5","","","","","","","","",""
"","","","","","single-stim-button","276","511141","0.0-2.0-68.9-1.9","63d431741930507f67d6c9ec","E1","batch5","","306","tol_toboard","","","","tol_peg_3","306","306","0","[[2,1,0],[0,0],[3]]","10","[[2,1,0],[0,0],[3]]","19","0","","","","","","5","","","","","","","","",""
"","","","","","poldrack-single-stim","277","512149","0.0-2.0-69.0","63d431741930507f67d6c9ec","E1","batch5","","-1","tol_feedback","","","true","","1000","1000","500","","","","","","-1","none","true","2256","10497","","","","","","","","","",""
"","","","","","html-button-response","278","514238","0.0-2.0-70.0","63d431741930507f67d6c9ec","E1","batch5","","2089.2000000001863","tol_trial_num","<div class = centerbox><p class = center-block-text>problem <strong>21</strong> out of 25 problems</p></div>","0","","","","","","","","","","","","","","","","","","","","","","","","",""
"","","","","","single-stim-button","279","549625","0.0-2.0-71.0-0.0","63d431741930507f67d6c9ec","E1","batch5","","35386","tol_tohand","","","","tol_peg_2","35386","35386","0","[[1,2,0],[0,0],[0]]","1","[[3,2,0],[0,0],[1]]","20","0","","","","","","6","","","","","","","","",""
"","","","","","single-stim-button","280","549878","0.0-2.0-71.0-1.0","63d431741930507f67d6c9ec","E1","batch5","","252","tol_toboard","","","","tol_peg_3","252","252","0","[[1,2,0],[0,0],[3]]","1","[[3,2,0],[0,0],[1]]","20","0","","","","","","6","","","","","","","","",""
"","","","","","single-stim-button","281","550279","0.0-2.0-71.1-0.1","63d431741930507f67d6c9ec","E1","batch5","","400","tol_tohand","","","","tol_peg_1","400","400","0","[[1,0,0],[0,0],[3]]","2","[[3,2,0],[0,0],[1]]","20","0","","","","","","6","","","","","","","","",""
"","","","","","single-stim-button","282","550564","0.0-2.0-71.1-1.1","63d431741930507f67d6c9ec","E1","batch5","","285","tol_toboard","","","","tol_peg_2","285","285","0","[[1,0,0],[2,0],[3]]","2","[[3,2,0],[0,0],[1]]","20","0","","","","","","6","","","","","","","","",""
"","","","","","single-stim-button","283","551113","0.0-2.0-71.2-0.2","63d431741930507f67d6c9ec","E1","batch5","","549","tol_tohand","","","","tol_peg_3","549","549","0","[[1,0,0],[2,0],[0]]","3","[[3,2,0],[0,0],[1]]","20","0","","","","","","6","","","","","","","","",""
"","","","","","single-stim-button","284","551372","0.0-2.0-71.2-1.2","63d431741930507f67d6c9ec","E1","batch5","","258","tol_toboard","","","","tol_peg_2","258","258","0","[[1,0,0],[2,3],[0]]","3","[[3,2,0],[0,0],[1]]","20","0","","","","","","6","","","","","","","","",""
"","","","","","single-stim-button","285","552251","0.0-2.0-71.3-0.3","63d431741930507f67d6c9ec","E1","batch5","","878","tol_tohand","","","","tol_peg_1","878","878","0","[[0,0,0],[2,3],[0]]","4","[[3,2,0],[0,0],[1]]","20","0","","","","","","6","","","","","","","","",""
"","","","","","single-stim-button","286","552559","0.0-2.0-71.3-1.3","63d431741930507f67d6c9ec","E1","batch5","","307","tol_toboard","","","","tol_peg_3","307","307","0","[[0,0,0],[2,3],[1]]","4","[[3,2,0],[0,0],[1]]","20","0","","","","","","6","","","","","","","","",""
"","","","","","single-stim-button","287","552856","0.0-2.0-71.4-0.4","63d431741930507f67d6c9ec","E1","batch5","","297","tol_tohand","","","","tol_peg_2","297","297","0","[[0,0,0],[2,0],[1]]","5","[[3,2,0],[0,0],[1]]","20","0","","","","","","6","","","","","","","","",""
"","","","","","single-stim-button","288","553137","0.0-2.0-71.4-1.4","63d431741930507f67d6c9ec","E1","batch5","","280","tol_toboard","","","","tol_peg_1","280","280","0","[[3,0,0],[2,0],[1]]","5","[[3,2,0],[0,0],[1]]","20","0","","","","","","6","","","","","","","","",""
"","","","","","single-stim-button","289","553439","0.0-2.0-71.5-0.5","63d431741930507f67d6c9ec","E1","batch5","","301","tol_tohand","","","","tol_peg_2","301","301","0","[[3,0,0],[0,0],[1]]","6","[[3,2,0],[0,0],[1]]","20","0","","","","","","6","","","","","","","","",""
"","","","","","single-stim-button","290","553670","0.0-2.0-71.5-1.5","63d431741930507f67d6c9ec","E1","batch5","","231","tol_toboard","","","","tol_peg_1","231","231","0","[[3,2,0],[0,0],[1]]","6","[[3,2,0],[0,0],[1]]","20","0","","","","","","6","","","","","","","","",""
"","","","","","poldrack-single-stim","291","554671","0.0-2.0-72.0","63d431741930507f67d6c9ec","E1","batch5","","-1","tol_feedback","","","true","","1000","1000","500","","","","","","-1","none","true","35386","37811","","","","","","","","","",""
"","","","","","html-button-response","292","555202","0.0-2.0-73.0","63d431741930507f67d6c9ec","E1","batch5","","530.6000000005588","tol_trial_num","<div class = centerbox><p class = center-block-text>problem <strong>22</strong> out of 25 problems</p></div>","0","","","","","","","","","","","","","","","","","","","","","","","","",""
"","","","","","single-stim-button","293","567820","0.0-2.0-74.0-0.0","63d431741930507f67d6c9ec","E1","batch5","","12618","tol_tohand","","","","tol_peg_1","12618","12618","0","[[0,0,0],[2,3],[0]]","1","[[0,0,0],[1,2],[3]]","21","0","","","","","","6","","","","","","","","",""
"","","","","","single-stim-button","294","568223","0.0-2.0-74.0-1.0","63d431741930507f67d6c9ec","E1","batch5","","402","tol_toboard","","","","tol_peg_3","402","402","0","[[0,0,0],[2,3],[1]]","1","[[0,0,0],[1,2],[3]]","21","0","","","","","","6","","","","","","","","",""
"","","","","","single-stim-button","295","568526","0.0-2.0-74.1-0.1","63d431741930507f67d6c9ec","E1","batch5","","302","tol_tohand","","","","tol_peg_2","302","302","0","[[0,0,0],[2,0],[1]]","2","[[0,0,0],[1,2],[3]]","21","0","","","","","","6","","","","","","","","",""
"","","","","","single-stim-button","296","568852","0.0-2.0-74.1-1.1","63d431741930507f67d6c9ec","E1","batch5","","325","tol_toboard","","","","tol_peg_1","325","325","0","[[3,0,0],[2,0],[1]]","2","[[0,0,0],[1,2],[3]]","21","0","","","","","","6","","","","","","","","",""
"","","","","","single-stim-button","297","569247","0.0-2.0-74.2-0.2","63d431741930507f67d6c9ec","E1","batch5","","395","tol_tohand","","","","tol_peg_2","395","395","0","[[3,0,0],[0,0],[1]]","3","[[0,0,0],[1,2],[3]]","21","0","","","","","","6","","","","","","","","",""
"","","","","","single-stim-button","298","569620","0.0-2.0-74.2-1.2","63d431741930507f67d6c9ec","E1","batch5","","372","tol_toboard","","","","tol_peg_1","372","372","0","[[3,2,0],[0,0],[1]]","3","[[0,0,0],[1,2],[3]]","21","0","","","","","","6","","","","","","","","",""
"","","","","","single-stim-button","299","569941","0.0-2.0-74.3-0.3","63d431741930507f67d6c9ec","E1","batch5","","320","tol_tohand","","","","tol_peg_3","320","320","0","[[3,2,0],[0,0],[0]]","4","[[0,0,0],[1,2],[3]]","21","0","","","","","","6","","","","","","","","",""
"","","","","","single-stim-button","300","570187","0.0-2.0-74.3-1.3","63d431741930507f67d6c9ec","E1","batch5","","246","tol_toboard","","","","tol_peg_2","246","246","0","[[3,2,0],[1,0],[0]]","4","[[0,0,0],[1,2],[3]]","21","0","","","","","","6","","","","","","","","",""
"","","","","","single-stim-button","301","570525","0.0-2.0-74.4-0.4","63d431741930507f67d6c9ec","E1","batch5","","337","tol_tohand","","","","tol_peg_1","337","337","0","[[3,0,0],[1,0],[0]]","5","[[0,0,0],[1,2],[3]]","21","0","","","","","","6","","","","","","","","",""
"","","","","","single-stim-button","302","570747","0.0-2.0-74.4-1.4","63d431741930507f67d6c9ec","E1","batch5","","220","tol_toboard","","","","tol_peg_2","220","220","0","[[3,0,0],[1,2],[0]]","5","[[0,0,0],[1,2],[3]]","21","0","","","","","","6","","","","","","","","",""
"","","","","","single-stim-button","303","571044","0.0-2.0-74.5-0.5","63d431741930507f67d6c9ec","E1","batch5","","297","tol_tohand","","","","tol_peg_1","297","297","0","[[0,0,0],[1,2],[0]]","6","[[0,0,0],[1,2],[3]]","21","0","","","","","","6","","","","","","","","",""
"","","","","","single-stim-button","304","571288","0.0-2.0-74.5-1.5","63d431741930507f67d6c9ec","E1","batch5","","243","tol_toboard","","","","tol_peg_3","243","243","0","[[0,0,0],[1,2],[3]]","6","[[0,0,0],[1,2],[3]]","21","0","","","","","","6","","","","","","","","",""
"","","","","","poldrack-single-stim","305","572288","0.0-2.0-75.0","63d431741930507f67d6c9ec","E1","batch5","","-1","tol_feedback","","","true","","1000","1000","500","","","","","","-1","none","true","12618","14269","","","","","","","","","",""
"","","","","","html-button-response","306","573043","0.0-2.0-76.0","63d431741930507f67d6c9ec","E1","batch5","","754.0999999996275","tol_trial_num","<div class = centerbox><p class = center-block-text>problem <strong>23</strong> out of 25 problems</p></div>","0","","","","","","","","","","","","","","","","","","","","","","","","",""
"","","","","","single-stim-button","307","576297","0.0-2.0-77.0-0.0","63d431741930507f67d6c9ec","E1","batch5","","3253","tol_tohand","","","","tol_peg_1","3253","3253","0","[[1,0,0],[3,0],[0]]","1","[[1,3,2],[0,0],[0]]","22","0","","","","","","3","","","","","","","","",""
"","","","","","single-stim-button","308","577052","0.0-2.0-77.0-1.0","63d431741930507f67d6c9ec","E1","batch5","","754","tol_toboard","","","","tol_peg_3","754","754","0","[[1,0,0],[3,0],[2]]","1","[[1,3,2],[0,0],[0]]","22","0","","","","","","3","","","","","","","","",""
"","","","","","single-stim-button","309","577288","0.0-2.0-77.1-0.1","63d431741930507f67d6c9ec","E1","batch5","","235","tol_tohand","","","","tol_peg_2","235","235","0","[[1,0,0],[0,0],[2]]","2","[[1,3,2],[0,0],[0]]","22","0","","","","","","3","","","","","","","","",""
"","","","","","single-stim-button","310","577568","0.0-2.0-77.1-1.1","63d431741930507f67d6c9ec","E1","batch5","","279","tol_toboard","","","","tol_peg_1","279","279","0","[[1,3,0],[0,0],[2]]","2","[[1,3,2],[0,0],[0]]","22","0","","","","","","3","","","","","","","","",""
"","","","","","single-stim-button","311","577926","0.0-2.0-77.2-0.2","63d431741930507f67d6c9ec","E1","batch5","","357","tol_tohand","","","","tol_peg_3","357","357","0","[[1,3,0],[0,0],[0]]","3","[[1,3,2],[0,0],[0]]","22","0","","","","","","3","","","","","","","","",""
"","","","","","single-stim-button","312","578681","0.0-2.0-77.2-1.2","63d431741930507f67d6c9ec","E1","batch5","","755","tol_toboard","","","","tol_peg_1","755","755","0","[[1,3,2],[0,0],[0]]","3","[[1,3,2],[0,0],[0]]","22","0","","","","","","3","","","","","","","","",""
"","","","","","poldrack-single-stim","313","579689","0.0-2.0-78.0","63d431741930507f67d6c9ec","E1","batch5","","-1","tol_feedback","","","true","","1000","1000","500","","","","","","-1","none","true","3253","3845","","","","","","","","","",""
"","","","","","html-button-response","314","580528","0.0-2.0-79.0","63d431741930507f67d6c9ec","E1","batch5","","838.7000000001863","tol_trial_num","<div class = centerbox><p class = center-block-text>problem <strong>24</strong> out of 25 problems</p></div>","0","","","","","","","","","","","","","","","","","","","","","","","","",""
"","","","","","single-stim-button","315","597499","0.0-2.0-80.0-0.0","63d431741930507f67d6c9ec","E1","batch5","","16970","tol_tohand","","","","tol_peg_3","16970","16970","0","[[0,0,0],[2,3],[0]]","1","[[2,0,0],[3,0],[1]]","23","0","","","","","","7","","","","","","","","",""
"","","","","","single-stim-button","316","597953","0.0-2.0-80.0-1.0","63d431741930507f67d6c9ec","E1","batch5","","453","tol_toboard","","","","tol_peg_1","453","453","0","[[1,0,0],[2,3],[0]]","1","[[2,0,0],[3,0],[1]]","23","0","","","","","","7","","","","","","","","",""
"","","","","","single-stim-button","317","598383","0.0-2.0-80.1-0.1","63d431741930507f67d6c9ec","E1","batch5","","430","tol_tohand","","","","tol_peg_2","430","430","0","[[1,0,0],[2,0],[0]]","2","[[2,0,0],[3,0],[1]]","23","0","","","","","","7","","","","","","","","",""
"","","","","","single-stim-button","318","598675","0.0-2.0-80.1-1.1","63d431741930507f67d6c9ec","E1","batch5","","292","tol_toboard","","","","tol_peg_3","292","292","0","[[1,0,0],[2,0],[3]]","2","[[2,0,0],[3,0],[1]]","23","0","","","","","","7","","","","","","","","",""
"","","","","","single-stim-button","319","598938","0.0-2.0-80.2-0.2","63d431741930507f67d6c9ec","E1","batch5","","262","tol_tohand","","","","tol_peg_2","262","262","0","[[1,0,0],[0,0],[3]]","3","[[2,0,0],[3,0],[1]]","23","0","","","","","","7","","","","","","","","",""
"","","","","","single-stim-button","320","599222","0.0-2.0-80.2-1.2","63d431741930507f67d6c9ec","E1","batch5","","284","tol_toboard","","","","tol_peg_1","284","284","0","[[1,2,0],[0,0],[3]]","3","[[2,0,0],[3,0],[1]]","23","0","","","","","","7","","","","","","","","",""
"","","","","","single-stim-button","321","599615","0.0-2.0-80.3-0.3","63d431741930507f67d6c9ec","E1","batch5","","391","tol_tohand","","","","tol_peg_3","391","391","0","[[1,2,0],[0,0],[0]]","4","[[2,0,0],[3,0],[1]]","23","0","","","","","","7","","","","","","","","",""
"","","","","","single-stim-button","322","600018","0.0-2.0-80.3-1.3","63d431741930507f67d6c9ec","E1","batch5","","402","tol_toboard","","","","tol_peg_2","402","402","0","[[1,2,0],[3,0],[0]]","4","[[2,0,0],[3,0],[1]]","23","0","","","","","","7","","","","","","","","",""
"","","","","","single-stim-button","323","601125","0.0-2.0-80.4-0.4","63d431741930507f67d6c9ec","E1","batch5","","1107","tol_tohand","","","","tol_peg_1","1107","1107","0","[[1,0,0],[3,0],[0]]","5","[[2,0,0],[3,0],[1]]","23","0","","","","","","7","","","","","","","","",""
"","","","","","single-stim-button","324","601427","0.0-2.0-80.4-1.4","63d431741930507f67d6c9ec","E1","batch5","","302","tol_toboard","","","","tol_peg_2","302","302","0","[[1,0,0],[3,2],[0]]","5","[[2,0,0],[3,0],[1]]","23","0","","","","","","7","","","","","","","","",""
"","","","","","single-stim-button","325","601740","0.0-2.0-80.5-0.5","63d431741930507f67d6c9ec","E1","batch5","","313","tol_tohand","","","","tol_peg_1","313","313","0","[[0,0,0],[3,2],[0]]","6","[[2,0,0],[3,0],[1]]","23","0","","","","","","7","","","","","","","","",""
"","","","","","single-stim-button","326","602005","0.0-2.0-80.5-1.5","63d431741930507f67d6c9ec","E1","batch5","","265","tol_toboard","","","","tol_peg_3","265","265","0","[[0,0,0],[3,2],[1]]","6","[[2,0,0],[3,0],[1]]","23","0","","","","","","7","","","","","","","","",""
"","","","","","single-stim-button","327","602265","0.0-2.0-80.6-0.6","63d431741930507f67d6c9ec","E1","batch5","","260","tol_tohand","","","","tol_peg_2","260","260","0","[[0,0,0],[3,0],[1]]","7","[[2,0,0],[3,0],[1]]","23","0","","","","","","7","","","","","","","","",""
"","","","","","single-stim-button","328","602511","0.0-2.0-80.6-1.6","63d431741930507f67d6c9ec","E1","batch5","","246","tol_toboard","","","","tol_peg_1","246","246","0","[[2,0,0],[3,0],[1]]","7","[[2,0,0],[3,0],[1]]","23","0","","","","","","7","","","","","","","","",""
"","","","","","poldrack-single-stim","329","603514","0.0-2.0-81.0","63d431741930507f67d6c9ec","E1","batch5","","-1","tol_feedback","","","true","","1000","1000","500","","","","","","-1","none","true","16970","19733","","","","","","","","","",""
"","","","","","html-button-response","330","604204","0.0-2.0-82.0","63d431741930507f67d6c9ec","E1","batch5","","689.4000000003725","tol_trial_num","<div class = centerbox><p class = center-block-text>problem <strong>25</strong> out of 25 problems</p></div>","0","","","","","","","","","","","","","","","","","","","","","","","","",""
"","","","","","single-stim-button","331","640629","0.0-2.0-83.0-0.0","63d431741930507f67d6c9ec","E1","batch5","","36425","tol_tohand","","","","tol_peg_2","36425","36425","0","[[1,2,0],[0,0],[0]]","1","[[3,0,0],[1,0],[2]]","24","0","","","","","","7","","","","","","","","",""
"","","","","","single-stim-button","332","644072","0.0-2.0-83.0-1.0","63d431741930507f67d6c9ec","E1","batch5","","3443","tol_toboard","","","","tol_peg_3","3443","3443","0","[[1,2,0],[0,0],[3]]","1","[[3,0,0],[1,0],[2]]","24","0","","","","","","7","","","","","","","","",""
"","","","","","single-stim-button","333","648313","0.0-2.0-83.1-0.1","63d431741930507f67d6c9ec","E1","batch5","","4239","tol_tohand","","","","tol_peg_1","4239","4239","0","[[1,0,0],[0,0],[3]]","2","[[3,0,0],[1,0],[2]]","24","0","","","","","","7","","","","","","","","",""
"","","","","","single-stim-button","334","648721","0.0-2.0-83.1-1.1","63d431741930507f67d6c9ec","E1","batch5","","408","tol_toboard","","","","tol_peg_2","408","408","0","[[1,0,0],[2,0],[3]]","2","[[3,0,0],[1,0],[2]]","24","0","","","","","","7","","","","","","","","",""
"","","","","","single-stim-button","335","648969","0.0-2.0-83.2-0.2","63d431741930507f67d6c9ec","E1","batch5","","248","tol_tohand","","","","tol_peg_1","248","248","0","[[0,0,0],[2,0],[3]]","3","[[3,0,0],[1,0],[2]]","24","0","","","","","","7","","","","","","","","",""
"","","","","","single-stim-button","336","649186","0.0-2.0-83.2-1.2","63d431741930507f67d6c9ec","E1","batch5","","216","tol_toboard","","","","tol_peg_2","216","216","0","[[0,0,0],[2,1],[3]]","3","[[3,0,0],[1,0],[2]]","24","0","","","","","","7","","","","","","","","",""
"","","","","","single-stim-button","337","649449","0.0-2.0-83.3-0.3","63d431741930507f67d6c9ec","E1","batch5","","263","tol_tohand","","","","tol_peg_3","263","263","0","[[0,0,0],[2,1],[0]]","4","[[3,0,0],[1,0],[2]]","24","0","","","","","","7","","","","","","","","",""
"","","","","","single-stim-button","338","649770","0.0-2.0-83.3-1.3","63d431741930507f67d6c9ec","E1","batch5","","320","tol_toboard","","","","tol_peg_1","320","320","0","[[3,0,0],[2,1],[0]]","4","[[3,0,0],[1,0],[2]]","24","0","","","","","","7","","","","","","","","",""
"","","","","","single-stim-button","339","650434","0.0-2.0-83.4-0.4","63d431741930507f67d6c9ec","E1","batch5","","664","tol_tohand","","","","tol_peg_2","664","664","0","[[3,0,0],[2,0],[0]]","5","[[3,0,0],[1,0],[2]]","24","0","","","","","","7","","","","","","","","",""
"","","","","","single-stim-button","340","650674","0.0-2.0-83.4-1.4","63d431741930507f67d6c9ec","E1","batch5","","240","tol_toboard","","","","tol_peg_1","240","240","0","[[3,1,0],[2,0],[0]]","5","[[3,0,0],[1,0],[2]]","24","0","","","","","","7","","","","","","","","",""
"","","","","","single-stim-button","341","651302","0.0-2.0-83.5-0.5","63d431741930507f67d6c9ec","E1","batch5","","628","tol_tohand","","","","tol_peg_2","628","628","0","[[3,1,0],[0,0],[0]]","6","[[3,0,0],[1,0],[2]]","24","0","","","","","","7","","","","","","","","",""
"","","","","","single-stim-button","342","651493","0.0-2.0-83.5-1.5","63d431741930507f67d6c9ec","E1","batch5","","191","tol_toboard","","","","tol_peg_3","191","191","0","[[3,1,0],[0,0],[2]]","6","[[3,0,0],[1,0],[2]]","24","0","","","","","","7","","","","","","","","",""
"","","","","","single-stim-button","343","651903","0.0-2.0-83.6-0.6","63d431741930507f67d6c9ec","E1","batch5","","409","tol_tohand","","","","tol_peg_1","409","409","0","[[3,0,0],[0,0],[2]]","7","[[3,0,0],[1,0],[2]]","24","0","","","","","","7","","","","","","","","",""
"","","","","","single-stim-button","344","652119","0.0-2.0-83.6-1.6","63d431741930507f67d6c9ec","E1","batch5","","216","tol_toboard","","","","tol_peg_2","216","216","0","[[3,0,0],[1,0],[2]]","7","[[3,0,0],[1,0],[2]]","24","0","","","","","","7","","","","","","","","",""
"","","","","","poldrack-single-stim","345","653120","0.0-2.0-84.0","63d431741930507f67d6c9ec","E1","batch5","","-1","tol_feedback","","","true","","1000","1000","500","","","","","","-1","none","true","36425","42876","","","","","","","","","",""
"","","","","","html-button-response","346","654857","0.0-2.0-85.0","63d431741930507f67d6c9ec","E1","batch5","","1736.800000000745","tol-goodbye","<p class= block-text>This concludes the Tower of London Task. Thank you for your responses!<br> Click the button below to continue</p>","0","","","","","","","","","","","","","","","","","","","","","","","","",""
"true","","","","","fullscreen","347","658538","0.0-3.0-0.0","63d431741930507f67d6c9ec","E1","batch5","","","spm_fullscreen","","","","","","","","","","","","","","","","","","","","","","","","","","",""
"","","","","","html-button-response","348","664616","0.0-3.0-1.0","63d431741930507f67d6c9ec","E1","batch5","","6076.799999999814","","<p class = block-text><b>Instructions</b> <br>This is a widely used intelligence test in research. <br>In this test, a figure with a missing piece will be presented.<br>Below the figure are alternative pieces to complete the figure, only one of which is correct.<br> Different figures might involve different principles for obtaining the missing piece<br>Your job is to select the most logical piece to complete the figure.</p>","0","","","","","","","","","","","","","","","","","","","","","","","","",""
"","","","","","html-keyboard-response","349","665417","0.0-3.0-2.0-0.0","63d431741930507f67d6c9ec","E1","batch5","","null","spm_show_trial_num","<p class=block-text>Trial 1 out of 60</p>","null","","","","","","","","","","","","","","","","","","","","","","","","",""
"","","","","","image-button-response","350","669705","0.0-3.0-2.0-1.0","63d431741930507f67d6c9ec","E1","batch5","","4280.300000000745","spm_respsonse","img/question_1_1.jpeg","3","1","","","","","","","","","","","","","","","","mat_01","4","1","4280.300000000745","","","","",""
"","","","","","html-keyboard-response","351","670769","0.0-3.0-2.0-0.1","63d431741930507f67d6c9ec","E1","batch5","","null","spm_show_trial_num","<p class=block-text>Trial 2 out of 60</p>","null","","","","","","","","","","","","","","","","","","","","","","","","",""
"","","","","","image-button-response","352","672943","0.0-3.0-2.0-1.1","63d431741930507f67d6c9ec","E1","batch5","","2173.600000000559","spm_respsonse","img/question_1_2.jpeg","4","1","","","","","","","","","","","","","","","","mat_02","5","1","2173.600000000559","","","","",""
"","","","","","html-keyboard-response","353","673996","0.0-3.0-2.0-0.2","63d431741930507f67d6c9ec","E1","batch5","","null","spm_show_trial_num","<p class=block-text>Trial 3 out of 60</p>","null","","","","","","","","","","","","","","","","","","","","","","","","",""
"","","","","","image-button-response","354","675824","0.0-3.0-2.0-1.2","63d431741930507f67d6c9ec","E1","batch5","","1827.1000000005588","spm_respsonse","img/question_1_3.jpeg","0","1","","","","","","","","","","","","","","","","mat_03","1","1","1827.1000000005588","","","","",""
"","","","","","html-keyboard-response","355","676889","0.0-3.0-2.0-0.3","63d431741930507f67d6c9ec","E1","batch5","","null","spm_show_trial_num","<p class=block-text>Trial 4 out of 60</p>","null","","","","","","","","","","","","","","","","","","","","","","","","",""
