"success","timeout","failed_images","failed_audio","failed_video","trial_type","trial_index","time_elapsed","internal_node_id","subject_id","study_id","session_id","view_history","rt","stimulus","response","task","correct","answer","item","fiar_detect_rt","fiar_detect_correct","total_correct_fiar_detect","post_trial_gap","choices","spm_correct","spm_rt","mouse_click","stim_duration","block_duration","timing_post_trial","current_position","tol_num_moves_made","tol_target","tol_problem_id","tol_rt","key_press","possible_responses","tol_correct","preplanning","tol_rt_per_trial","tol_min_moves"
"true","false","[]","[]","[]","preload","0","982","0.0-0.0","63d4857d5c9e6f18b03027b3","A3","batch1","","","","","","","","","","","","","","","","","","","","","","","","","","","","","",""
"true","","","","","fullscreen","1","22997","0.0-1.0-0.0","63d4857d5c9e6f18b03027b3","A3","batch1","","","","","","","","","","","","","","","","","","","","","","","","","","","","","",""
"true","","","","","fullscreen","2","28537","0.0-2.0-0.0","63d4857d5c9e6f18b03027b3","A3","batch1","","","","","","","","","","","","","","","","","","","","","","","","","","","","","",""
"","","","","","instructions","3","78989","0.0-2.0-1.0-0.0","63d4857d5c9e6f18b03027b3","A3","batch1","[{""page_index"":0,""viewing_time"":17003.19999998808},{""page_index"":1,""viewing_time"":16695.5},{""page_index"":0,""viewing_time"":13724},{""page_index"":1,""viewing_time"":3026.300000011921}]","50449.39999997616","","","","","","","","","","","","","","","","","","","","","","","","","","","",""
"","","","","","html-button-response","4","80109","0.0-2.0-1.0-1.0-0.0","63d4857d5c9e6f18b03027b3","A3","batch1","","1118.800000011921","<p class=block-text> Let's answer a few questions <br>","0","pattern_enter_quiz","","","","","","","","","","","","","","","","","","","","","","","","",""
"","","","","","html-button-response","5","83191","0.0-2.0-1.0-1.0-1.0","63d4857d5c9e6f18b03027b3","A3","batch1","","3079.599999964237","<p class = block-text>True or False: You will have as much time as you want to make each choice. <br></p>","1","pattern_quiz","true","","","","","","","","","","","","","","","","","","","","","","","",""
"","","","","","html-button-response","6","84617","0.0-2.0-1.0-1.0-2.0","63d4857d5c9e6f18b03027b3","A3","batch1","","1423.800000011921","<p class = block-text>Correct! You should make your choice <strong> as fast as you can</strong>.</p>","0","pattern_quiz_feedback","","","","","","","","","","","","","","","","","","","","","","","","",""
"","","","","","html-button-response","7","89309","0.0-2.0-1.0-1.0-3.0","63d4857d5c9e6f18b03027b3","A3","batch1","","4691.199999988079","<p class = block-text>True or False: You will look for 4 pieces in black or white color connected in a row either horizontally, vertically or diagonally. <br></p>","0","pattern_quiz","true","","","","","","","","","","","","","","","","","","","","","","","",""
"","","","","","html-button-response","8","90057","0.0-2.0-1.0-1.0-4.0","63d4857d5c9e6f18b03027b3","A3","batch1","","746.5999999642372","<p class = block-text>Correct! </p>","0","pattern_quiz_feedback","","","","","","","","","","","","","","","","","","","","","","","","",""
"","","","","","html-button-response","9","91871","0.0-2.0-2.0","63d4857d5c9e6f18b03027b3","A3","batch1","","1812","<p class=block-text> Now that you've understood the game, let's do a few practice trials before we start!<br> <br>","0","pattern_enter_practice","","","","","","","","","","","","","","","","","","","","","","","","",""
"","","","","","image-keyboard-response","10","94048","0.0-2.0-3.0-0.0","63d4857d5c9e6f18b03027b3","A3","batch1","","2173.400000035763","stim/prac_yes_20_dia_b1.png","f","pattern_practice","true","f","","","","","","","","","","","","","","","","","","","","","","",""
"","","","","","html-keyboard-response","11","95056","0.0-2.0-3.0-1.0","63d4857d5c9e6f18b03027b3","A3","batch1","","null","<p style=""font-size:30px;color:green;"">Correct!</p>","null","pattern_feedback","","","","","","","","","","","","","","","","","","","","","","","","",""
"","","","","","image-keyboard-response","12","96768","0.0-2.0-3.0-0.1","63d4857d5c9e6f18b03027b3","A3","batch1","","1709.800000011921","stim/prac_yes_18_hor_w1.png","f","pattern_practice","true","f","","","","","","","","","","","","","","","","","","","","","","",""
"","","","","","html-keyboard-response","13","97772","0.0-2.0-3.0-1.1","63d4857d5c9e6f18b03027b3","A3","batch1","","null","<p style=""font-size:30px;color:green;"">Correct!</p>","null","pattern_feedback","","","","","","","","","","","","","","","","","","","","","","","","",""
"","","","","","image-keyboard-response","14","100689","0.0-2.0-3.0-0.2","63d4857d5c9e6f18b03027b3","A3","batch1","","2915.599999964237","stim/prac_no_16_1.png","j","pattern_practice","true","j","","","","","","","","","","","","","","","","","","","","","","",""
"","","","","","html-keyboard-response","15","101715","0.0-2.0-3.0-1.2","63d4857d5c9e6f18b03027b3","A3","batch1","","null","<p style=""font-size:30px;color:green;"">Correct!</p>","null","pattern_feedback","","","","","","","","","","","","","","","","","","","","","","","","",""
"","","","","","image-keyboard-response","16","103635","0.0-2.0-3.0-0.3","63d4857d5c9e6f18b03027b3","A3","batch1","","1918.8999999761581","stim/prac_no_18_1.png","j","pattern_practice","true","j","","","","","","","","","","","","","","","","","","","","","","",""
"","","","","","html-keyboard-response","17","104654","0.0-2.0-3.0-1.3","63d4857d5c9e6f18b03027b3","A3","batch1","","null","<p style=""font-size:30px;color:green;"">Correct!</p>","null","pattern_feedback","","","","","","","","","","","","","","","","","","","","","","","","",""
"","","","","","image-keyboard-response","18","106411","0.0-2.0-3.0-0.4","63d4857d5c9e6f18b03027b3","A3","batch1","","1753.300000011921","stim/prac_yes_16_ver_w1.png","f","pattern_practice","true","f","","","","","","","","","","","","","","","","","","","","","","",""
"","","","","","html-keyboard-response","19","107434","0.0-2.0-3.0-1.4","63d4857d5c9e6f18b03027b3","A3","batch1","","null","<p style=""font-size:30px;color:green;"">Correct!</p>","null","pattern_feedback","","","","","","","","","","","","","","","","","","","","","","","","",""
"","","","","","html-button-response","20","111414","0.0-2.0-4.0","63d4857d5c9e6f18b03027b3","A3","batch1","","3979.100000023842","<p class=block-text> Good job! You are done with practice trials!<br>
        You responded correctly on 100% of the trials.<br>
        Press the button below to start official trials. Now you won't see any feedback about your response</p>","0","pattern_enter_official_trials","","","","","","","","","","","","","","","","","","","","","","","","",""
"","","","","","html-keyboard-response","21","112221","0.0-2.0-5.0-0.0","63d4857d5c9e6f18b03027b3","A3","batch1","","null","<p class=block-text>Trial 1 out of 78</p>","null","pattern_show_trial_num","","","","","","","","","","","","","","","","","","","","","","","","",""
"","","","","","image-keyboard-response","22","114103","0.0-2.0-5.0-1.0","63d4857d5c9e6f18b03027b3","A3","batch1","","1878","stim/yes_36_ver_w1_w.png","f","pattern_response","true","f","pattern_58","1878","true","1","","","","","","","","","","","","","","","","","","",""
"","","","","","html-keyboard-response","23","115417","0.0-2.0-5.0-0.1","63d4857d5c9e6f18b03027b3","A3","batch1","","null","<p class=block-text>Trial 2 out of 78</p>","null","pattern_show_trial_num","","","","","","","","","","","","","","","","","","","","","","","","",""
"","","","","","image-keyboard-response","24","116505","0.0-2.0-5.0-1.1","63d4857d5c9e6f18b03027b3","A3","batch1","","1086.5999999642372","stim/yes_46_ver_b1_b.png","f","pattern_response","true","f","pattern_68","1086.5999999642372","true","2","","","","","","","","","","","","","","","","","","",""
"","","","","","html-keyboard-response","25","117818","0.0-2.0-5.0-0.2","63d4857d5c9e6f18b03027b3","A3","batch1","","null","<p class=block-text>Trial 3 out of 78</p>","null","pattern_show_trial_num","","","","","","","","","","","","","","","","","","","","","","","","",""
"","","","","","image-keyboard-response","26","122834","0.0-2.0-5.0-1.2","63d4857d5c9e6f18b03027b3","A3","batch1","","5025.400000035763","stim/no_58_1_w.png","j","pattern_response","true","j","pattern_35","5025.400000035763","true","3","","","","","","","","","","","","","","","","","","",""
"","","","","","html-keyboard-response","27","124155","0.0-2.0-5.0-0.3","63d4857d5c9e6f18b03027b3","A3","batch1","","null","<p class=block-text>Trial 4 out of 78</p>","null","pattern_show_trial_num","","","","","","","","","","","","","","","","","","","","","","","","",""
"","","","","","image-keyboard-response","28","125241","0.0-2.0-5.0-1.3","63d4857d5c9e6f18b03027b3","A3","batch1","","1084.199999988079","stim/yes_37_hor_w1_w.png","f","pattern_response","true","f","pattern_60","1084.199999988079","true","4","","","","","","","","","","","","","","","","","","",""
"","","","","","html-keyboard-response","29","126556","0.0-2.0-5.0-0.4","63d4857d5c9e6f18b03027b3","A3","batch1","","null","<p class=block-text>Trial 5 out of 78</p>","null","pattern_show_trial_num","","","","","","","","","","","","","","","","","","","","","","","","",""
"","","","","","image-keyboard-response","30","131358","0.0-2.0-5.0-1.4","63d4857d5c9e6f18b03027b3","A3","batch1","","4798.799999952316","stim/no_47_1_b.png","j","pattern_response","true","j","pattern_27","4798.799999952316","true","5","","","","","","","","","","","","","","","","","","",""
"","","","","","html-keyboard-response","31","132673","0.0-2.0-5.0-0.5","63d4857d5c9e6f18b03027b3","A3","batch1","","null","<p class=block-text>Trial 6 out of 78</p>","null","pattern_show_trial_num","","","","","","","","","","","","","","","","","","","","","","","","",""
"","","","","","image-keyboard-response","32","133658","0.0-2.0-5.0-1.5","63d4857d5c9e6f18b03027b3","A3","batch1","","982.1999999880791","stim/no_15_1_w.png","j","pattern_response","true","j","pattern_03","982.1999999880791","true","6","","","","","","","","","","","","","","","","","","",""
"","","","","","html-keyboard-response","33","134972","0.0-2.0-5.0-0.6","63d4857d5c9e6f18b03027b3","A3","batch1","","null","<p class=block-text>Trial 7 out of 78</p>","null","pattern_show_trial_num","","","","","","","","","","","","","","","","","","","","","","","","",""
"","","","","","image-keyboard-response","34","143044","0.0-2.0-5.0-1.6","63d4857d5c9e6f18b03027b3","A3","batch1","","8070.799999952316","stim/yes_63_dia_b1.png","f","pattern_response","true","f","pattern_78","8070.799999952316","true","7","","","","","","","","","","","","","","","","","","",""
"","","","","","html-keyboard-response","35","144373","0.0-2.0-5.0-0.7","63d4857d5c9e6f18b03027b3","A3","batch1","","null","<p class=block-text>Trial 8 out of 78</p>","null","pattern_show_trial_num","","","","","","","","","","","","","","","","","","","","","","","","",""
"","","","","","image-keyboard-response","36","146047","0.0-2.0-5.0-1.7","63d4857d5c9e6f18b03027b3","A3","batch1","","1670.5","stim/yes_44_ver_w1_w.png","f","pattern_response","true","f","pattern_66","1670.5","true","8","","","","","","","","","","","","","","","","","","",""
"","","","","","html-keyboard-response","37","147373","0.0-2.0-5.0-0.8","63d4857d5c9e6f18b03027b3","A3","batch1","","null","<p class=block-text>Trial 9 out of 78</p>","null","pattern_show_trial_num","","","","","","","","","","","","","","","","","","","","","","","","",""
"","","","","","image-keyboard-response","38","155999","0.0-2.0-5.0-1.8","63d4857d5c9e6f18b03027b3","A3","batch1","","8625.100000023842","stim/no_67_1.png","j","pattern_response","true","j","pattern_39","8625.100000023842","true","9","","","","","","","","","","","","","","","","","","",""
"","","","","","html-keyboard-response","39","157321","0.0-2.0-5.0-0.9","63d4857d5c9e6f18b03027b3","A3","batch1","","null","<p class=block-text>Trial 10 out of 78</p>","null","pattern_show_trial_num","","","","","","","","","","","","","","","","","","","","","","","","",""
"","","","","","image-keyboard-response","40","160457","0.0-2.0-5.0-1.9","63d4857d5c9e6f18b03027b3","A3","batch1","","3132.2000000476837","stim/no_51_1.png","j","pattern_response","true","j","pattern_31","3132.2000000476837","true","10","","","","","","","","","","","","","","","","","","",""
"","","","","","html-keyboard-response","41","161773","0.0-2.0-5.0-0.10","63d4857d5c9e6f18b03027b3","A3","batch1","","null","<p class=block-text>Trial 11 out of 78</p>","null","pattern_show_trial_num","","","","","","","","","","","","","","","","","","","","","","","","",""
"","","","","","image-keyboard-response","42","164163","0.0-2.0-5.0-1.10","63d4857d5c9e6f18b03027b3","A3","batch1","","2387","stim/no_28_2.png","j","pattern_response","true","j","pattern_11","2387","true","11","","","","","","","","","","","","","","","","","","",""
"","","","","","html-keyboard-response","43","165489","0.0-2.0-5.0-0.11","63d4857d5c9e6f18b03027b3","A3","batch1","","null","<p class=block-text>Trial 12 out of 78</p>","null","pattern_show_trial_num","","","","","","","","","","","","","","","","","","","","","","","","",""
"","","","","","image-keyboard-response","44","166580","0.0-2.0-5.0-1.11","63d4857d5c9e6f18b03027b3","A3","batch1","","1087.5","stim/yes_29_hor_b1_b.png","f","pattern_response","true","f","pattern_52","1087.5","true","12","","","","","","","","","","","","","","","","","","",""
"","","","","","html-keyboard-response","45","167890","0.0-2.0-5.0-0.12","63d4857d5c9e6f18b03027b3","A3","batch1","","null","<p class=block-text>Trial 13 out of 78</p>","null","pattern_show_trial_num","","","","","","","","","","","","","","","","","","","","","","","","",""
"","","","","","image-keyboard-response","46","169042","0.0-2.0-5.0-1.12","63d4857d5c9e6f18b03027b3","A3","batch1","","1150.300000011921","stim/no_12_1.png","j","pattern_response","true","j","pattern_01","1150.300000011921","true","13","","","","","","","","","","","","","","","","","","",""
"","","","","","html-keyboard-response","47","170357","0.0-2.0-5.0-0.13","63d4857d5c9e6f18b03027b3","A3","batch1","","null","<p class=block-text>Trial 14 out of 78</p>","null","pattern_show_trial_num","","","","","","","","","","","","","","","","","","","","","","","","",""
"","","","","","image-keyboard-response","48","172485","0.0-2.0-5.0-1.13","63d4857d5c9e6f18b03027b3","A3","batch1","","2126.399999976158","stim/no_33_1_b.png","j","pattern_response","true","j","pattern_15","2126.399999976158","true","14","","","","","","","","","","","","","","","","","","",""
"","","","","","html-keyboard-response","49","173806","0.0-2.0-5.0-0.14","63d4857d5c9e6f18b03027b3","A3","batch1","","null","<p class=block-text>Trial 15 out of 78</p>","null","pattern_show_trial_num","","","","","","","","","","","","","","","","","","","","","","","","",""
"","","","","","image-keyboard-response","50","175820","0.0-2.0-5.0-1.14","63d4857d5c9e6f18b03027b3","A3","batch1","","2011","stim/yes_33_dia_w1_w.png","j","pattern_response","false","f","pattern_56","2011","false","14","","","","","","","","","","","","","","","","","","",""
"","","","","","html-keyboard-response","51","177139","0.0-2.0-5.0-0.15","63d4857d5c9e6f18b03027b3","A3","batch1","","null","<p class=block-text>Trial 16 out of 78</p>","null","pattern_show_trial_num","","","","","","","","","","","","","","","","","","","","","","","","",""
"","","","","","image-keyboard-response","52","184482","0.0-2.0-5.0-1.15","63d4857d5c9e6f18b03027b3","A3","batch1","","7340.300000011921","stim/no_37_2_w.png","j","pattern_response","true","j","pattern_19","7340.300000011921","true","15","","","","","","","","","","","","","","","","","","",""
"","","","","","html-keyboard-response","53","185808","0.0-2.0-5.0-0.16","63d4857d5c9e6f18b03027b3","A3","batch1","","null","<p class=block-text>Trial 17 out of 78</p>","null","pattern_show_trial_num","","","","","","","","","","","","","","","","","","","","","","","","",""
"","","","","","image-keyboard-response","54","186802","0.0-2.0-5.0-1.16","63d4857d5c9e6f18b03027b3","A3","batch1","","991.0999999642372","stim/yes_49_hor_w1_b.png","f","pattern_response","true","f","pattern_70","991.0999999642372","true","16","","","","","","","","","","","","","","","","","","",""
"","","","","","html-keyboard-response","55","188124","0.0-2.0-5.0-0.17","63d4857d5c9e6f18b03027b3","A3","batch1","","null","<p class=block-text>Trial 18 out of 78</p>","null","pattern_show_trial_num","","","","","","","","","","","","","","","","","","","","","","","","",""
"","","","","","image-keyboard-response","56","192086","0.0-2.0-5.0-1.17","63d4857d5c9e6f18b03027b3","A3","batch1","","3958.899999976158","stim/no_43_2_b.png","j","pattern_response","true","j","pattern_23","3958.899999976158","true","17","","","","","","","","","","","","","","","","","","",""
"","","","","","html-keyboard-response","57","193406","0.0-2.0-5.0-0.18","63d4857d5c9e6f18b03027b3","A3","batch1","","null","<p class=block-text>Trial 19 out of 78</p>","null","pattern_show_trial_num","","","","","","","","","","","","","","","","","","","","","","","","",""
"","","","","","image-keyboard-response","58","198765","0.0-2.0-5.0-1.18","63d4857d5c9e6f18b03027b3","A3","batch1","","5355.900000035763","stim/no_25_1_b.png","j","pattern_response","true","j","pattern_09","5355.900000035763","true","18","","","","","","","","","","","","","","","","","","",""
"","","","","","html-keyboard-response","59","200087","0.0-2.0-5.0-0.19","63d4857d5c9e6f18b03027b3","A3","batch1","","null","<p class=block-text>Trial 20 out of 78</p>","null","pattern_show_trial_num","","","","","","","","","","","","","","","","","","","","","","","","",""
"","","","","","image-keyboard-response","60","203574","0.0-2.0-5.0-1.19","63d4857d5c9e6f18b03027b3","A3","batch1","","3485.600000023842","stim/no_30_1_b.png","j","pattern_response","true","j","pattern_13","3485.600000023842","true","19","","","","","","","","","","","","","","","","","","",""
"","","","","","html-keyboard-response","61","204890","0.0-2.0-5.0-0.20","63d4857d5c9e6f18b03027b3","A3","batch1","","null","<p class=block-text>Trial 21 out of 78</p>","null","pattern_show_trial_num","","","","","","","","","","","","","","","","","","","","","","","","",""
"","","","","","image-keyboard-response","62","206484","0.0-2.0-5.0-1.20","63d4857d5c9e6f18b03027b3","A3","batch1","","1592.199999988079","stim/yes_23_ver_b1.png","f","pattern_response","true","f","pattern_48","1592.199999988079","true","20","","","","","","","","","","","","","","","","","","",""
"","","","","","html-keyboard-response","63","207807","0.0-2.0-5.0-0.21","63d4857d5c9e6f18b03027b3","A3","batch1","","null","<p class=block-text>Trial 22 out of 78</p>","null","pattern_show_trial_num","","","","","","","","","","","","","","","","","","","","","","","","",""
"","","","","","image-keyboard-response","64","208768","0.0-2.0-5.0-1.21","63d4857d5c9e6f18b03027b3","A3","batch1","","959.5","stim/yes_30_ver_b1_b.png","f","pattern_response","true","f","pattern_54","959.5","true","21","","","","","","","","","","","","","","","","","","",""
"","","","","","html-keyboard-response","65","210091","0.0-2.0-5.0-0.22","63d4857d5c9e6f18b03027b3","A3","batch1","","null","<p class=block-text>Trial 23 out of 78</p>","null","pattern_show_trial_num","","","","","","","","","","","","","","","","","","","","","","","","",""
"","","","","","image-keyboard-response","66","212180","0.0-2.0-5.0-1.22","63d4857d5c9e6f18b03027b3","A3","batch1","","2088.199999988079","stim/no_18_1_b.png","j","pattern_response","true","j","pattern_05","2088.199999988079","true","22","","","","","","","","","","","","","","","","","","",""
"","","","","","html-keyboard-response","67","213506","0.0-2.0-5.0-0.23","63d4857d5c9e6f18b03027b3","A3","batch1","","null","<p class=block-text>Trial 24 out of 78</p>","null","pattern_show_trial_num","","","","","","","","","","","","","","","","","","","","","","","","",""
"","","","","","image-keyboard-response","68","215127","0.0-2.0-5.0-1.23","63d4857d5c9e6f18b03027b3","A3","batch1","","1619.300000011921","stim/yes_26_dia_w2_w.png","f","pattern_response","true","f","pattern_50","1619.300000011921","true","23","","","","","","","","","","","","","","","","","","",""
"","","","","","html-keyboard-response","69","216457","0.0-2.0-5.0-0.24","63d4857d5c9e6f18b03027b3","A3","batch1","","null","<p class=block-text>Trial 25 out of 78</p>","null","pattern_show_trial_num","","","","","","","","","","","","","","","","","","","","","","","","",""
"","","","","","image-keyboard-response","70","219502","0.0-2.0-5.0-1.24","63d4857d5c9e6f18b03027b3","A3","batch1","","3042.5","stim/no_49_2_b.png","j","pattern_response","true","j","pattern_29","3042.5","true","24","","","","","","","","","","","","","","","","","","",""
"","","","","","html-keyboard-response","71","220824","0.0-2.0-5.0-0.25","63d4857d5c9e6f18b03027b3","A3","batch1","","null","<p class=block-text>Trial 26 out of 78</p>","null","pattern_show_trial_num","","","","","","","","","","","","","","","","","","","","","","","","",""
"","","","","","image-keyboard-response","72","221797","0.0-2.0-5.0-1.25","63d4857d5c9e6f18b03027b3","A3","batch1","","969.6999999880791","stim/yes_39_hor_w1_w.png","f","pattern_response","true","f","pattern_62","969.6999999880791","true","25","","","","","","","","","","","","","","","","","","",""
"","","","","","html-keyboard-response","73","223124","0.0-2.0-5.0-0.26","63d4857d5c9e6f18b03027b3","A3","batch1","","null","<p class=block-text>Trial 27 out of 78</p>","null","pattern_show_trial_num","","","","","","","","","","","","","","","","","","","","","","","","",""
"","","","","","image-keyboard-response","74","225999","0.0-2.0-5.0-1.26","63d4857d5c9e6f18b03027b3","A3","batch1","","2872.7999999523163","stim/yes_42_dia_w1_w.png","f","pattern_response","true","f","pattern_64","2872.7999999523163","true","26","","","","","","","","","","","","","","","","","","",""
"","","","","","html-keyboard-response","75","227324","0.0-2.0-5.0-0.27","63d4857d5c9e6f18b03027b3","A3","batch1","","null","<p class=block-text>Trial 28 out of 78</p>","null","pattern_show_trial_num","","","","","","","","","","","","","","","","","","","","","","","","",""
"","","","","","image-keyboard-response","76","231655","0.0-2.0-5.0-1.27","63d4857d5c9e6f18b03027b3","A3","batch1","","4327.800000011921","stim/no_39_1_w.png","j","pattern_response","true","j","pattern_21","4327.800000011921","true","27","","","","","","","","","","","","","","","","","","",""
"","","","","","html-keyboard-response","77","232959","0.0-2.0-5.0-0.28","63d4857d5c9e6f18b03027b3","A3","batch1","","null","<p class=block-text>Trial 29 out of 78</p>","null","pattern_show_trial_num","","","","","","","","","","","","","","","","","","","","","","","","",""
"","","","","","image-keyboard-response","78","234338","0.0-2.0-5.0-1.28","63d4857d5c9e6f18b03027b3","A3","batch1","","1376.5","stim/yes_53_ver_b1_b.png","f","pattern_response","true","f","pattern_74","1376.5","true","28","","","","","","","","","","","","","","","","","","",""
"","","","","","html-keyboard-response","79","235657","0.0-2.0-5.0-0.29","63d4857d5c9e6f18b03027b3","A3","batch1","","null","<p class=block-text>Trial 30 out of 78</p>","null","pattern_show_trial_num","","","","","","","","","","","","","","","","","","","","","","","","",""
"","","","","","image-keyboard-response","80","239798","0.0-2.0-5.0-1.29","63d4857d5c9e6f18b03027b3","A3","batch1","","4138","stim/no_36_1_b.png","j","pattern_response","true","j","pattern_17","4138","true","29","","","","","","","","","","","","","","","","","","",""
"","","","","","html-keyboard-response","81","241121","0.0-2.0-5.0-0.30","63d4857d5c9e6f18b03027b3","A3","batch1","","null","<p class=block-text>Trial 31 out of 78</p>","null","pattern_show_trial_num","","","","","","","","","","","","","","","","","","","","","","","","",""
"","","","","","image-keyboard-response","82","242196","0.0-2.0-5.0-1.30","63d4857d5c9e6f18b03027b3","A3","batch1","","1071.1000000238419","stim/yes_70_ver_b1.png","f","pattern_response","true","f","pattern_80","1071.1000000238419","true","30","","","","","","","","","","","","","","","","","","",""
"","","","","","html-keyboard-response","83","243524","0.0-2.0-5.0-0.31","63d4857d5c9e6f18b03027b3","A3","batch1","","null","<p class=block-text>Trial 32 out of 78</p>","null","pattern_show_trial_num","","","","","","","","","","","","","","","","","","","","","","","","",""
"","","","","","image-keyboard-response","84","248253","0.0-2.0-5.0-1.31","63d4857d5c9e6f18b03027b3","A3","batch1","","4723.099999964237","stim/yes_58_dia_w1_w.png","j","pattern_response","false","f","pattern_76","4723.099999964237","false","30","","","","","","","","","","","","","","","","","","",""
"","","","","","html-keyboard-response","85","249578","0.0-2.0-5.0-0.32","63d4857d5c9e6f18b03027b3","A3","batch1","","null","<p class=block-text>Trial 33 out of 78</p>","null","pattern_show_trial_num","","","","","","","","","","","","","","","","","","","","","","","","",""
"","","","","","image-keyboard-response","86","255273","0.0-2.0-5.0-1.32","63d4857d5c9e6f18b03027b3","A3","batch1","","5691.5","stim/no_45_1_w.png","j","pattern_response","true","j","pattern_25","5691.5","true","31","","","","","","","","","","","","","","","","","","",""
"","","","","","html-keyboard-response","87","256579","0.0-2.0-5.0-0.33","63d4857d5c9e6f18b03027b3","A3","batch1","","null","<p class=block-text>Trial 34 out of 78</p>","null","pattern_show_trial_num","","","","","","","","","","","","","","","","","","","","","","","","",""
"","","","","","image-keyboard-response","88","261490","0.0-2.0-5.0-1.33","63d4857d5c9e6f18b03027b3","A3","batch1","","4908.900000035763","stim/no_53_1_b.png","j","pattern_response","true","j","pattern_33","4908.900000035763","true","32","","","","","","","","","","","","","","","","","","",""
"","","","","","html-keyboard-response","89","262810","0.0-2.0-5.0-0.34","63d4857d5c9e6f18b03027b3","A3","batch1","","null","<p class=block-text>Trial 35 out of 78</p>","null","pattern_show_trial_num","","","","","","","","","","","","","","","","","","","","","","","","",""
"","","","","","image-keyboard-response","90","263835","0.0-2.0-5.0-1.34","63d4857d5c9e6f18b03027b3","A3","batch1","","1022.9000000357628","stim/yes_15_dia_b1u_b.png","f","pattern_response","true","f","pattern_44","1022.9000000357628","true","33","","","","","","","","","","","","","","","","","","",""
"","","","","","html-keyboard-response","91","265155","0.0-2.0-5.0-0.35","63d4857d5c9e6f18b03027b3","A3","batch1","","null","<p class=block-text>Trial 36 out of 78</p>","null","pattern_show_trial_num","","","","","","","","","","","","","","","","","","","","","","","","",""
"","","","","","image-keyboard-response","92","265955","0.0-2.0-5.0-1.35","63d4857d5c9e6f18b03027b3","A3","batch1","","797.3999999761581","stim/yes_17_ver_b1_b.png","f","pattern_response","true","f","pattern_46","797.3999999761581","true","34","","","","","","","","","","","","","","","","","","",""
"","","","","","html-keyboard-response","93","267261","0.0-2.0-5.0-0.36","63d4857d5c9e6f18b03027b3","A3","batch1","","null","<p class=block-text>Trial 37 out of 78</p>","null","pattern_show_trial_num","","","","","","","","","","","","","","","","","","","","","","","","",""
"","","","","","image-keyboard-response","94","270200","0.0-2.0-5.0-1.36","63d4857d5c9e6f18b03027b3","A3","batch1","","2936.900000035763","stim/no_22_1_b.png","j","pattern_response","true","j","pattern_07","2936.900000035763","true","35","","","","","","","","","","","","","","","","","","",""
"","","","","","html-keyboard-response","95","271511","0.0-2.0-5.0-0.37","63d4857d5c9e6f18b03027b3","A3","batch1","","null","<p class=block-text>Trial 38 out of 78</p>","null","pattern_show_trial_num","","","","","","","","","","","","","","","","","","","","","","","","",""
"","","","","","image-keyboard-response","96","278120","0.0-2.0-5.0-1.37","63d4857d5c9e6f18b03027b3","A3","batch1","","6606.400000035763","stim/yes_51_dia_b1.png","j","pattern_response","false","f","pattern_72","6606.400000035763","false","35","","","","","","","","","","","","","","","","","","",""
"","","","","","html-keyboard-response","97","279443","0.0-2.0-5.0-0.38","63d4857d5c9e6f18b03027b3","A3","batch1","","null","<p class=block-text>Trial 39 out of 78</p>","null","pattern_show_trial_num","","","","","","","","","","","","","","","","","","","","","","","","",""
"","","","","","image-keyboard-response","98","280321","0.0-2.0-5.0-1.38","63d4857d5c9e6f18b03027b3","A3","batch1","","875.0999999642372","stim/yes_12_hor_w1_w.png","f","pattern_response","true","f","pattern_42","875.0999999642372","true","36","","","","","","","","","","","","","","","","","","",""
"","","","","","image-keyboard-response","99","283267","0.0-2.0-6.0","63d4857d5c9e6f18b03027b3","A3","batch1","","2434.899999976158","stim/empty_board.png","j","attention_check","true","j","","","","","500","[""f"",""j""]","","","","","","","","","","","","","","","","",""
"","","","","","html-keyboard-response","100","284069","0.0-2.0-7.0-0.0","63d4857d5c9e6f18b03027b3","A3","batch1","","null","<p class=block-text>Trial 40 out of 78</p>","null","pattern_show_trial_num","","","","","","","","","","","","","","","","","","","","","","","","",""
"","","","","","image-keyboard-response","101","285475","0.0-2.0-7.0-1.0","63d4857d5c9e6f18b03027b3","A3","batch1","","1404.0999999642372","stim/yes_22_ver_w1.png","f","pattern_response","true","f","pattern_47","1404.0999999642372","true","37","","","","","","","","","","","","","","","","","","",""
"","","","","","html-keyboard-response","102","286793","0.0-2.0-7.0-0.1","63d4857d5c9e6f18b03027b3","A3","batch1","","null","<p class=block-text>Trial 41 out of 78</p>","null","pattern_show_trial_num","","","","","","","","","","","","","","","","","","","","","","","","",""
"","","","","","image-keyboard-response","103","291487","0.0-2.0-7.0-1.1","63d4857d5c9e6f18b03027b3","A3","batch1","","4692.800000011921","stim/no_23_1.png","j","pattern_response","true","j","pattern_08","4692.800000011921","true","38","","","","","","","","","","","","","","","","","","",""
"","","","","","html-keyboard-response","104","292810","0.0-2.0-7.0-0.2","63d4857d5c9e6f18b03027b3","A3","batch1","","null","<p class=block-text>Trial 42 out of 78</p>","null","pattern_show_trial_num","","","","","","","","","","","","","","","","","","","","","","","","",""
"","","","","","image-keyboard-response","105","294073","0.0-2.0-7.0-1.2","63d4857d5c9e6f18b03027b3","A3","batch1","","1260","stim/yes_29_ver_w1.png","f","pattern_response","true","f","pattern_53","1260","true","39","","","","","","","","","","","","","","","","","","",""
"","","","","","html-keyboard-response","106","295392","0.0-2.0-7.0-0.3","63d4857d5c9e6f18b03027b3","A3","batch1","","null","<p class=block-text>Trial 43 out of 78</p>","null","pattern_show_trial_num","","","","","","","","","","","","","","","","","","","","","","","","",""
"","","","","","image-keyboard-response","107","298972","0.0-2.0-7.0-1.3","63d4857d5c9e6f18b03027b3","A3","batch1","","3577.100000023842","stim/yes_50_dia_w1.png","f","pattern_response","true","f","pattern_71","3577.100000023842","true","40","","","","","","","","","","","","","","","","","","",""
"","","","","","html-keyboard-response","108","300294","0.0-2.0-7.0-0.4","63d4857d5c9e6f18b03027b3","A3","batch1","","null","<p class=block-text>Trial 44 out of 78</p>","null","pattern_show_trial_num","","","","","","","","","","","","","","","","","","","","","","","","",""
"","","","","","image-keyboard-response","109","301449","0.0-2.0-7.0-1.4","63d4857d5c9e6f18b03027b3","A3","batch1","","1153.0999999642372","stim/yes_52_ver_w1.png","f","pattern_response","true","f","pattern_73","1153.0999999642372","true","41","","","","","","","","","","","","","","","","","","",""
"","","","","","html-keyboard-response","110","302776","0.0-2.0-7.0-0.5","63d4857d5c9e6f18b03027b3","A3","batch1","","null","<p class=block-text>Trial 45 out of 78</p>","null","pattern_show_trial_num","","","","","","","","","","","","","","","","","","","","","","","","",""
"","","","","","image-keyboard-response","111","304299","0.0-2.0-7.0-1.5","63d4857d5c9e6f18b03027b3","A3","batch1","","1520.4000000357628","stim/yes_37_dia_w1.png","f","pattern_response","true","f","pattern_59","1520.4000000357628","true","42","","","","","","","","","","","","","","","","","","",""
"","","","","","html-keyboard-response","112","305616","0.0-2.0-7.0-0.6","63d4857d5c9e6f18b03027b3","A3","batch1","","null","<p class=block-text>Trial 46 out of 78</p>","null","pattern_show_trial_num","","","","","","","","","","","","","","","","","","","","","","","","",""
"","","","","","image-keyboard-response","113","310625","0.0-2.0-7.0-1.6","63d4857d5c9e6f18b03027b3","A3","batch1","","5008.199999988079","stim/no_44_1.png","j","pattern_response","true","j","pattern_24","5008.199999988079","true","43","","","","","","","","","","","","","","","","","","",""
"","","","","","html-keyboard-response","114","311944","0.0-2.0-7.0-0.7","63d4857d5c9e6f18b03027b3","A3","batch1","","null","<p class=block-text>Trial 47 out of 78</p>","null","pattern_show_trial_num","","","","","","","","","","","","","","","","","","","","","","","","",""
"","","","","","image-keyboard-response","115","313806","0.0-2.0-7.0-1.7","63d4857d5c9e6f18b03027b3","A3","batch1","","1858.5","stim/yes_38_hor_b1_b.png","f","pattern_response","true","f","pattern_61","1858.5","true","44","","","","","","","","","","","","","","","","","","",""
"","","","","","html-keyboard-response","116","315117","0.0-2.0-7.0-0.8","63d4857d5c9e6f18b03027b3","A3","batch1","","null","<p class=block-text>Trial 48 out of 78</p>","null","pattern_show_trial_num","","","","","","","","","","","","","","","","","","","","","","","","",""
"","","","","","image-keyboard-response","117","318111","0.0-2.0-7.0-1.8","63d4857d5c9e6f18b03027b3","A3","batch1","","2992.800000011921","stim/no_29_1_b.png","j","pattern_response","true","j","pattern_12","2992.800000011921","true","45","","","","","","","","","","","","","","","","","","",""
"","","","","","html-keyboard-response","118","319427","0.0-2.0-7.0-0.9","63d4857d5c9e6f18b03027b3","A3","batch1","","null","<p class=block-text>Trial 49 out of 78</p>","null","pattern_show_trial_num","","","","","","","","","","","","","","","","","","","","","","","","",""
"","","","","","image-keyboard-response","119","323463","0.0-2.0-7.0-1.9","63d4857d5c9e6f18b03027b3","A3","batch1","","4033.800000011921","stim/no_32_1_w.png","j","pattern_response","true","j","pattern_14","4033.800000011921","true","46","","","","","","","","","","","","","","","","","","",""
"","","","","","html-keyboard-response","120","324777","0.0-2.0-7.0-0.10","63d4857d5c9e6f18b03027b3","A3","batch1","","null","<p class=block-text>Trial 50 out of 78</p>","null","pattern_show_trial_num","","","","","","","","","","","","","","","","","","","","","","","","",""
"","","","","","image-keyboard-response","121","334539","0.0-2.0-7.0-1.10","63d4857d5c9e6f18b03027b3","A3","batch1","","9759.300000011921","stim/no_65_1_b.png","j","pattern_response","true","j","pattern_38","9759.300000011921","true","47","","","","","","","","","","","","","","","","","","",""
"","","","","","html-keyboard-response","122","335860","0.0-2.0-7.0-0.11","63d4857d5c9e6f18b03027b3","A3","batch1","","null","<p class=block-text>Trial 51 out of 78</p>","null","pattern_show_trial_num","","","","","","","","","","","","","","","","","","","","","","","","",""
"","","","","","image-keyboard-response","123","338601","0.0-2.0-7.0-1.11","63d4857d5c9e6f18b03027b3","A3","batch1","","2737.5","stim/yes_48_dia_w1_w.png","f","pattern_response","true","f","pattern_69","2737.5","true","48","","","","","","","","","","","","","","","","","","",""
"","","","","","html-keyboard-response","124","339927","0.0-2.0-7.0-0.12","63d4857d5c9e6f18b03027b3","A3","batch1","","null","<p class=block-text>Trial 52 out of 78</p>","null","pattern_show_trial_num","","","","","","","","","","","","","","","","","","","","","","","","",""
"","","","","","image-keyboard-response","125","344510","0.0-2.0-7.0-1.12","63d4857d5c9e6f18b03027b3","A3","batch1","","4580.100000023842","stim/no_46_1_b.png","j","pattern_response","true","j","pattern_26","4580.100000023842","true","49","","","","","","","","","","","","","","","","","","",""
"","","","","","html-keyboard-response","126","345825","0.0-2.0-7.0-0.13","63d4857d5c9e6f18b03027b3","A3","batch1","","null","<p class=block-text>Trial 53 out of 78</p>","null","pattern_show_trial_num","","","","","","","","","","","","","","","","","","","","","","","","",""
"","","","","","image-keyboard-response","127","347224","0.0-2.0-7.0-1.13","63d4857d5c9e6f18b03027b3","A3","batch1","","1396.300000011921","stim/yes_60_ver_b1_b.png","f","pattern_response","true","f","pattern_77","1396.300000011921","true","50","","","","","","","","","","","","","","","","","","",""
"","","","","","html-keyboard-response","128","348543","0.0-2.0-7.0-0.14","63d4857d5c9e6f18b03027b3","A3","batch1","","null","<p class=block-text>Trial 54 out of 78</p>","null","pattern_show_trial_num","","","","","","","","","","","","","","","","","","","","","","","","",""
"","","","","","image-keyboard-response","129","350023","0.0-2.0-7.0-1.14","63d4857d5c9e6f18b03027b3","A3","batch1","","1478.1000000238419","stim/yes_35_dia_b1.png","f","pattern_response","true","f","pattern_57","1478.1000000238419","true","51","","","","","","","","","","","","","","","","","","",""
"","","","","","html-keyboard-response","130","351343","0.0-2.0-7.0-0.15","63d4857d5c9e6f18b03027b3","A3","batch1","","null","<p class=block-text>Trial 55 out of 78</p>","null","pattern_show_trial_num","","","","","","","","","","","","","","","","","","","","","","","","",""
"","","","","","image-keyboard-response","131","358213","0.0-2.0-7.0-1.15","63d4857d5c9e6f18b03027b3","A3","batch1","","6866.400000035763","stim/no_48_1_w.png","j","pattern_response","true","j","pattern_28","6866.400000035763","true","52","","","","","","","","","","","","","","","","","","",""
"","","","","","html-keyboard-response","132","359526","0.0-2.0-7.0-0.16","63d4857d5c9e6f18b03027b3","A3","batch1","","null","<p class=block-text>Trial 56 out of 78</p>","null","pattern_show_trial_num","","","","","","","","","","","","","","","","","","","","","","","","",""
"","","","","","image-keyboard-response","133","361437","0.0-2.0-7.0-1.16","63d4857d5c9e6f18b03027b3","A3","batch1","","1909.6000000238419","stim/yes_67_hor_b1.png","f","pattern_response","true","f","pattern_79","1909.6000000238419","true","53","","","","","","","","","","","","","","","","","","",""
"","","","","","html-keyboard-response","134","362760","0.0-2.0-7.0-0.17","63d4857d5c9e6f18b03027b3","A3","batch1","","null","<p class=block-text>Trial 57 out of 78</p>","null","pattern_show_trial_num","","","","","","","","","","","","","","","","","","","","","","","","",""
"","","","","","image-keyboard-response","135","368180","0.0-2.0-7.0-1.17","63d4857d5c9e6f18b03027b3","A3","batch1","","5418.100000023842","stim/yes_45_hor_b2_b.png","f","pattern_response","true","f","pattern_67","5418.100000023842","true","54","","","","","","","","","","","","","","","","","","",""
"","","","","","html-keyboard-response","136","369493","0.0-2.0-7.0-0.18","63d4857d5c9e6f18b03027b3","A3","batch1","","null","<p class=block-text>Trial 58 out of 78</p>","null","pattern_show_trial_num","","","","","","","","","","","","","","","","","","","","","","","","",""
"","","","","","image-keyboard-response","137","376891","0.0-2.0-7.0-1.18","63d4857d5c9e6f18b03027b3","A3","batch1","","7388.699999988079","stim/no_55_1_w.png","j","pattern_response","true","j","pattern_34","7388.699999988079","true","55","","","","","","","","","","","","","","","","","","",""
"","","","","","html-keyboard-response","138","378218","0.0-2.0-7.0-0.19","63d4857d5c9e6f18b03027b3","A3","batch1","","null","<p class=block-text>Trial 59 out of 78</p>","null","pattern_show_trial_num","","","","","","","","","","","","","","","","","","","","","","","","",""
"","","","","","image-keyboard-response","139","381574","0.0-2.0-7.0-1.19","63d4857d5c9e6f18b03027b3","A3","batch1","","3354.300000011921","stim/no_42_1_w.png","j","pattern_response","true","j","pattern_22","3354.300000011921","true","56","","","","","","","","","","","","","","","","","","",""
"","","","","","html-keyboard-response","140","382884","0.0-2.0-7.0-0.20","63d4857d5c9e6f18b03027b3","A3","batch1","","null","<p class=block-text>Trial 60 out of 78</p>","null","pattern_show_trial_num","","","","","","","","","","","","","","","","","","","","","","","","",""
"","","","","","image-keyboard-response","141","384368","0.0-2.0-7.0-1.20","63d4857d5c9e6f18b03027b3","A3","batch1","","1480.5","stim/yes_14_hor_b1_w.png","f","pattern_response","true","f","pattern_43","1480.5","true","57","","","","","","","","","","","","","","","","","","",""
"","","","","","html-keyboard-response","142","385685","0.0-2.0-7.0-0.21","63d4857d5c9e6f18b03027b3","A3","batch1","","null","<p class=block-text>Trial 61 out of 78</p>","null","pattern_show_trial_num","","","","","","","","","","","","","","","","","","","","","","","","",""
"","","","","","image-keyboard-response","143","388944","0.0-2.0-7.0-1.21","63d4857d5c9e6f18b03027b3","A3","batch1","","3256.599999964237","stim/yes_40_dia_b1_b.png","f","pattern_response","true","f","pattern_63","3256.599999964237","true","58","","","","","","","","","","","","","","","","","","",""
"","","","","","html-keyboard-response","144","390268","0.0-2.0-7.0-0.22","63d4857d5c9e6f18b03027b3","A3","batch1","","null","<p class=block-text>Trial 62 out of 78</p>","null","pattern_show_trial_num","","","","","","","","","","","","","","","","","","","","","","","","",""
"","","","","","image-keyboard-response","145","391884","0.0-2.0-7.0-1.22","63d4857d5c9e6f18b03027b3","A3","batch1","","1613.300000011921","stim/no_13_2_b.png","j","pattern_response","true","j","pattern_02","1613.300000011921","true","59","","","","","","","","","","","","","","","","","","",""
"","","","","","html-keyboard-response","146","393201","0.0-2.0-7.0-0.23","63d4857d5c9e6f18b03027b3","A3","batch1","","null","<p class=block-text>Trial 63 out of 78</p>","null","pattern_show_trial_num","","","","","","","","","","","","","","","","","","","","","","","","",""
"","","","","","image-keyboard-response","147","399945","0.0-2.0-7.0-1.23","63d4857d5c9e6f18b03027b3","A3","batch1","","6742.299999952316","stim/no_50_1.png","j","pattern_response","true","j","pattern_30","6742.299999952316","true","60","","","","","","","","","","","","","","","","","","",""
"","","","","","html-keyboard-response","148","401268","0.0-2.0-7.0-0.24","63d4857d5c9e6f18b03027b3","A3","batch1","","null","<p class=block-text>Trial 64 out of 78</p>","null","pattern_show_trial_num","","","","","","","","","","","","","","","","","","","","","","","","",""
"","","","","","image-keyboard-response","149","402606","0.0-2.0-7.0-1.24","63d4857d5c9e6f18b03027b3","A3","batch1","","1334.800000011921","stim/yes_28_ver_b1.png","f","pattern_response","true","f","pattern_51","1334.800000011921","true","61","","","","","","","","","","","","","","","","","","",""
"","","","","","html-keyboard-response","150","403934","0.0-2.0-7.0-0.25","63d4857d5c9e6f18b03027b3","A3","batch1","","null","<p class=block-text>Trial 65 out of 78</p>","null","pattern_show_trial_num","","","","","","","","","","","","","","","","","","","","","","","","",""
"","","","","","image-keyboard-response","151","412214","0.0-2.0-7.0-1.25","63d4857d5c9e6f18b03027b3","A3","batch1","","8276.700000047684","stim/no_70_2.png","j","pattern_response","true","j","pattern_40","8276.700000047684","true","62","","","","","","","","","","","","","","","","","","",""
"","","","","","html-keyboard-response","152","413534","0.0-2.0-7.0-0.26","63d4857d5c9e6f18b03027b3","A3","batch1","","null","<p class=block-text>Trial 66 out of 78</p>","null","pattern_show_trial_num","","","","","","","","","","","","","","","","","","","","","","","","",""
"","","","","","image-keyboard-response","153","415154","0.0-2.0-7.0-1.26","63d4857d5c9e6f18b03027b3","A3","batch1","","1617.8999999761581","stim/yes_43_ver_w1_w.png","f","pattern_response","true","f","pattern_65","1617.8999999761581","true","63","","","","","","","","","","","","","","","","","","",""
"","","","","","html-keyboard-response","154","416468","0.0-2.0-7.0-0.27","63d4857d5c9e6f18b03027b3","A3","batch1","","null","<p class=block-text>Trial 67 out of 78</p>","null","pattern_show_trial_num","","","","","","","","","","","","","","","","","","","","","","","","",""
"","","","","","image-keyboard-response","155","418018","0.0-2.0-7.0-1.27","63d4857d5c9e6f18b03027b3","A3","batch1","","1549.1000000238419","stim/yes_31_hor_b1.png","f","pattern_response","true","f","pattern_55","1549.1000000238419","true","64","","","","","","","","","","","","","","","","","","",""
"","","","","","html-keyboard-response","156","419351","0.0-2.0-7.0-0.28","63d4857d5c9e6f18b03027b3","A3","batch1","","null","<p class=block-text>Trial 68 out of 78</p>","null","pattern_show_trial_num","","","","","","","","","","","","","","","","","","","","","","","","",""
"","","","","","image-keyboard-response","157","424756","0.0-2.0-7.0-1.28","63d4857d5c9e6f18b03027b3","A3","batch1","","5402.099999964237","stim/no_34_1_b.png","j","pattern_response","true","j","pattern_16","5402.099999964237","true","65","","","","","","","","","","","","","","","","","","",""
"","","","","","html-keyboard-response","158","426085","0.0-2.0-7.0-0.29","63d4857d5c9e6f18b03027b3","A3","batch1","","null","<p class=block-text>Trial 69 out of 78</p>","null","pattern_show_trial_num","","","","","","","","","","","","","","","","","","","","","","","","",""
"","","","","","image-keyboard-response","159","428701","0.0-2.0-7.0-1.29","63d4857d5c9e6f18b03027b3","A3","batch1","","2612.7000000476837","stim/no_26_1_w.png","j","pattern_response","true","j","pattern_10","2612.7000000476837","true","66","","","","","","","","","","","","","","","","","","",""
"","","","","","html-keyboard-response","160","430017","0.0-2.0-7.0-0.30","63d4857d5c9e6f18b03027b3","A3","batch1","","null","<p class=block-text>Trial 70 out of 78</p>","null","pattern_show_trial_num","","","","","","","","","","","","","","","","","","","","","","","","",""
"","","","","","image-keyboard-response","161","437156","0.0-2.0-7.0-1.30","63d4857d5c9e6f18b03027b3","A3","batch1","","7150","stim/no_52_1.png","j","pattern_response","true","j","pattern_32","7150","true","67","","","","","","","","","","","","","","","","","","",""
"","","","","","html-keyboard-response","162","438470","0.0-2.0-7.0-0.31","63d4857d5c9e6f18b03027b3","A3","batch1","","null","<p class=block-text>Trial 71 out of 78</p>","null","pattern_show_trial_num","","","","","","","","","","","","","","","","","","","","","","","","",""
"","","","","","image-keyboard-response","163","440356","0.0-2.0-7.0-1.31","63d4857d5c9e6f18b03027b3","A3","batch1","","1883.6000000238419","stim/no_20_1_w.png","j","pattern_response","true","j","pattern_06","1883.6000000238419","true","68","","","","","","","","","","","","","","","","","","",""
"","","","","","html-keyboard-response","164","441669","0.0-2.0-7.0-0.32","63d4857d5c9e6f18b03027b3","A3","batch1","","null","<p class=block-text>Trial 72 out of 78</p>","null","pattern_show_trial_num","","","","","","","","","","","","","","","","","","","","","","","","",""
"","","","","","image-keyboard-response","165","445330","0.0-2.0-7.0-1.32","63d4857d5c9e6f18b03027b3","A3","batch1","","3659.899999976158","stim/no_36_2_w.png","j","pattern_response","true","j","pattern_18","3659.899999976158","true","69","","","","","","","","","","","","","","","","","","",""
"","","","","","html-keyboard-response","166","446654","0.0-2.0-7.0-0.33","63d4857d5c9e6f18b03027b3","A3","batch1","","null","<p class=block-text>Trial 73 out of 78</p>","null","pattern_show_trial_num","","","","","","","","","","","","","","","","","","","","","","","","",""
"","","","","","image-keyboard-response","167","448604","0.0-2.0-7.0-1.33","63d4857d5c9e6f18b03027b3","A3","batch1","","1948.5","stim/no_17_1_w.png","j","pattern_response","true","j","pattern_04","1948.5","true","70","","","","","","","","","","","","","","","","","","",""
"","","","","","html-keyboard-response","168","449920","0.0-2.0-7.0-0.34","63d4857d5c9e6f18b03027b3","A3","batch1","","null","<p class=block-text>Trial 74 out of 78</p>","null","pattern_show_trial_num","","","","","","","","","","","","","","","","","","","","","","","","",""
"","","","","","image-keyboard-response","169","457835","0.0-2.0-7.0-1.34","63d4857d5c9e6f18b03027b3","A3","batch1","","7912.300000011921","stim/no_62_1_w.png","j","pattern_response","true","j","pattern_36","7912.300000011921","true","71","","","","","","","","","","","","","","","","","","",""
"","","","","","html-keyboard-response","170","459156","0.0-2.0-7.0-0.35","63d4857d5c9e6f18b03027b3","A3","batch1","","null","<p class=block-text>Trial 75 out of 78</p>","null","pattern_show_trial_num","","","","","","","","","","","","","","","","","","","","","","","","",""
"","","","","","image-keyboard-response","171","460111","0.0-2.0-7.0-1.35","63d4857d5c9e6f18b03027b3","A3","batch1","","953.4000000357628","stim/yes_17_dia_w1.png","f","pattern_response","true","f","pattern_45","953.4000000357628","true","72","","","","","","","","","","","","","","","","","","",""
"","","","","","html-keyboard-response","172","461437","0.0-2.0-7.0-0.36","63d4857d5c9e6f18b03027b3","A3","batch1","","null","<p class=block-text>Trial 76 out of 78</p>","null","pattern_show_trial_num","","","","","","","","","","","","","","","","","","","","","","","","",""
"","","","","","image-keyboard-response","173","462387","0.0-2.0-7.0-1.36","63d4857d5c9e6f18b03027b3","A3","batch1","","947.1000000238419","stim/yes_25_hor_b1_b.png","f","pattern_response","true","f","pattern_49","947.1000000238419","true","73","","","","","","","","","","","","","","","","","","",""
"","","","","","html-keyboard-response","174","463704","0.0-2.0-7.0-0.37","63d4857d5c9e6f18b03027b3","A3","batch1","","null","<p class=block-text>Trial 77 out of 78</p>","null","pattern_show_trial_num","","","","","","","","","","","","","","","","","","","","","","","","",""
"","","","","","image-keyboard-response","175","464860","0.0-2.0-7.0-1.37","63d4857d5c9e6f18b03027b3","A3","batch1","","1154.8999999761581","stim/yes_55_hor_w1_w.png","f","pattern_response","true","f","pattern_75","1154.8999999761581","true","74","","","","","","","","","","","","","","","","","","",""
"","","","","","html-keyboard-response","176","466186","0.0-2.0-7.0-0.38","63d4857d5c9e6f18b03027b3","A3","batch1","","null","<p class=block-text>Trial 78 out of 78</p>","null","pattern_show_trial_num","","","","","","","","","","","","","","","","","","","","","","","","",""
"","","","","","image-keyboard-response","177","472232","0.0-2.0-7.0-1.38","63d4857d5c9e6f18b03027b3","A3","batch1","","6044.800000011921","stim/no_38_1_b.png","j","pattern_response","true","j","pattern_20","6044.800000011921","true","75","","","","","","","","","","","","","","","","","","",""
"","","","","","html-button-response","178","488440","0.0-2.0-8.0","63d4857d5c9e6f18b03027b3","A3","batch1","","15698","<p class = block-text>This concludes the 4-in-a-row detection game.Thank you for your responses!<br>
            You responded correctly on 96% of the trials.<br>
            When you are ready, press ""Continue"" button to continue </p>","0","","","","","","","","","","","","","","","","","","","","","","","","","",""
"true","","","","","fullscreen","179","492051","0.0-3.0-0.0","63d4857d5c9e6f18b03027b3","A3","batch1","","","","","spm_fullscreen","","","","","","","","","","","","","","","","","","","","","","","","",""
"","","","","","html-button-response","180","557244","0.0-3.0-1.0","63d4857d5c9e6f18b03027b3","A3","batch1","","65176.69999998808","<p class = block-text><b>Instructions</b> <br>This is a widely used intelligence test in research. <br>In this test, a figure with a missing piece will be presented.<br>Below the figure are alternative pieces to complete the figure, only one of which is correct.<br> Different figures might involve different principles for obtaining the missing piece<br>Your job is to select the most logical piece to complete the figure.</p>","0","","","","","","","","","","","","","","","","","","","","","","","","","",""
"","","","","","html-keyboard-response","181","558052","0.0-3.0-2.0-0.0","63d4857d5c9e6f18b03027b3","A3","batch1","","null","<p class=block-text>Trial 1 out of 60</p>","null","spm_show_trial_num","","","","","","","","","","","","","","","","","","","","","","","","",""
"","","","","","image-button-response","182","570647","0.0-3.0-2.0-1.0","63d4857d5c9e6f18b03027b3","A3","batch1","","12592.600000023842","img/question_1_1.jpeg","3","spm_respsonse","1","4","mat_01","","","","","","1","12592.600000023842","","","","","","","","","","","","","","",""
"","","","","","html-keyboard-response","183","571719","0.0-3.0-2.0-0.1","63d4857d5c9e6f18b03027b3","A3","batch1","","null","<p class=block-text>Trial 2 out of 60</p>","null","spm_show_trial_num","","","","","","","","","","","","","","","","","","","","","","","","",""
"","","","","","image-button-response","184","575643","0.0-3.0-2.0-1.1","63d4857d5c9e6f18b03027b3","A3","batch1","","3920.600000023842","img/question_1_2.jpeg","4","spm_respsonse","1","5","mat_02","","","","","","1","3920.600000023842","","","","","","","","","","","","","","",""
"","","","","","html-keyboard-response","185","576718","0.0-3.0-2.0-0.2","63d4857d5c9e6f18b03027b3","A3","batch1","","null","<p class=block-text>Trial 3 out of 60</p>","null","spm_show_trial_num","","","","","","","","","","","","","","","","","","","","","","","","",""
"","","","","","image-button-response","186","581620","0.0-3.0-2.0-1.2","63d4857d5c9e6f18b03027b3","A3","batch1","","4899.199999988079","img/question_1_3.jpeg","0","spm_respsonse","1","1","mat_03","","","","","","1","4899.199999988079","","","","","","","","","","","","","","",""
"","","","","","html-keyboard-response","187","582691","0.0-3.0-2.0-0.3","63d4857d5c9e6f18b03027b3","A3","batch1","","null","<p class=block-text>Trial 4 out of 60</p>","null","spm_show_trial_num","","","","","","","","","","","","","","","","","","","","","","","","",""
"","","","","","image-button-response","188","590960","0.0-3.0-2.0-1.3","63d4857d5c9e6f18b03027b3","A3","batch1","","8267.400000035763","img/question_1_4.jpeg","1","spm_respsonse","1","2","mat_04","","","","","","1","8267.400000035763","","","","","","","","","","","","","","",""
"","","","","","html-keyboard-response","189","592023","0.0-3.0-2.0-0.4","63d4857d5c9e6f18b03027b3","A3","batch1","","null","<p class=block-text>Trial 5 out of 60</p>","null","spm_show_trial_num","","","","","","","","","","","","","","","","","","","","","","","","",""
"","","","","","image-button-response","190","596893","0.0-3.0-2.0-1.4","63d4857d5c9e6f18b03027b3","A3","batch1","","4865.5","img/question_1_5.jpeg","5","spm_respsonse","1","6","mat_05","","","","","","1","4865.5","","","","","","","","","","","","","","",""
"","","","","","html-keyboard-response","191","597967","0.0-3.0-2.0-0.5","63d4857d5c9e6f18b03027b3","A3","batch1","","null","<p class=block-text>Trial 6 out of 60</p>","null","spm_show_trial_num","","","","","","","","","","","","","","","","","","","","","","","","",""
"","","","","","image-button-response","192","602497","0.0-3.0-2.0-1.5","63d4857d5c9e6f18b03027b3","A3","batch1","","4526.700000047684","img/question_1_6.jpeg","2","spm_respsonse","1","3","mat_06","","","","","","1","4526.700000047684","","","","","","","","","","","","","","",""
"","","","","","html-keyboard-response","193","603557","0.0-3.0-2.0-0.6","63d4857d5c9e6f18b03027b3","A3","batch1","","null","<p class=block-text>Trial 7 out of 60</p>","null","spm_show_trial_num","","","","","","","","","","","","","","","","","","","","","","","","",""
"","","","","","image-button-response","194","610865","0.0-3.0-2.0-1.6","63d4857d5c9e6f18b03027b3","A3","batch1","","7304.199999988079","img/question_1_7.jpeg","5","spm_respsonse","1","6","mat_07","","","","","","1","7304.199999988079","","","","","","","","","","","","","","",""
"","","","","","html-keyboard-response","195","611935","0.0-3.0-2.0-0.7","63d4857d5c9e6f18b03027b3","A3","batch1","","null","<p class=block-text>Trial 8 out of 60</p>","null","spm_show_trial_num","","","","","","","","","","","","","","","","","","","","","","","","",""
"","","","","","image-button-response","196","618283","0.0-3.0-2.0-1.7","63d4857d5c9e6f18b03027b3","A3","batch1","","6344","img/question_1_8.jpeg","1","spm_respsonse","1","2","mat_08","","","","","","1","6344","","","","","","","","","","","","","","",""
"","","","","","html-keyboard-response","197","619351","0.0-3.0-2.0-0.8","63d4857d5c9e6f18b03027b3","A3","batch1","","null","<p class=block-text>Trial 9 out of 60</p>","null","spm_show_trial_num","","","","","","","","","","","","","","","","","","","","","","","","",""
"","","","","","image-button-response","198","625496","0.0-3.0-2.0-1.8","63d4857d5c9e6f18b03027b3","A3","batch1","","6140.5","img/question_1_9.jpeg","0","spm_respsonse","1","1","mat_09","","","","","","1","6140.5","","","","","","","","","","","","","","",""
"","","","","","html-keyboard-response","199","626569","0.0-3.0-2.0-0.9","63d4857d5c9e6f18b03027b3","A3","batch1","","null","<p class=block-text>Trial 10 out of 60</p>","null","spm_show_trial_num","","","","","","","","","","","","","","","","","","","","","","","","",""
"","","","","","image-button-response","200","634307","0.0-3.0-2.0-1.9","63d4857d5c9e6f18b03027b3","A3","batch1","","7734.300000011921","img/question_1_10.jpeg","2","spm_respsonse","1","3","mat_10","","","","","","1","7734.300000011921","","","","","","","","","","","","","","",""
"","","","","","html-keyboard-response","201","635383","0.0-3.0-2.0-0.10","63d4857d5c9e6f18b03027b3","A3","batch1","","null","<p class=block-text>Trial 11 out of 60</p>","null","spm_show_trial_num","","","","","","","","","","","","","","","","","","","","","","","","",""
"","","","","","image-button-response","202","651313","0.0-3.0-2.0-1.10","63d4857d5c9e6f18b03027b3","A3","batch1","","15927.699999988079","img/question_1_11.jpeg","3","spm_respsonse","1","4","mat_11","","","","","","1","15927.699999988079","","","","","","","","","","","","","","",""
"","","","","","html-keyboard-response","203","652385","0.0-3.0-2.0-0.11","63d4857d5c9e6f18b03027b3","A3","batch1","","null","<p class=block-text>Trial 12 out of 60</p>","null","spm_show_trial_num","","","","","","","","","","","","","","","","","","","","","","","","",""
"","","","","","image-button-response","204","672568","0.0-3.0-2.0-1.11","63d4857d5c9e6f18b03027b3","A3","batch1","","20181.099999964237","img/question_1_12.jpeg","0","spm_respsonse","0","5","mat_12","","","","","","0","20181.099999964237","","","","","","","","","","","","","","",""
"","","","","","html-keyboard-response","205","673634","0.0-3.0-2.0-0.12","63d4857d5c9e6f18b03027b3","A3","batch1","","null","<p class=block-text>Trial 13 out of 60</p>","null","spm_show_trial_num","","","","","","","","","","","","","","","","","","","","","","","","",""
"","","","","","image-button-response","206","677689","0.0-3.0-2.0-1.12","63d4857d5c9e6f18b03027b3","A3","batch1","","4051.100000023842","img/question_2_1.jpeg","1","spm_respsonse","1","2","mat_13","","","","","","1","4051.100000023842","","","","","","","","","","","","","","",""
"","","","","","html-keyboard-response","207","678767","0.0-3.0-2.0-0.13","63d4857d5c9e6f18b03027b3","A3","batch1","","null","<p class=block-text>Trial 14 out of 60</p>","null","spm_show_trial_num","","","","","","","","","","","","","","","","","","","","","","","","",""
"","","","","","image-button-response","208","709826","0.0-3.0-2.0-1.13","63d4857d5c9e6f18b03027b3","A3","batch1","","31056","img/question_2_2.jpeg","5","spm_respsonse","1","6","mat_14","","","","","","1","31056","","","","","","","","","","","","","","",""
"","","","","","html-keyboard-response","209","710901","0.0-3.0-2.0-0.14","63d4857d5c9e6f18b03027b3","A3","batch1","","null","<p class=block-text>Trial 15 out of 60</p>","null","spm_show_trial_num","","","","","","","","","","","","","","","","","","","","","","","","",""
"","","","","","image-button-response","210","714466","0.0-3.0-2.0-1.14","63d4857d5c9e6f18b03027b3","A3","batch1","","3564.199999988079","img/question_2_3.jpeg","0","spm_respsonse","1","1","mat_15","","","","","","1","3564.199999988079","","","","","","","","","","","","","","",""
"","","","","","html-keyboard-response","211","715537","0.0-3.0-2.0-0.15","63d4857d5c9e6f18b03027b3","A3","batch1","","null","<p class=block-text>Trial 16 out of 60</p>","null","spm_show_trial_num","","","","","","","","","","","","","","","","","","","","","","","","",""
"","","","","","image-button-response","212","720717","0.0-3.0-2.0-1.15","63d4857d5c9e6f18b03027b3","A3","batch1","","5176.600000023842","img/question_2_4.jpeg","1","spm_respsonse","1","2","mat_16","","","","","","1","5176.600000023842","","","","","","","","","","","","","","",""
"","","","","","html-keyboard-response","213","721779","0.0-3.0-2.0-0.16","63d4857d5c9e6f18b03027b3","A3","batch1","","null","<p class=block-text>Trial 17 out of 60</p>","null","spm_show_trial_num","","","","","","","","","","","","","","","","","","","","","","","","",""
"","","","","","image-button-response","214","729765","0.0-3.0-2.0-1.16","63d4857d5c9e6f18b03027b3","A3","batch1","","7982.899999976158","img/question_2_5.jpeg","0","spm_respsonse","1","1","mat_17","","","","","","1","7982.899999976158","","","","","","","","","","","","","","",""
"","","","","","html-keyboard-response","215","730824","0.0-3.0-2.0-0.17","63d4857d5c9e6f18b03027b3","A3","batch1","","null","<p class=block-text>Trial 18 out of 60</p>","null","spm_show_trial_num","","","","","","","","","","","","","","","","","","","","","","","","",""
"","","","","","image-button-response","216","739472","0.0-3.0-2.0-1.17","63d4857d5c9e6f18b03027b3","A3","batch1","","8644.100000023842","img/question_2_6.jpeg","2","spm_respsonse","1","3","mat_18","","","","","","1","8644.100000023842","","","","","","","","","","","","","","",""
"","","","","","html-keyboard-response","217","740540","0.0-3.0-2.0-0.18","63d4857d5c9e6f18b03027b3","A3","batch1","","null","<p class=block-text>Trial 19 out of 60</p>","null","spm_show_trial_num","","","","","","","","","","","","","","","","","","","","","","","","",""
"","","","","","image-button-response","218","751668","0.0-3.0-2.0-1.18","63d4857d5c9e6f18b03027b3","A3","batch1","","11123.800000011921","img/question_2_7.jpeg","4","spm_respsonse","1","5","mat_19","","","","","","1","11123.800000011921","","","","","","","","","","","","","","",""
"","","","","","html-keyboard-response","219","752734","0.0-3.0-2.0-0.19","63d4857d5c9e6f18b03027b3","A3","batch1","","null","<p class=block-text>Trial 20 out of 60</p>","null","spm_show_trial_num","","","","","","","","","","","","","","","","","","","","","","","","",""
"","","","","","image-button-response","220","758766","0.0-3.0-2.0-1.19","63d4857d5c9e6f18b03027b3","A3","batch1","","6029.399999976158","img/question_2_8.jpeg","2","spm_respsonse","0","6","mat_20","","","","","","0","6029.399999976158","","","","","","","","","","","","","","",""
"","","","","","html-keyboard-response","221","759836","0.0-3.0-2.0-0.20","63d4857d5c9e6f18b03027b3","A3","batch1","","null","<p class=block-text>Trial 21 out of 60</p>","null","spm_show_trial_num","","","","","","","","","","","","","","","","","","","","","","","","",""
"","","","","","image-button-response","222","764122","0.0-3.0-2.0-1.20","63d4857d5c9e6f18b03027b3","A3","batch1","","4282.400000035763","img/question_2_9.jpeg","3","spm_respsonse","1","4","mat_21","","","","","","1","4282.400000035763","","","","","","","","","","","","","","",""
"","","","","","html-keyboard-response","223","765201","0.0-3.0-2.0-0.21","63d4857d5c9e6f18b03027b3","A3","batch1","","null","<p class=block-text>Trial 22 out of 60</p>","null","spm_show_trial_num","","","","","","","","","","","","","","","","","","","","","","","","",""
"","","","","","image-button-response","224","776396","0.0-3.0-2.0-1.21","63d4857d5c9e6f18b03027b3","A3","batch1","","11193.300000011921","img/question_2_10.jpeg","2","spm_respsonse","1","3","mat_22","","","","","","1","11193.300000011921","","","","","","","","","","","","","","",""
"","","","","","html-keyboard-response","225","777468","0.0-3.0-2.0-0.22","63d4857d5c9e6f18b03027b3","A3","batch1","","null","<p class=block-text>Trial 23 out of 60</p>","null","spm_show_trial_num","","","","","","","","","","","","","","","","","","","","","","","","",""
"","","","","","image-button-response","226","786392","0.0-3.0-2.0-1.22","63d4857d5c9e6f18b03027b3","A3","batch1","","8920.5","img/question_2_11.jpeg","5","spm_respsonse","0","4","mat_23","","","","","","0","8920.5","","","","","","","","","","","","","","",""
"","","","","","html-keyboard-response","227","787462","0.0-3.0-2.0-0.23","63d4857d5c9e6f18b03027b3","A3","batch1","","null","<p class=block-text>Trial 24 out of 60</p>","null","spm_show_trial_num","","","","","","","","","","","","","","","","","","","","","","","","",""
"","","","","","image-button-response","228","800890","0.0-3.0-2.0-1.23","63d4857d5c9e6f18b03027b3","A3","batch1","","13425.5","img/question_2_12.jpeg","2","spm_respsonse","0","5","mat_24","","","","","","0","13425.5","","","","","","","","","","","","","","",""
"","","","","","html-button-response","229","804057","0.0-3.0-3.0","63d4857d5c9e6f18b03027b3","A3","batch1","","2901","<p class = block-text>Attention check: Please choose 1<br></p>","0","attention_check","true","","","","","","","","","","","","","","","","","","","","","","","",""
"","","","","","html-keyboard-response","230","804859","0.0-3.0-4.0-0.0","63d4857d5c9e6f18b03027b3","A3","batch1","","null","<p class=block-text>Trial 25 out of 60</p>","null","spm_show_trial_num","","","","","","","","","","","","","","","","","","","","","","","","",""
"","","","","","image-button-response","231","810526","0.0-3.0-4.0-1.0","63d4857d5c9e6f18b03027b3","A3","batch1","","5665.400000035763","img/question_3_1.jpeg","7","spm_respsonse","1","8","mat_25","","","","","","1","5665.400000035763","","","","","","","","","","","","","","",""
"","","","","","html-keyboard-response","232","811600","0.0-3.0-4.0-0.1","63d4857d5c9e6f18b03027b3","A3","batch1","","null","<p class=block-text>Trial 26 out of 60</p>","null","spm_show_trial_num","","","","","","","","","","","","","","","","","","","","","","","","",""
"","","","","","image-button-response","233","818318","0.0-3.0-4.0-1.1","63d4857d5c9e6f18b03027b3","A3","batch1","","6714","img/question_3_2.jpeg","1","spm_respsonse","1","2","mat_26","","","","","","1","6714","","","","","","","","","","","","","","",""
"","","","","","html-keyboard-response","234","819385","0.0-3.0-4.0-0.2","63d4857d5c9e6f18b03027b3","A3","batch1","","null","<p class=block-text>Trial 27 out of 60</p>","null","spm_show_trial_num","","","","","","","","","","","","","","","","","","","","","","","","",""
"","","","","","image-button-response","235","837936","0.0-3.0-4.0-1.2","63d4857d5c9e6f18b03027b3","A3","batch1","","18547.299999952316","img/question_3_3.jpeg","2","spm_respsonse","1","3","mat_27","","","","","","1","18547.299999952316","","","","","","","","","","","","","","",""
"","","","","","html-keyboard-response","236","839001","0.0-3.0-4.0-0.3","63d4857d5c9e6f18b03027b3","A3","batch1","","null","<p class=block-text>Trial 28 out of 60</p>","null","spm_show_trial_num","","","","","","","","","","","","","","","","","","","","","","","","",""
"","","","","","image-button-response","237","848505","0.0-3.0-4.0-1.3","63d4857d5c9e6f18b03027b3","A3","batch1","","9500.800000011921","img/question_3_4.jpeg","7","spm_respsonse","1","8","mat_28","","","","","","1","9500.800000011921","","","","","","","","","","","","","","",""
"","","","","","html-keyboard-response","238","849584","0.0-3.0-4.0-0.4","63d4857d5c9e6f18b03027b3","A3","batch1","","null","<p class=block-text>Trial 29 out of 60</p>","null","spm_show_trial_num","","","","","","","","","","","","","","","","","","","","","","","","",""
"","","","","","image-button-response","239","855253","0.0-3.0-4.0-1.4","63d4857d5c9e6f18b03027b3","A3","batch1","","5666.5","img/question_3_5.jpeg","6","spm_respsonse","1","7","mat_29","","","","","","1","5666.5","","","","","","","","","","","","","","",""
"","","","","","html-keyboard-response","240","856318","0.0-3.0-4.0-0.5","63d4857d5c9e6f18b03027b3","A3","batch1","","null","<p class=block-text>Trial 30 out of 60</p>","null","spm_show_trial_num","","","","","","","","","","","","","","","","","","","","","","","","",""
"","","","","","image-button-response","241","869123","0.0-3.0-4.0-1.5","63d4857d5c9e6f18b03027b3","A3","batch1","","12801.099999964237","img/question_3_6.jpeg","4","spm_respsonse","0","4","mat_30","","","","","","0","12801.099999964237","","","","","","","","","","","","","","",""
"","","","","","html-keyboard-response","242","870189","0.0-3.0-4.0-0.6","63d4857d5c9e6f18b03027b3","A3","batch1","","null","<p class=block-text>Trial 31 out of 60</p>","null","spm_show_trial_num","","","","","","","","","","","","","","","","","","","","","","","","",""
"","","","","","image-button-response","243","880718","0.0-3.0-4.0-1.6","63d4857d5c9e6f18b03027b3","A3","batch1","","10524.5","img/question_3_7.jpeg","4","spm_respsonse","1","5","mat_31","","","","","","1","10524.5","","","","","","","","","","","","","","",""
"","","","","","html-keyboard-response","244","881785","0.0-3.0-4.0-0.7","63d4857d5c9e6f18b03027b3","A3","batch1","","null","<p class=block-text>Trial 32 out of 60</p>","null","spm_show_trial_num","","","","","","","","","","","","","","","","","","","","","","","","",""
"","","","","","image-button-response","245","897104","0.0-3.0-4.0-1.7","63d4857d5c9e6f18b03027b3","A3","batch1","","15317.300000011921","img/question_3_8.jpeg","0","spm_respsonse","1","1","mat_32","","","","","","1","15317.300000011921","","","","","","","","","","","","","","",""
"","","","","","html-keyboard-response","246","898168","0.0-3.0-4.0-0.8","63d4857d5c9e6f18b03027b3","A3","batch1","","null","<p class=block-text>Trial 33 out of 60</p>","null","spm_show_trial_num","","","","","","","","","","","","","","","","","","","","","","","","",""
"","","","","","image-button-response","247","906989","0.0-3.0-4.0-1.8","63d4857d5c9e6f18b03027b3","A3","batch1","","8816.800000011921","img/question_3_9.jpeg","6","spm_respsonse","1","7","mat_33","","","","","","1","8816.800000011921","","","","","","","","","","","","","","",""
"","","","","","html-keyboard-response","248","908051","0.0-3.0-4.0-0.9","63d4857d5c9e6f18b03027b3","A3","batch1","","null","<p class=block-text>Trial 34 out of 60</p>","null","spm_show_trial_num","","","","","","","","","","","","","","","","","","","","","","","","",""
"","","","","","image-button-response","249","920717","0.0-3.0-4.0-1.9","63d4857d5c9e6f18b03027b3","A3","batch1","","12662.300000011921","img/question_3_10.jpeg","7","spm_respsonse","0","6","mat_34","","","","","","0","12662.300000011921","","","","","","","","","","","","","","",""
"","","","","","html-keyboard-response","250","921785","0.0-3.0-4.0-0.10","63d4857d5c9e6f18b03027b3","A3","batch1","","null","<p class=block-text>Trial 35 out of 60</p>","null","spm_show_trial_num","","","","","","","","","","","","","","","","","","","","","","","","",""
"","","","","","image-button-response","251","942930","0.0-3.0-4.0-1.10","63d4857d5c9e6f18b03027b3","A3","batch1","","21141.19999998808","img/question_3_11.jpeg","0","spm_respsonse","1","1","mat_35","","","","","","1","21141.19999998808","","","","","","","","","","","","","","",""
"","","","","","html-keyboard-response","252","943993","0.0-3.0-4.0-0.11","63d4857d5c9e6f18b03027b3","A3","batch1","","null","<p class=block-text>Trial 36 out of 60</p>","null","spm_show_trial_num","","","","","","","","","","","","","","","","","","","","","","","","",""
"","","","","","image-button-response","253","952967","0.0-3.0-4.0-1.11","63d4857d5c9e6f18b03027b3","A3","batch1","","8969.5","img/question_3_12.jpeg","7","spm_respsonse","0","2","mat_36","","","","","","0","8969.5","","","","","","","","","","","","","","",""
"","","","","","html-keyboard-response","254","954036","0.0-3.0-4.0-0.12","63d4857d5c9e6f18b03027b3","A3","batch1","","null","<p class=block-text>Trial 37 out of 60</p>","null","spm_show_trial_num","","","","","","","","","","","","","","","","","","","","","","","","",""
"","","","","","image-button-response","255","957970","0.0-3.0-4.0-1.12","63d4857d5c9e6f18b03027b3","A3","batch1","","3930.399999976158","img/question_4_1.jpeg","2","spm_respsonse","1","3","mat_37","","","","","","1","3930.399999976158","","","","","","","","","","","","","","",""
"","","","","","html-keyboard-response","256","959035","0.0-3.0-4.0-0.13","63d4857d5c9e6f18b03027b3","A3","batch1","","null","<p class=block-text>Trial 38 out of 60</p>","null","spm_show_trial_num","","","","","","","","","","","","","","","","","","","","","","","","",""
"","","","","","image-button-response","257","964702","0.0-3.0-4.0-1.13","63d4857d5c9e6f18b03027b3","A3","batch1","","5665.399999976158","img/question_4_2.jpeg","3","spm_respsonse","1","4","mat_38","","","","","","1","5665.399999976158","","","","","","","","","","","","","","",""
"","","","","","html-keyboard-response","258","965765","0.0-3.0-4.0-0.14","63d4857d5c9e6f18b03027b3","A3","batch1","","null","<p class=block-text>Trial 39 out of 60</p>","null","spm_show_trial_num","","","","","","","","","","","","","","","","","","","","","","","","",""
"","","","","","image-button-response","259","975947","0.0-3.0-4.0-1.14","63d4857d5c9e6f18b03027b3","A3","batch1","","10177.899999976158","img/question_4_3.jpeg","2","spm_respsonse","1","3","mat_39","","","","","","1","10177.899999976158","","","","","","","","","","","","","","",""
"","","","","","html-keyboard-response","260","977019","0.0-3.0-4.0-0.15","63d4857d5c9e6f18b03027b3","A3","batch1","","null","<p class=block-text>Trial 40 out of 60</p>","null","spm_show_trial_num","","","","","","","","","","","","","","","","","","","","","","","","",""
"","","","","","image-button-response","261","984157","0.0-3.0-4.0-1.15","63d4857d5c9e6f18b03027b3","A3","batch1","","7134.099999964237","img/question_4_4.jpeg","6","spm_respsonse","1","7","mat_40","","","","","","1","7134.099999964237","","","","","","","","","","","","","","",""
"","","","","","html-keyboard-response","262","985235","0.0-3.0-4.0-0.16","63d4857d5c9e6f18b03027b3","A3","batch1","","null","<p class=block-text>Trial 41 out of 60</p>","null","spm_show_trial_num","","","","","","","","","","","","","","","","","","","","","","","","",""
"","","","","","image-button-response","263","1000692","0.0-3.0-4.0-1.16","63d4857d5c9e6f18b03027b3","A3","batch1","","15453.099999964237","img/question_4_5.jpeg","7","spm_respsonse","1","8","mat_41","","","","","","1","15453.099999964237","","","","","","","","","","","","","","",""
"","","","","","html-keyboard-response","264","1001763","0.0-3.0-4.0-0.17","63d4857d5c9e6f18b03027b3","A3","batch1","","null","<p class=block-text>Trial 42 out of 60</p>","null","spm_show_trial_num","","","","","","","","","","","","","","","","","","","","","","","","",""
"","","","","","image-button-response","265","1019826","0.0-3.0-4.0-1.17","63d4857d5c9e6f18b03027b3","A3","batch1","","18058.80000001192","img/question_4_6.jpeg","5","spm_respsonse","1","6","mat_42","","","","","","1","18058.80000001192","","","","","","","","","","","","","","",""
"","","","","","html-keyboard-response","266","1020901","0.0-3.0-4.0-0.18","63d4857d5c9e6f18b03027b3","A3","batch1","","null","<p class=block-text>Trial 43 out of 60</p>","null","spm_show_trial_num","","","","","","","","","","","","","","","","","","","","","","","","",""
"","","","","","image-button-response","267","1032662","0.0-3.0-4.0-1.18","63d4857d5c9e6f18b03027b3","A3","batch1","","11756.5","img/question_4_7.jpeg","3","spm_respsonse","0","5","mat_43","","","","","","0","11756.5","","","","","","","","","","","","","","",""
"","","","","","html-keyboard-response","268","1033729","0.0-3.0-4.0-0.19","63d4857d5c9e6f18b03027b3","A3","batch1","","null","<p class=block-text>Trial 44 out of 60</p>","null","spm_show_trial_num","","","","","","","","","","","","","","","","","","","","","","","","",""
"","","","","","image-button-response","269","1056636","0.0-3.0-4.0-1.19","63d4857d5c9e6f18b03027b3","A3","batch1","","22903.30000001192","img/question_4_8.jpeg","3","spm_respsonse","1","4","mat_44","","","","","","1","22903.30000001192","","","","","","","","","","","","","","",""
"","","","","","html-keyboard-response","270","1057695","0.0-3.0-4.0-0.20","63d4857d5c9e6f18b03027b3","A3","batch1","","null","<p class=block-text>Trial 45 out of 60</p>","null","spm_show_trial_num","","","","","","","","","","","","","","","","","","","","","","","","",""
"","","","","","image-button-response","271","1083494","0.0-3.0-4.0-1.20","63d4857d5c9e6f18b03027b3","A3","batch1","","25793.899999976158","img/question_4_9.jpeg","0","spm_respsonse","1","1","mat_45","","","","","","1","25793.899999976158","","","","","","","","","","","","","","",""
"","","","","","html-keyboard-response","272","1084556","0.0-3.0-4.0-0.21","63d4857d5c9e6f18b03027b3","A3","batch1","","null","<p class=block-text>Trial 46 out of 60</p>","null","spm_show_trial_num","","","","","","","","","","","","","","","","","","","","","","","","",""
"","","","","","image-button-response","273","1102088","0.0-3.0-4.0-1.21","63d4857d5c9e6f18b03027b3","A3","batch1","","17527.899999976158","img/question_4_10.jpeg","1","spm_respsonse","1","2","mat_46","","","","","","1","17527.899999976158","","","","","","","","","","","","","","",""
"","","","","","html-keyboard-response","274","1103144","0.0-3.0-4.0-0.22","63d4857d5c9e6f18b03027b3","A3","batch1","","null","<p class=block-text>Trial 47 out of 60</p>","null","spm_show_trial_num","","","","","","","","","","","","","","","","","","","","","","","","",""
"","","","","","image-button-response","275","1129346","0.0-3.0-4.0-1.22","63d4857d5c9e6f18b03027b3","A3","batch1","","26198","img/question_4_11.jpeg","7","spm_respsonse","0","5","mat_47","","","","","","0","26198","","","","","","","","","","","","","","",""
"","","","","","html-keyboard-response","276","1130407","0.0-3.0-4.0-0.23","63d4857d5c9e6f18b03027b3","A3","batch1","","null","<p class=block-text>Trial 48 out of 60</p>","null","spm_show_trial_num","","","","","","","","","","","","","","","","","","","","","","","","",""
"","","","","","image-button-response","277","1172728","0.0-3.0-4.0-1.23","63d4857d5c9e6f18b03027b3","A3","batch1","","42317.30000001192","img/question_4_12.jpeg","0","spm_respsonse","0","6","mat_48","","","","","","0","42317.30000001192","","","","","","","","","","","","","","",""
"","","","","","html-keyboard-response","278","1173786","0.0-3.0-4.0-0.24","63d4857d5c9e6f18b03027b3","A3","batch1","","null","<p class=block-text>Trial 49 out of 60</p>","null","spm_show_trial_num","","","","","","","","","","","","","","","","","","","","","","","","",""
"","","","","","image-button-response","279","1181530","0.0-3.0-4.0-1.24","63d4857d5c9e6f18b03027b3","A3","batch1","","7740.5","img/question_5_1.jpeg","6","spm_respsonse","1","7","mat_49","","","","","","1","7740.5","","","","","","","","","","","","","","",""
"","","","","","html-keyboard-response","280","1182589","0.0-3.0-4.0-0.25","63d4857d5c9e6f18b03027b3","A3","batch1","","null","<p class=block-text>Trial 50 out of 60</p>","null","spm_show_trial_num","","","","","","","","","","","","","","","","","","","","","","","","",""
"","","","","","image-button-response","281","1201068","0.0-3.0-4.0-1.25","63d4857d5c9e6f18b03027b3","A3","batch1","","18474.399999976158","img/question_5_2.jpeg","2","spm_respsonse","0","6","mat_50","","","","","","0","18474.399999976158","","","","","","","","","","","","","","",""
"","","","","","html-keyboard-response","282","1202135","0.0-3.0-4.0-0.26","63d4857d5c9e6f18b03027b3","A3","batch1","","null","<p class=block-text>Trial 51 out of 60</p>","null","spm_show_trial_num","","","","","","","","","","","","","","","","","","","","","","","","",""
"","","","","","image-button-response","283","1224129","0.0-3.0-4.0-1.26","63d4857d5c9e6f18b03027b3","A3","batch1","","21992.30000001192","img/question_5_3.jpeg","2","spm_respsonse","0","8","mat_51","","","","","","0","21992.30000001192","","","","","","","","","","","","","","",""
"","","","","","html-keyboard-response","284","1225190","0.0-3.0-4.0-0.27","63d4857d5c9e6f18b03027b3","A3","batch1","","null","<p class=block-text>Trial 52 out of 60</p>","null","spm_show_trial_num","","","","","","","","","","","","","","","","","","","","","","","","",""
"","","","","","image-button-response","285","1240024","0.0-3.0-4.0-1.27","63d4857d5c9e6f18b03027b3","A3","batch1","","14829.899999976158","img/question_5_4.jpeg","4","spm_respsonse","0","2","mat_52","","","","","","0","14829.899999976158","","","","","","","","","","","","","","",""
"","","","","","html-keyboard-response","286","1241101","0.0-3.0-4.0-0.28","63d4857d5c9e6f18b03027b3","A3","batch1","","null","<p class=block-text>Trial 53 out of 60</p>","null","spm_show_trial_num","","","","","","","","","","","","","","","","","","","","","","","","",""
"","","","","","image-button-response","287","1248234","0.0-3.0-4.0-1.28","63d4857d5c9e6f18b03027b3","A3","batch1","","7131.100000023842","img/question_5_5.jpeg","6","spm_respsonse","0","1","mat_53","","","","","","0","7131.100000023842","","","","","","","","","","","","","","",""
"","","","","","html-keyboard-response","288","1249302","0.0-3.0-4.0-0.29","63d4857d5c9e6f18b03027b3","A3","batch1","","null","<p class=block-text>Trial 54 out of 60</p>","null","spm_show_trial_num","","","","","","","","","","","","","","","","","","","","","","","","",""
"","","","","","image-button-response","289","1267565","0.0-3.0-4.0-1.29","63d4857d5c9e6f18b03027b3","A3","batch1","","18259.30000001192","img/question_5_6.jpeg","3","spm_respsonse","0","5","mat_54","","","","","","0","18259.30000001192","","","","","","","","","","","","","","",""
"","","","","","html-keyboard-response","290","1268623","0.0-3.0-4.0-0.30","63d4857d5c9e6f18b03027b3","A3","batch1","","null","<p class=block-text>Trial 55 out of 60</p>","null","spm_show_trial_num","","","","","","","","","","","","","","","","","","","","","","","","",""
"","","","","","image-button-response","291","1285781","0.0-3.0-4.0-1.30","63d4857d5c9e6f18b03027b3","A3","batch1","","17154.899999976158","img/question_5_7.jpeg","3","spm_respsonse","0","1","mat_55","","","","","","0","17154.899999976158","","","","","","","","","","","","","","",""
"","","","","","html-keyboard-response","292","1286852","0.0-3.0-4.0-0.31","63d4857d5c9e6f18b03027b3","A3","batch1","","null","<p class=block-text>Trial 56 out of 60</p>","null","spm_show_trial_num","","","","","","","","","","","","","","","","","","","","","","","","",""
"","","","","","image-button-response","293","1300650","0.0-3.0-4.0-1.31","63d4857d5c9e6f18b03027b3","A3","batch1","","13793.399999976158","img/question_5_8.jpeg","7","spm_respsonse","0","6","mat_56","","","","","","0","13793.399999976158","","","","","","","","","","","","","","",""
"","","","","","html-keyboard-response","294","1301712","0.0-3.0-4.0-0.32","63d4857d5c9e6f18b03027b3","A3","batch1","","null","<p class=block-text>Trial 57 out of 60</p>","null","spm_show_trial_num","","","","","","","","","","","","","","","","","","","","","","","","",""
"","","","","","image-button-response","295","1314935","0.0-3.0-4.0-1.32","63d4857d5c9e6f18b03027b3","A3","batch1","","13220.300000011921","img/question_5_9.jpeg","4","spm_respsonse","0","3","mat_57","","","","","","0","13220.300000011921","","","","","","","","","","","","","","",""
"","","","","","html-keyboard-response","296","1316002","0.0-3.0-4.0-0.33","63d4857d5c9e6f18b03027b3","A3","batch1","","null","<p class=block-text>Trial 58 out of 60</p>","null","spm_show_trial_num","","","","","","","","","","","","","","","","","","","","","","","","",""
"","","","","","image-button-response","297","1327820","0.0-3.0-4.0-1.33","63d4857d5c9e6f18b03027b3","A3","batch1","","11815.699999988079","img/question_5_10.jpeg","6","spm_respsonse","0","2","mat_58","","","","","","0","11815.699999988079","","","","","","","","","","","","","","",""
"","","","","","html-keyboard-response","298","1328885","0.0-3.0-4.0-0.34","63d4857d5c9e6f18b03027b3","A3","batch1","","null","<p class=block-text>Trial 59 out of 60</p>","null","spm_show_trial_num","","","","","","","","","","","","","","","","","","","","","","","","",""
"","","","","","image-button-response","299","1342828","0.0-3.0-4.0-1.34","63d4857d5c9e6f18b03027b3","A3","batch1","","13941.5","img/question_5_11.jpeg","5","spm_respsonse","0","4","mat_59","","","","","","0","13941.5","","","","","","","","","","","","","","",""
"","","","","","html-keyboard-response","300","1343903","0.0-3.0-4.0-0.35","63d4857d5c9e6f18b03027b3","A3","batch1","","null","<p class=block-text>Trial 60 out of 60</p>","null","spm_show_trial_num","","","","","","","","","","","","","","","","","","","","","","","","",""
"","","","","","image-button-response","301","1360310","0.0-3.0-4.0-1.35","63d4857d5c9e6f18b03027b3","A3","batch1","","16403.19999998808","img/question_5_12.jpeg","5","spm_respsonse","0","5","mat_60","","","","","","0","16403.19999998808","","","","","","","","","","","","","","",""
"","","","","","html-button-response","302","1362418","0.0-3.0-5.0","63d4857d5c9e6f18b03027b3","A3","batch1","","1845.1000000238419","<p class= block-text>This concludes the Standard Progressive Matrix game. Thank you for your responses!<br> When you are ready, click the button continue</p>","0","spm_goodbye","","","","","","","","","","","","","","","","","","","","","","","","",""
"true","","","","","fullscreen","303","1409323","0.0-4.0-0.0","63d4857d5c9e6f18b03027b3","A3","batch1","","","","","","","","","","","","","","","","","","","","","","","","","","","","","",""
"","","","","","instructions","304","1545136","0.0-4.0-1.0-0.0-0.0","63d4857d5c9e6f18b03027b3","A3","batch1","[{""page_index"":0,""viewing_time"":53077.40000003576},{""page_index"":1,""viewing_time"":36848.09999996424},{""page_index"":2,""viewing_time"":9102.100000023842},{""page_index"":3,""viewing_time"":12597.300000011921},{""page_index"":4,""viewing_time"":11916.599999964237},{""page_index"":5,""viewing_time"":10005.900000035763},{""page_index"":6,""viewing_time"":2263.699999988079}]","135811.5","","","tol-instructions","","","","","","","","","","","","","","","","","","","","","","","","",""
"","","","","","html-button-response","305","1546132","0.0-4.0-1.0-1.0-0.0","63d4857d5c9e6f18b03027b3","A3","batch1","","995.6999999880791","<p class=block-text> Let's answer a few questions <br>","0","tol_enter_quiz","","","","","","","","","","","","","","","","","","","","","","","","",""
"","","","","","html-button-response","306","1550030","0.0-4.0-1.0-1.0-1.0","63d4857d5c9e6f18b03027b3","A3","batch1","","3896","<p class = block-text>True or False: You can only move the ball on top of a peg. <br></p>","0","tol_quiz","true","","","","","","","","","","","","","","","","","","","","","","","",""
"","","","","","html-button-response","307","1551133","0.0-4.0-1.0-1.0-2.0","63d4857d5c9e6f18b03027b3","A3","batch1","","1101.6000000238419","<p class = block-text>Correct! You can only move the ball on top of a peg.</p>","0","tol_quiz_feedback","","","","","","","","","","","","","","","","","","","","","","","","",""
"","","","","","html-button-response","308","1554278","0.0-4.0-1.0-1.0-3.0","63d4857d5c9e6f18b03027b3","A3","batch1","","3144.2000000476837","<p class = block-text>True or False: You should try to match your board with the target board with fewest moves possible. <br></p>","0","tol_quiz","true","","","","","","","","","","","","","","","","","","","","","","","",""
"","","","","","html-button-response","309","1555280","0.0-4.0-1.0-1.0-4.0","63d4857d5c9e6f18b03027b3","A3","batch1","","1000.8000000119209","<p class = block-text>Correct! </p>","0","tol_quiz_feedback","","","","","","","","","","","","","","","","","","","","","","","","",""
"","","","","","html-button-response","310","1557016","0.0-4.0-2.0","63d4857d5c9e6f18b03027b3","A3","batch1","","1733.3999999761581","<p class=block-text> Now that you've understood the game, let's practice a few easier examples before we start!<br> <br>","0","","","","","","","","","","","","","","","","","","","","","","","","","",""
"","","","","","single-stim-button","311","1560128","0.0-4.0-3.0-0.0","63d4857d5c9e6f18b03027b3","A3","batch1","","3110","","","tol_practice","","","","","","","","","","","tol_peg_2","3110","3110","0","[[1,2,0],[0,0],[0]]","1","[[1,2,0],[0,0],[3]]","practice","3110","","","","","",""
"","","","","","single-stim-button","312","1561762","0.0-4.0-3.0-1.0","63d4857d5c9e6f18b03027b3","A3","batch1","","1634","","","tol_practice","","","","","","","","","","","tol_peg_3","1634","1634","0","[[1,2,0],[0,0],[3]]","1","[[1,2,0],[0,0],[3]]","practice","1634","","","","","",""
"","","","","","poldrack-single-stim","313","1562765","0.0-4.0-4.0","63d4857d5c9e6f18b03027b3","A3","batch1","","-1","","","tol_feedback","true","","","","","","","","","","","1000","1000","500","","","","","","-1","none","true","","0",""
"","","","","","single-stim-button","314","1567184","0.0-4.0-5.0-0.0","63d4857d5c9e6f18b03027b3","A3","batch1","","4419","","","tol_practice","","","","","","","","","","","tol_peg_1","4419","4419","0","[[1,0,0],[3,0],[0]]","2","[[0,0,0],[3,1],[2]]","practice","4419","","","","","",""
"","","","","","single-stim-button","315","1568724","0.0-4.0-5.0-1.0","63d4857d5c9e6f18b03027b3","A3","batch1","","1539","","","tol_practice","","","","","","","","","","","tol_peg_3","1539","1539","0","[[1,0,0],[3,0],[2]]","2","[[0,0,0],[3,1],[2]]","practice","1539","","","","","",""
"","","","","","single-stim-button","316","1570024","0.0-4.0-5.1-0.1","63d4857d5c9e6f18b03027b3","A3","batch1","","1298","","","tol_practice","","","","","","","","","","","tol_peg_1","1298","1298","0","[[0,0,0],[3,0],[2]]","3","[[0,0,0],[3,1],[2]]","practice","1298","","","","","",""
"","","","","","single-stim-button","317","1570980","0.0-4.0-5.1-1.1","63d4857d5c9e6f18b03027b3","A3","batch1","","956","","","tol_practice","","","","","","","","","","","tol_peg_2","956","956","0","[[0,0,0],[3,1],[2]]","3","[[0,0,0],[3,1],[2]]","practice","956","","","","","",""
"","","","","","poldrack-single-stim","318","1571982","0.0-4.0-6.0","63d4857d5c9e6f18b03027b3","A3","batch1","","-1","","","tol_feedback","true","","","","","","","","","","","1000","1000","500","","","","","","-1","none","true","","0",""
"","","","","","single-stim-button","319","1575982","0.0-4.0-7.0-0.0","63d4857d5c9e6f18b03027b3","A3","batch1","","4000","","","tol_practice","","","","","","","","","","","tol_peg_2","4000","4000","0","[[1,2,0],[0,0],[0]]","4","[[1,0,0],[2,0],[3]]","practice","4000","","","","","",""
"","","","","","single-stim-button","320","1577320","0.0-4.0-7.0-1.0","63d4857d5c9e6f18b03027b3","A3","batch1","","1336","","","tol_practice","","","","","","","","","","","tol_peg_3","1336","1336","0","[[1,2,0],[0,0],[3]]","4","[[1,0,0],[2,0],[3]]","practice","1336","","","","","",""
"","","","","","single-stim-button","321","1578650","0.0-4.0-7.1-0.1","63d4857d5c9e6f18b03027b3","A3","batch1","","1330","","","tol_practice","","","","","","","","","","","tol_peg_1","1330","1330","0","[[1,0,0],[0,0],[3]]","5","[[1,0,0],[2,0],[3]]","practice","1330","","","","","",""
"","","","","","single-stim-button","322","1579686","0.0-4.0-7.1-1.1","63d4857d5c9e6f18b03027b3","A3","batch1","","1035","","","tol_practice","","","","","","","","","","","tol_peg_2","1035","1035","0","[[1,0,0],[2,0],[3]]","5","[[1,0,0],[2,0],[3]]","practice","1035","","","","","",""
"","","","","","poldrack-single-stim","323","1580702","0.0-4.0-8.0","63d4857d5c9e6f18b03027b3","A3","batch1","","-1","","","tol_feedback","true","","","","","","","","","","","1000","1000","500","","","","","","-1","none","true","","0",""
"","","","","","html-button-response","324","1583364","0.0-4.0-9.0","63d4857d5c9e6f18b03027b3","A3","batch1","","2660.900000035763","<div class = centerbox><p class = center-block-text>Great job! You are done with practice trials<br>You are about to start official trials.<br> <br> Problem <strong>1</strong> out of 25 problems</p></div>","0","tol_instruction","","","","","","","","","","","","","","","","","","","","","","","","",""
"","","","","","single-stim-button","325","1588942","0.0-4.0-10.0-0.0","63d4857d5c9e6f18b03027b3","A3","batch1","","4569","","","tol_tohand","","","","","","","","","","","tol_peg_1","4569","4569","0","[[1,0,0],[3,0],[0]]","1","[[1,3,0],[2,0],[0]]","0","0","","","","","","3"
"","","","","","single-stim-button","326","1590398","0.0-4.0-10.0-1.0","63d4857d5c9e6f18b03027b3","A3","batch1","","1455","","","tol_toboard","","","","","","","","","","","tol_peg_3","1455","1455","0","[[1,0,0],[3,0],[2]]","1","[[1,3,0],[2,0],[0]]","0","0","","","","","","3"
"","","","","","single-stim-button","327","1592079","0.0-4.0-10.1-0.1","63d4857d5c9e6f18b03027b3","A3","batch1","","1679","","","tol_tohand","","","","","","","","","","","tol_peg_2","1679","1679","0","[[1,0,0],[0,0],[2]]","2","[[1,3,0],[2,0],[0]]","0","0","","","","","","3"
"","","","","","single-stim-button","328","1593594","0.0-4.0-10.1-1.1","63d4857d5c9e6f18b03027b3","A3","batch1","","1515","","","tol_toboard","","","","","","","","","","","tol_peg_1","1515","1515","0","[[1,3,0],[0,0],[2]]","2","[[1,3,0],[2,0],[0]]","0","0","","","","","","3"
"","","","","","single-stim-button","329","1595507","0.0-4.0-10.2-0.2","63d4857d5c9e6f18b03027b3","A3","batch1","","1912","","","tol_tohand","","","","","","","","","","","tol_peg_3","1912","1912","0","[[1,3,0],[0,0],[0]]","3","[[1,3,0],[2,0],[0]]","0","0","","","","","","3"
"","","","","","single-stim-button","330","1596170","0.0-4.0-10.2-1.2","63d4857d5c9e6f18b03027b3","A3","batch1","","662","","","tol_toboard","","","","","","","","","","","tol_peg_2","662","662","0","[[1,3,0],[2,0],[0]]","3","[[1,3,0],[2,0],[0]]","0","0","","","","","","3"
"","","","","","poldrack-single-stim","331","1597178","0.0-4.0-11.0","63d4857d5c9e6f18b03027b3","A3","batch1","","-1","","","tol_feedback","true","","","","","","","","","","","1000","1000","500","","","","","","-1","none","true","4569","8160",""
"","","","","","html-button-response","332","1598782","0.0-4.0-12.0","63d4857d5c9e6f18b03027b3","A3","batch1","","1602.9000000357628","<div class = centerbox><p class = center-block-text>problem <strong>2</strong> out of 25 problems</p></div>","0","tol_trial_num","","","","","","","","","","","","","","","","","","","","","","","","",""
"","","","","","single-stim-button","333","1611300","0.0-4.0-13.0-0.0","63d4857d5c9e6f18b03027b3","A3","batch1","","12516","","","tol_tohand","","","","","","","","","","","tol_peg_1","12516","12516","0","[[1,0,0],[3,0],[0]]","1","[[2,1,3],[0,0],[0]]","1","0","","","","","","5"
"","","","","","single-stim-button","334","1615648","0.0-4.0-13.0-1.0","63d4857d5c9e6f18b03027b3","A3","batch1","","4347","","","tol_toboard","","","","","","","","","","","tol_peg_3","4347","4347","0","[[1,0,0],[3,0],[2]]","1","[[2,1,3],[0,0],[0]]","1","0","","","","","","5"
"","","","","","single-stim-button","335","1617203","0.0-4.0-13.1-0.1","63d4857d5c9e6f18b03027b3","A3","batch1","","1554","","","tol_tohand","","","","","","","","","","","tol_peg_1","1554","1554","0","[[0,0,0],[3,0],[2]]","2","[[2,1,3],[0,0],[0]]","1","0","","","","","","5"
"","","","","","single-stim-button","336","1618068","0.0-4.0-13.1-1.1","63d4857d5c9e6f18b03027b3","A3","batch1","","864","","","tol_toboard","","","","","","","","","","","tol_peg_2","864","864","0","[[0,0,0],[3,1],[2]]","2","[[2,1,3],[0,0],[0]]","1","0","","","","","","5"
"","","","","","single-stim-button","337","1619081","0.0-4.0-13.2-0.2","63d4857d5c9e6f18b03027b3","A3","batch1","","1011","","","tol_tohand","","","","","","","","","","","tol_peg_3","1011","1011","0","[[0,0,0],[3,1],[0]]","3","[[2,1,3],[0,0],[0]]","1","0","","","","","","5"
"","","","","","single-stim-button","338","1620534","0.0-4.0-13.2-1.2","63d4857d5c9e6f18b03027b3","A3","batch1","","1453","","","tol_toboard","","","","","","","","","","","tol_peg_1","1453","1453","0","[[2,0,0],[3,1],[0]]","3","[[2,1,3],[0,0],[0]]","1","0","","","","","","5"
"","","","","","single-stim-button","339","1621701","0.0-4.0-13.3-0.3","63d4857d5c9e6f18b03027b3","A3","batch1","","1166","","","tol_tohand","","","","","","","","","","","tol_peg_2","1166","1166","0","[[2,0,0],[3,0],[0]]","4","[[2,1,3],[0,0],[0]]","1","0","","","","","","5"
"","","","","","single-stim-button","340","1623234","0.0-4.0-13.3-1.3","63d4857d5c9e6f18b03027b3","A3","batch1","","1532","","","tol_toboard","","","","","","","","","","","tol_peg_1","1532","1532","0","[[2,1,0],[3,0],[0]]","4","[[2,1,3],[0,0],[0]]","1","0","","","","","","5"
"","","","","","single-stim-button","341","1623988","0.0-4.0-13.4-0.4","63d4857d5c9e6f18b03027b3","A3","batch1","","754","","","tol_tohand","","","","","","","","","","","tol_peg_2","754","754","0","[[2,1,0],[0,0],[0]]","5","[[2,1,3],[0,0],[0]]","1","0","","","","","","5"
"","","","","","single-stim-button","342","1624866","0.0-4.0-13.4-1.4","63d4857d5c9e6f18b03027b3","A3","batch1","","876","","","tol_toboard","","","","","","","","","","","tol_peg_1","876","876","0","[[2,1,3],[0,0],[0]]","5","[[2,1,3],[0,0],[0]]","1","0","","","","","","5"
"","","","","","poldrack-single-stim","343","1625869","0.0-4.0-14.0","63d4857d5c9e6f18b03027b3","A3","batch1","","-1","","","tol_feedback","true","","","","","","","","","","","1000","1000","500","","","","","","-1","none","true","12516","17001",""
"","","","","","html-button-response","344","1626951","0.0-4.0-15.0","63d4857d5c9e6f18b03027b3","A3","batch1","","1081.1000000238419","<div class = centerbox><p class = center-block-text>problem <strong>3</strong> out of 25 problems</p></div>","0","tol_trial_num","","","","","","","","","","","","","","","","","","","","","","","","",""
"","","","","","single-stim-button","345","1634364","0.0-4.0-16.0-0.0","63d4857d5c9e6f18b03027b3","A3","batch1","","7412","","","tol_tohand","","","","","","","","","","","tol_peg_1","7412","7412","0","[[2,0,0],[0,0],[1]]","1","[[1,2,0],[3,0],[0]]","2","0","","","","","","4"
"","","","","","single-stim-button","346","1635368","0.0-4.0-16.0-1.0","63d4857d5c9e6f18b03027b3","A3","batch1","","1003","","","tol_toboard","","","","","","","","","","","tol_peg_2","1003","1003","0","[[2,0,0],[3,0],[1]]","1","[[1,2,0],[3,0],[0]]","2","0","","","","","","4"
"","","","","","single-stim-button","347","1636713","0.0-4.0-16.1-0.1","63d4857d5c9e6f18b03027b3","A3","batch1","","1344","","","tol_tohand","","","","","","","","","","","tol_peg_1","1344","1344","0","[[0,0,0],[3,0],[1]]","2","[[1,2,0],[3,0],[0]]","2","0","","","","","","4"
