"success","timeout","failed_images","failed_audio","failed_video","trial_type","trial_index","time_elapsed","internal_node_id","subject_id","study_id","session_id","task","rt","stimulus","response","item","answer","correct","spm_correct","spm_rt","view_history","fiar_detect_rt","fiar_detect_correct","total_correct_fiar_detect","post_trial_gap","choices","mouse_click","stim_duration","block_duration","timing_post_trial","current_position","tol_num_moves_made","tol_target","tol_problem_id","tol_rt","key_press","possible_responses","tol_correct","preplanning","tol_rt_per_trial","tol_min_moves"
"true","false","[]","[]","[]","preload","0","877","0.0-0.0","63d418d4229ed6c0712ce5bb","E1","batch5","","","","","","","","","","","","","","","","","","","","","","","","","","","","","",""
"true","","","","","fullscreen","1","5525","0.0-1.0-0.0","63d418d4229ed6c0712ce5bb","E1","batch5","","","","","","","","","","","","","","","","","","","","","","","","","","","","","",""
"true","","","","","fullscreen","2","9096","0.0-2.0-0.0","63d418d4229ed6c0712ce5bb","E1","batch5","spm_fullscreen","","","","","","","","","","","","","","","","","","","","","","","","","","","","",""
"","","","","","html-button-response","3","17089","0.0-2.0-1.0","63d418d4229ed6c0712ce5bb","E1","batch5","","7991.5","<p class = block-text><b>Instructions</b> <br>This is a widely used intelligence test in research. <br>In this test, a figure with a missing piece will be presented.<br>Below the figure are alternative pieces to complete the figure, only one of which is correct.<br> Different figures might involve different principles for obtaining the missing piece<br>Your job is to select the most logical piece to complete the figure.</p>","0","","","","","","","","","","","","","","","","","","","","","","","","","",""
"","","","","","html-keyboard-response","4","17901","0.0-2.0-2.0-0.0","63d418d4229ed6c0712ce5bb","E1","batch5","spm_show_trial_num","null","<p class=block-text>Trial 1 out of 60</p>","null","","","","","","","","","","","","","","","","","","","","","","","","","",""
"","","","","","image-button-response","5","23021","0.0-2.0-2.0-1.0","63d418d4229ed6c0712ce5bb","E1","batch5","spm_respsonse","5116.799999952316","img/question_1_1.jpeg","3","mat_01","4","1","1","5116.799999952316","","","","","","","","","","","","","","","","","","","","",""
"","","","","","html-keyboard-response","6","24089","0.0-2.0-2.0-0.1","63d418d4229ed6c0712ce5bb","E1","batch5","spm_show_trial_num","null","<p class=block-text>Trial 2 out of 60</p>","null","","","","","","","","","","","","","","","","","","","","","","","","","",""
"","","","","","image-button-response","7","26330","0.0-2.0-2.0-1.1","63d418d4229ed6c0712ce5bb","E1","batch5","spm_respsonse","2240.5","img/question_1_2.jpeg","4","mat_02","5","1","1","2240.5","","","","","","","","","","","","","","","","","","","","",""
"","","","","","html-keyboard-response","8","27396","0.0-2.0-2.0-0.2","63d418d4229ed6c0712ce5bb","E1","batch5","spm_show_trial_num","null","<p class=block-text>Trial 3 out of 60</p>","null","","","","","","","","","","","","","","","","","","","","","","","","","",""
"","","","","","image-button-response","9","29579","0.0-2.0-2.0-1.2","63d418d4229ed6c0712ce5bb","E1","batch5","spm_respsonse","2180.7000000476837","img/question_1_3.jpeg","0","mat_03","1","1","1","2180.7000000476837","","","","","","","","","","","","","","","","","","","","",""
"","","","","","html-keyboard-response","10","30637","0.0-2.0-2.0-0.3","63d418d4229ed6c0712ce5bb","E1","batch5","spm_show_trial_num","null","<p class=block-text>Trial 4 out of 60</p>","null","","","","","","","","","","","","","","","","","","","","","","","","","",""
"","","","","","image-button-response","11","35592","0.0-2.0-2.0-1.3","63d418d4229ed6c0712ce5bb","E1","batch5","spm_respsonse","4954","img/question_1_4.jpeg","1","mat_04","2","1","1","4954","","","","","","","","","","","","","","","","","","","","",""
"","","","","","html-keyboard-response","12","36647","0.0-2.0-2.0-0.4","63d418d4229ed6c0712ce5bb","E1","batch5","spm_show_trial_num","null","<p class=block-text>Trial 5 out of 60</p>","null","","","","","","","","","","","","","","","","","","","","","","","","","",""
"","","","","","image-button-response","13","40057","0.0-2.0-2.0-1.4","63d418d4229ed6c0712ce5bb","E1","batch5","spm_respsonse","3409.2999999523163","img/question_1_5.jpeg","5","mat_05","6","1","1","3409.2999999523163","","","","","","","","","","","","","","","","","","","","",""
"","","","","","html-keyboard-response","14","41121","0.0-2.0-2.0-0.5","63d418d4229ed6c0712ce5bb","E1","batch5","spm_show_trial_num","null","<p class=block-text>Trial 6 out of 60</p>","null","","","","","","","","","","","","","","","","","","","","","","","","","",""
"","","","","","image-button-response","15","44394","0.0-2.0-2.0-1.5","63d418d4229ed6c0712ce5bb","E1","batch5","spm_respsonse","3271.600000143051","img/question_1_6.jpeg","2","mat_06","3","1","1","3271.600000143051","","","","","","","","","","","","","","","","","","","","",""
"","","","","","html-keyboard-response","16","45452","0.0-2.0-2.0-0.6","63d418d4229ed6c0712ce5bb","E1","batch5","spm_show_trial_num","null","<p class=block-text>Trial 7 out of 60</p>","null","","","","","","","","","","","","","","","","","","","","","","","","","",""
"","","","","","image-button-response","17","50130","0.0-2.0-2.0-1.6","63d418d4229ed6c0712ce5bb","E1","batch5","spm_respsonse","4677.300000190735","img/question_1_7.jpeg","5","mat_07","6","1","1","4677.300000190735","","","","","","","","","","","","","","","","","","","","",""
"","","","","","html-keyboard-response","18","51198","0.0-2.0-2.0-0.7","63d418d4229ed6c0712ce5bb","E1","batch5","spm_show_trial_num","null","<p class=block-text>Trial 8 out of 60</p>","null","","","","","","","","","","","","","","","","","","","","","","","","","",""
"","","","","","image-button-response","19","55277","0.0-2.0-2.0-1.7","63d418d4229ed6c0712ce5bb","E1","batch5","spm_respsonse","4077.4000000953674","img/question_1_8.jpeg","1","mat_08","2","1","1","4077.4000000953674","","","","","","","","","","","","","","","","","","","","",""
"","","","","","html-keyboard-response","20","56342","0.0-2.0-2.0-0.8","63d418d4229ed6c0712ce5bb","E1","batch5","spm_show_trial_num","null","<p class=block-text>Trial 9 out of 60</p>","null","","","","","","","","","","","","","","","","","","","","","","","","","",""
"","","","","","image-button-response","21","59743","0.0-2.0-2.0-1.8","63d418d4229ed6c0712ce5bb","E1","batch5","spm_respsonse","3399.5","img/question_1_9.jpeg","0","mat_09","1","1","1","3399.5","","","","","","","","","","","","","","","","","","","","",""
"","","","","","html-keyboard-response","22","60804","0.0-2.0-2.0-0.9","63d418d4229ed6c0712ce5bb","E1","batch5","spm_show_trial_num","null","<p class=block-text>Trial 10 out of 60</p>","null","","","","","","","","","","","","","","","","","","","","","","","","","",""
"","","","","","image-button-response","23","67244","0.0-2.0-2.0-1.9","63d418d4229ed6c0712ce5bb","E1","batch5","spm_respsonse","6437.700000047684","img/question_1_10.jpeg","2","mat_10","3","1","1","6437.700000047684","","","","","","","","","","","","","","","","","","","","",""
"","","","","","html-keyboard-response","24","68316","0.0-2.0-2.0-0.10","63d418d4229ed6c0712ce5bb","E1","batch5","spm_show_trial_num","null","<p class=block-text>Trial 11 out of 60</p>","null","","","","","","","","","","","","","","","","","","","","","","","","","",""
"","","","","","image-button-response","25","81919","0.0-2.0-2.0-1.10","63d418d4229ed6c0712ce5bb","E1","batch5","spm_respsonse","13601.5","img/question_1_11.jpeg","3","mat_11","4","1","1","13601.5","","","","","","","","","","","","","","","","","","","","",""
"","","","","","html-keyboard-response","26","82976","0.0-2.0-2.0-0.11","63d418d4229ed6c0712ce5bb","E1","batch5","spm_show_trial_num","null","<p class=block-text>Trial 12 out of 60</p>","null","","","","","","","","","","","","","","","","","","","","","","","","","",""
"","","","","","image-button-response","27","88632","0.0-2.0-2.0-1.11","63d418d4229ed6c0712ce5bb","E1","batch5","spm_respsonse","5654.599999904633","img/question_1_12.jpeg","5","mat_12","5","0","0","5654.599999904633","","","","","","","","","","","","","","","","","","","","",""
"","","","","","html-keyboard-response","28","89684","0.0-2.0-2.0-0.12","63d418d4229ed6c0712ce5bb","E1","batch5","spm_show_trial_num","null","<p class=block-text>Trial 13 out of 60</p>","null","","","","","","","","","","","","","","","","","","","","","","","","","",""
"","","","","","image-button-response","29","91505","0.0-2.0-2.0-1.12","63d418d4229ed6c0712ce5bb","E1","batch5","spm_respsonse","1819.6000001430511","img/question_2_1.jpeg","1","mat_13","2","1","1","1819.6000001430511","","","","","","","","","","","","","","","","","","","","",""
"","","","","","html-keyboard-response","30","92572","0.0-2.0-2.0-0.13","63d418d4229ed6c0712ce5bb","E1","batch5","spm_show_trial_num","null","<p class=block-text>Trial 14 out of 60</p>","null","","","","","","","","","","","","","","","","","","","","","","","","","",""
"","","","","","image-button-response","31","96129","0.0-2.0-2.0-1.13","63d418d4229ed6c0712ce5bb","E1","batch5","spm_respsonse","3555.600000143051","img/question_2_2.jpeg","5","mat_14","6","1","1","3555.600000143051","","","","","","","","","","","","","","","","","","","","",""
"","","","","","html-keyboard-response","32","97191","0.0-2.0-2.0-0.14","63d418d4229ed6c0712ce5bb","E1","batch5","spm_show_trial_num","null","<p class=block-text>Trial 15 out of 60</p>","null","","","","","","","","","","","","","","","","","","","","","","","","","",""
"","","","","","image-button-response","33","99516","0.0-2.0-2.0-1.14","63d418d4229ed6c0712ce5bb","E1","batch5","spm_respsonse","2321.7000000476837","img/question_2_3.jpeg","0","mat_15","1","1","1","2321.7000000476837","","","","","","","","","","","","","","","","","","","","",""
"","","","","","html-keyboard-response","34","100578","0.0-2.0-2.0-0.15","63d418d4229ed6c0712ce5bb","E1","batch5","spm_show_trial_num","null","<p class=block-text>Trial 16 out of 60</p>","null","","","","","","","","","","","","","","","","","","","","","","","","","",""
"","","","","","image-button-response","35","105039","0.0-2.0-2.0-1.15","63d418d4229ed6c0712ce5bb","E1","batch5","spm_respsonse","4459.199999809265","img/question_2_4.jpeg","1","mat_16","2","1","1","4459.199999809265","","","","","","","","","","","","","","","","","","","","",""
"","","","","","html-keyboard-response","36","106094","0.0-2.0-2.0-0.16","63d418d4229ed6c0712ce5bb","E1","batch5","spm_show_trial_num","null","<p class=block-text>Trial 17 out of 60</p>","null","","","","","","","","","","","","","","","","","","","","","","","","","",""
"","","","","","image-button-response","37","109613","0.0-2.0-2.0-1.16","63d418d4229ed6c0712ce5bb","E1","batch5","spm_respsonse","3517.5","img/question_2_5.jpeg","0","mat_17","1","1","1","3517.5","","","","","","","","","","","","","","","","","","","","",""
"","","","","","html-keyboard-response","38","110667","0.0-2.0-2.0-0.17","63d418d4229ed6c0712ce5bb","E1","batch5","spm_show_trial_num","null","<p class=block-text>Trial 18 out of 60</p>","null","","","","","","","","","","","","","","","","","","","","","","","","","",""
"","","","","","image-button-response","39","113558","0.0-2.0-2.0-1.17","63d418d4229ed6c0712ce5bb","E1","batch5","spm_respsonse","2888.800000190735","img/question_2_6.jpeg","2","mat_18","3","1","1","2888.800000190735","","","","","","","","","","","","","","","","","","","","",""
"","","","","","html-keyboard-response","40","114619","0.0-2.0-2.0-0.18","63d418d4229ed6c0712ce5bb","E1","batch5","spm_show_trial_num","null","<p class=block-text>Trial 19 out of 60</p>","null","","","","","","","","","","","","","","","","","","","","","","","","","",""
"","","","","","image-button-response","41","120851","0.0-2.0-2.0-1.18","63d418d4229ed6c0712ce5bb","E1","batch5","spm_respsonse","6229.700000047684","img/question_2_7.jpeg","4","mat_19","5","1","1","6229.700000047684","","","","","","","","","","","","","","","","","","","","",""
"","","","","","html-keyboard-response","42","121923","0.0-2.0-2.0-0.19","63d418d4229ed6c0712ce5bb","E1","batch5","spm_show_trial_num","null","<p class=block-text>Trial 20 out of 60</p>","null","","","","","","","","","","","","","","","","","","","","","","","","","",""
"","","","","","image-button-response","43","127916","0.0-2.0-2.0-1.19","63d418d4229ed6c0712ce5bb","E1","batch5","spm_respsonse","5991.899999856949","img/question_2_8.jpeg","5","mat_20","6","1","1","5991.899999856949","","","","","","","","","","","","","","","","","","","","",""
"","","","","","html-keyboard-response","44","128968","0.0-2.0-2.0-0.20","63d418d4229ed6c0712ce5bb","E1","batch5","spm_show_trial_num","null","<p class=block-text>Trial 21 out of 60</p>","null","","","","","","","","","","","","","","","","","","","","","","","","","",""
"","","","","","image-button-response","45","131547","0.0-2.0-2.0-1.20","63d418d4229ed6c0712ce5bb","E1","batch5","spm_respsonse","2576.9000000953674","img/question_2_9.jpeg","3","mat_21","4","1","1","2576.9000000953674","","","","","","","","","","","","","","","","","","","","",""
"","","","","","html-keyboard-response","46","132615","0.0-2.0-2.0-0.21","63d418d4229ed6c0712ce5bb","E1","batch5","spm_show_trial_num","null","<p class=block-text>Trial 22 out of 60</p>","null","","","","","","","","","","","","","","","","","","","","","","","","","",""
"","","","","","image-button-response","47","139359","0.0-2.0-2.0-1.21","63d418d4229ed6c0712ce5bb","E1","batch5","spm_respsonse","6742.5","img/question_2_10.jpeg","2","mat_22","3","1","1","6742.5","","","","","","","","","","","","","","","","","","","","",""
"","","","","","html-keyboard-response","48","140431","0.0-2.0-2.0-0.22","63d418d4229ed6c0712ce5bb","E1","batch5","spm_show_trial_num","null","<p class=block-text>Trial 23 out of 60</p>","null","","","","","","","","","","","","","","","","","","","","","","","","","",""
"","","","","","image-button-response","49","144770","0.0-2.0-2.0-1.22","63d418d4229ed6c0712ce5bb","E1","batch5","spm_respsonse","4338","img/question_2_11.jpeg","3","mat_23","4","1","1","4338","","","","","","","","","","","","","","","","","","","","",""
"","","","","","html-keyboard-response","50","145834","0.0-2.0-2.0-0.23","63d418d4229ed6c0712ce5bb","E1","batch5","spm_show_trial_num","null","<p class=block-text>Trial 24 out of 60</p>","null","","","","","","","","","","","","","","","","","","","","","","","","","",""
"","","","","","image-button-response","51","161140","0.0-2.0-2.0-1.23","63d418d4229ed6c0712ce5bb","E1","batch5","spm_respsonse","15304.599999904633","img/question_2_12.jpeg","4","mat_24","5","1","1","15304.599999904633","","","","","","","","","","","","","","","","","","","","",""
"","","","","","html-button-response","52","163114","0.0-2.0-3.0","63d418d4229ed6c0712ce5bb","E1","batch5","attention_check","1711.6000001430511","<p class = block-text>Attention check: Please choose 1<br></p>","0","","","true","","","","","","","","","","","","","","","","","","","","","","",""
"","","","","","html-keyboard-response","53","163925","0.0-2.0-4.0-0.0","63d418d4229ed6c0712ce5bb","E1","batch5","spm_show_trial_num","null","<p class=block-text>Trial 25 out of 60</p>","null","","","","","","","","","","","","","","","","","","","","","","","","","",""
"","","","","","image-button-response","54","168400","0.0-2.0-4.0-1.0","63d418d4229ed6c0712ce5bb","E1","batch5","spm_respsonse","4472.5","img/question_3_1.jpeg","7","mat_25","8","1","1","4472.5","","","","","","","","","","","","","","","","","","","","",""
"","","","","","html-keyboard-response","55","169461","0.0-2.0-4.0-0.1","63d418d4229ed6c0712ce5bb","E1","batch5","spm_show_trial_num","null","<p class=block-text>Trial 26 out of 60</p>","null","","","","","","","","","","","","","","","","","","","","","","","","","",""
"","","","","","image-button-response","56","183494","0.0-2.0-4.0-1.1","63d418d4229ed6c0712ce5bb","E1","batch5","spm_respsonse","14031.5","img/question_3_2.jpeg","1","mat_26","2","1","1","14031.5","","","","","","","","","","","","","","","","","","","","",""
"","","","","","html-keyboard-response","57","184552","0.0-2.0-4.0-0.2","63d418d4229ed6c0712ce5bb","E1","batch5","spm_show_trial_num","null","<p class=block-text>Trial 27 out of 60</p>","null","","","","","","","","","","","","","","","","","","","","","","","","","",""
"","","","","","image-button-response","58","187672","0.0-2.0-4.0-1.2","63d418d4229ed6c0712ce5bb","E1","batch5","spm_respsonse","3118.5999999046326","img/question_3_3.jpeg","2","mat_27","3","1","1","3118.5999999046326","","","","","","","","","","","","","","","","","","","","",""
"","","","","","html-keyboard-response","59","188739","0.0-2.0-4.0-0.3","63d418d4229ed6c0712ce5bb","E1","batch5","spm_show_trial_num","null","<p class=block-text>Trial 28 out of 60</p>","null","","","","","","","","","","","","","","","","","","","","","","","","","",""
"","","","","","image-button-response","60","191475","0.0-2.0-4.0-1.3","63d418d4229ed6c0712ce5bb","E1","batch5","spm_respsonse","2734.4000000953674","img/question_3_4.jpeg","7","mat_28","8","1","1","2734.4000000953674","","","","","","","","","","","","","","","","","","","","",""
"","","","","","html-keyboard-response","61","192532","0.0-2.0-4.0-0.4","63d418d4229ed6c0712ce5bb","E1","batch5","spm_show_trial_num","null","<p class=block-text>Trial 29 out of 60</p>","null","","","","","","","","","","","","","","","","","","","","","","","","","",""
"","","","","","image-button-response","62","196850","0.0-2.0-4.0-1.4","63d418d4229ed6c0712ce5bb","E1","batch5","spm_respsonse","4316.299999952316","img/question_3_5.jpeg","6","mat_29","7","1","1","4316.299999952316","","","","","","","","","","","","","","","","","","","","",""
"","","","","","html-keyboard-response","63","197903","0.0-2.0-4.0-0.5","63d418d4229ed6c0712ce5bb","E1","batch5","spm_show_trial_num","null","<p class=block-text>Trial 30 out of 60</p>","null","","","","","","","","","","","","","","","","","","","","","","","","","",""
"","","","","","image-button-response","64","201004","0.0-2.0-4.0-1.5","63d418d4229ed6c0712ce5bb","E1","batch5","spm_respsonse","3099.4000000953674","img/question_3_6.jpeg","3","mat_30","4","1","1","3099.4000000953674","","","","","","","","","","","","","","","","","","","","",""
"","","","","","html-keyboard-response","65","202067","0.0-2.0-4.0-0.6","63d418d4229ed6c0712ce5bb","E1","batch5","spm_show_trial_num","null","<p class=block-text>Trial 31 out of 60</p>","null","","","","","","","","","","","","","","","","","","","","","","","","","",""
"","","","","","image-button-response","66","209483","0.0-2.0-4.0-1.6","63d418d4229ed6c0712ce5bb","E1","batch5","spm_respsonse","7413.5","img/question_3_7.jpeg","4","mat_31","5","1","1","7413.5","","","","","","","","","","","","","","","","","","","","",""
"","","","","","html-keyboard-response","67","210535","0.0-2.0-4.0-0.7","63d418d4229ed6c0712ce5bb","E1","batch5","spm_show_trial_num","null","<p class=block-text>Trial 32 out of 60</p>","null","","","","","","","","","","","","","","","","","","","","","","","","","",""
"","","","","","image-button-response","68","219154","0.0-2.0-4.0-1.7","63d418d4229ed6c0712ce5bb","E1","batch5","spm_respsonse","8616.900000095367","img/question_3_8.jpeg","3","mat_32","1","0","0","8616.900000095367","","","","","","","","","","","","","","","","","","","","",""
"","","","","","html-keyboard-response","69","220230","0.0-2.0-4.0-0.8","63d418d4229ed6c0712ce5bb","E1","batch5","spm_show_trial_num","null","<p class=block-text>Trial 33 out of 60</p>","null","","","","","","","","","","","","","","","","","","","","","","","","","",""
"","","","","","image-button-response","70","225966","0.0-2.0-4.0-1.8","63d418d4229ed6c0712ce5bb","E1","batch5","spm_respsonse","5735.200000047684","img/question_3_9.jpeg","6","mat_33","7","1","1","5735.200000047684","","","","","","","","","","","","","","","","","","","","",""
"","","","","","html-keyboard-response","71","227021","0.0-2.0-4.0-0.9","63d418d4229ed6c0712ce5bb","E1","batch5","spm_show_trial_num","null","<p class=block-text>Trial 34 out of 60</p>","null","","","","","","","","","","","","","","","","","","","","","","","","","",""
"","","","","","image-button-response","72","240005","0.0-2.0-4.0-1.9","63d418d4229ed6c0712ce5bb","E1","batch5","spm_respsonse","12982","img/question_3_10.jpeg","7","mat_34","6","0","0","12982","","","","","","","","","","","","","","","","","","","","",""
"","","","","","html-keyboard-response","73","241064","0.0-2.0-4.0-0.10","63d418d4229ed6c0712ce5bb","E1","batch5","spm_show_trial_num","null","<p class=block-text>Trial 35 out of 60</p>","null","","","","","","","","","","","","","","","","","","","","","","","","","",""
"","","","","","image-button-response","74","244240","0.0-2.0-4.0-1.10","63d418d4229ed6c0712ce5bb","E1","batch5","spm_respsonse","3174.2000000476837","img/question_3_11.jpeg","3","mat_35","1","0","0","3174.2000000476837","","","","","","","","","","","","","","","","","","","","",""
"","","","","","html-keyboard-response","75","245327","0.0-2.0-4.0-0.11","63d418d4229ed6c0712ce5bb","E1","batch5","spm_show_trial_num","null","<p class=block-text>Trial 36 out of 60</p>","null","","","","","","","","","","","","","","","","","","","","","","","","","",""
"","","","","","image-button-response","76","257881","0.0-2.0-4.0-1.11","63d418d4229ed6c0712ce5bb","E1","batch5","spm_respsonse","12551.900000095367","img/question_3_12.jpeg","3","mat_36","2","0","0","12551.900000095367","","","","","","","","","","","","","","","","","","","","",""
"","","","","","html-keyboard-response","77","258944","0.0-2.0-4.0-0.12","63d418d4229ed6c0712ce5bb","E1","batch5","spm_show_trial_num","null","<p class=block-text>Trial 37 out of 60</p>","null","","","","","","","","","","","","","","","","","","","","","","","","","",""
"","","","","","image-button-response","78","262164","0.0-2.0-4.0-1.12","63d418d4229ed6c0712ce5bb","E1","batch5","spm_respsonse","3218.5","img/question_4_1.jpeg","2","mat_37","3","1","1","3218.5","","","","","","","","","","","","","","","","","","","","",""
"","","","","","html-keyboard-response","79","263222","0.0-2.0-4.0-0.13","63d418d4229ed6c0712ce5bb","E1","batch5","spm_show_trial_num","null","<p class=block-text>Trial 38 out of 60</p>","null","","","","","","","","","","","","","","","","","","","","","","","","","",""
"","","","","","image-button-response","80","265699","0.0-2.0-4.0-1.13","63d418d4229ed6c0712ce5bb","E1","batch5","spm_respsonse","2476.2000000476837","img/question_4_2.jpeg","3","mat_38","4","1","1","2476.2000000476837","","","","","","","","","","","","","","","","","","","","",""
"","","","","","html-keyboard-response","81","266761","0.0-2.0-4.0-0.14","63d418d4229ed6c0712ce5bb","E1","batch5","spm_show_trial_num","null","<p class=block-text>Trial 39 out of 60</p>","null","","","","","","","","","","","","","","","","","","","","","","","","","",""
"","","","","","image-button-response","82","269698","0.0-2.0-4.0-1.14","63d418d4229ed6c0712ce5bb","E1","batch5","spm_respsonse","2935","img/question_4_3.jpeg","2","mat_39","3","1","1","2935","","","","","","","","","","","","","","","","","","","","",""
"","","","","","html-keyboard-response","83","270761","0.0-2.0-4.0-0.15","63d418d4229ed6c0712ce5bb","E1","batch5","spm_show_trial_num","null","<p class=block-text>Trial 40 out of 60</p>","null","","","","","","","","","","","","","","","","","","","","","","","","","",""
"","","","","","image-button-response","84","278316","0.0-2.0-4.0-1.15","63d418d4229ed6c0712ce5bb","E1","batch5","spm_respsonse","7552.900000095367","img/question_4_4.jpeg","6","mat_40","7","1","1","7552.900000095367","","","","","","","","","","","","","","","","","","","","",""
"","","","","","html-keyboard-response","85","279383","0.0-2.0-4.0-0.16","63d418d4229ed6c0712ce5bb","E1","batch5","spm_show_trial_num","null","<p class=block-text>Trial 41 out of 60</p>","null","","","","","","","","","","","","","","","","","","","","","","","","","",""
"","","","","","image-button-response","86","286189","0.0-2.0-4.0-1.16","63d418d4229ed6c0712ce5bb","E1","batch5","spm_respsonse","6804","img/question_4_5.jpeg","7","mat_41","8","1","1","6804","","","","","","","","","","","","","","","","","","","","",""
"","","","","","html-keyboard-response","87","287240","0.0-2.0-4.0-0.17","63d418d4229ed6c0712ce5bb","E1","batch5","spm_show_trial_num","null","<p class=block-text>Trial 42 out of 60</p>","null","","","","","","","","","","","","","","","","","","","","","","","","","",""
"","","","","","image-button-response","88","298771","0.0-2.0-4.0-1.17","63d418d4229ed6c0712ce5bb","E1","batch5","spm_respsonse","11529.200000047684","img/question_4_6.jpeg","5","mat_42","6","1","1","11529.200000047684","","","","","","","","","","","","","","","","","","","","",""
"","","","","","html-keyboard-response","89","299839","0.0-2.0-4.0-0.18","63d418d4229ed6c0712ce5bb","E1","batch5","spm_show_trial_num","null","<p class=block-text>Trial 43 out of 60</p>","null","","","","","","","","","","","","","","","","","","","","","","","","","",""
"","","","","","image-button-response","90","310254","0.0-2.0-4.0-1.18","63d418d4229ed6c0712ce5bb","E1","batch5","spm_respsonse","10413.600000143051","img/question_4_7.jpeg","4","mat_43","5","1","1","10413.600000143051","","","","","","","","","","","","","","","","","","","","",""
"","","","","","html-keyboard-response","91","311316","0.0-2.0-4.0-0.19","63d418d4229ed6c0712ce5bb","E1","batch5","spm_show_trial_num","null","<p class=block-text>Trial 44 out of 60</p>","null","","","","","","","","","","","","","","","","","","","","","","","","","",""
"","","","","","image-button-response","92","318518","0.0-2.0-4.0-1.19","63d418d4229ed6c0712ce5bb","E1","batch5","spm_respsonse","7200.899999856949","img/question_4_8.jpeg","3","mat_44","4","1","1","7200.899999856949","","","","","","","","","","","","","","","","","","","","",""
"","","","","","html-keyboard-response","93","319586","0.0-2.0-4.0-0.20","63d418d4229ed6c0712ce5bb","E1","batch5","spm_show_trial_num","null","<p class=block-text>Trial 45 out of 60</p>","null","","","","","","","","","","","","","","","","","","","","","","","","","",""
"","","","","","image-button-response","94","331633","0.0-2.0-4.0-1.20","63d418d4229ed6c0712ce5bb","E1","batch5","spm_respsonse","12044.899999856949","img/question_4_9.jpeg","0","mat_45","1","1","1","12044.899999856949","","","","","","","","","","","","","","","","","","","","",""
"","","","","","html-keyboard-response","95","332685","0.0-2.0-4.0-0.21","63d418d4229ed6c0712ce5bb","E1","batch5","spm_show_trial_num","null","<p class=block-text>Trial 46 out of 60</p>","null","","","","","","","","","","","","","","","","","","","","","","","","","",""
"","","","","","image-button-response","96","345911","0.0-2.0-4.0-1.21","63d418d4229ed6c0712ce5bb","E1","batch5","spm_respsonse","13224.100000143051","img/question_4_10.jpeg","1","mat_46","2","1","1","13224.100000143051","","","","","","","","","","","","","","","","","","","","",""
"","","","","","html-keyboard-response","97","346969","0.0-2.0-4.0-0.22","63d418d4229ed6c0712ce5bb","E1","batch5","spm_show_trial_num","null","<p class=block-text>Trial 47 out of 60</p>","null","","","","","","","","","","","","","","","","","","","","","","","","","",""
"","","","","","image-button-response","98","366768","0.0-2.0-4.0-1.22","63d418d4229ed6c0712ce5bb","E1","batch5","spm_respsonse","19797.299999952316","img/question_4_11.jpeg","7","mat_47","5","0","0","19797.299999952316","","","","","","","","","","","","","","","","","","","","",""
"","","","","","html-keyboard-response","99","367821","0.0-2.0-4.0-0.23","63d418d4229ed6c0712ce5bb","E1","batch5","spm_show_trial_num","null","<p class=block-text>Trial 48 out of 60</p>","null","","","","","","","","","","","","","","","","","","","","","","","","","",""
"","","","","","image-button-response","100","388765","0.0-2.0-4.0-1.23","63d418d4229ed6c0712ce5bb","E1","batch5","spm_respsonse","20942","img/question_4_12.jpeg","6","mat_48","6","0","0","20942","","","","","","","","","","","","","","","","","","","","",""
"","","","","","html-keyboard-response","101","389831","0.0-2.0-4.0-0.24","63d418d4229ed6c0712ce5bb","E1","batch5","spm_show_trial_num","null","<p class=block-text>Trial 49 out of 60</p>","null","","","","","","","","","","","","","","","","","","","","","","","","","",""
"","","","","","image-button-response","102","399487","0.0-2.0-4.0-1.24","63d418d4229ed6c0712ce5bb","E1","batch5","spm_respsonse","9654.900000095367","img/question_5_1.jpeg","6","mat_49","7","1","1","9654.900000095367","","","","","","","","","","","","","","","","","","","","",""
"","","","","","html-keyboard-response","103","400552","0.0-2.0-4.0-0.25","63d418d4229ed6c0712ce5bb","E1","batch5","spm_show_trial_num","null","<p class=block-text>Trial 50 out of 60</p>","null","","","","","","","","","","","","","","","","","","","","","","","","","",""
"","","","","","image-button-response","104","408959","0.0-2.0-4.0-1.25","63d418d4229ed6c0712ce5bb","E1","batch5","spm_respsonse","8405.700000047684","img/question_5_2.jpeg","5","mat_50","6","1","1","8405.700000047684","","","","","","","","","","","","","","","","","","","","",""
"","","","","","html-keyboard-response","105","410029","0.0-2.0-4.0-0.26","63d418d4229ed6c0712ce5bb","E1","batch5","spm_show_trial_num","null","<p class=block-text>Trial 51 out of 60</p>","null","","","","","","","","","","","","","","","","","","","","","","","","","",""
"","","","","","image-button-response","106","421434","0.0-2.0-4.0-1.26","63d418d4229ed6c0712ce5bb","E1","batch5","spm_respsonse","11402.5","img/question_5_3.jpeg","7","mat_51","8","1","1","11402.5","","","","","","","","","","","","","","","","","","","","",""
"","","","","","html-keyboard-response","107","422506","0.0-2.0-4.0-0.27","63d418d4229ed6c0712ce5bb","E1","batch5","spm_show_trial_num","null","<p class=block-text>Trial 52 out of 60</p>","null","","","","","","","","","","","","","","","","","","","","","","","","","",""
"","","","","","image-button-response","108","438223","0.0-2.0-4.0-1.27","63d418d4229ed6c0712ce5bb","E1","batch5","spm_respsonse","15714.200000047684","img/question_5_4.jpeg","2","mat_52","2","0","0","15714.200000047684","","","","","","","","","","","","","","","","","","","","",""
"","","","","","html-keyboard-response","109","439290","0.0-2.0-4.0-0.28","63d418d4229ed6c0712ce5bb","E1","batch5","spm_show_trial_num","null","<p class=block-text>Trial 53 out of 60</p>","null","","","","","","","","","","","","","","","","","","","","","","","","","",""
"","","","","","image-button-response","110","451919","0.0-2.0-4.0-1.28","63d418d4229ed6c0712ce5bb","E1","batch5","spm_respsonse","12627.599999904633","img/question_5_5.jpeg","0","mat_53","1","1","1","12627.599999904633","","","","","","","","","","","","","","","","","","","","",""
"","","","","","html-keyboard-response","111","452972","0.0-2.0-4.0-0.29","63d418d4229ed6c0712ce5bb","E1","batch5","spm_show_trial_num","null","<p class=block-text>Trial 54 out of 60</p>","null","","","","","","","","","","","","","","","","","","","","","","","","","",""
"","","","","","image-button-response","112","468216","0.0-2.0-4.0-1.29","63d418d4229ed6c0712ce5bb","E1","batch5","spm_respsonse","15242.700000047684","img/question_5_6.jpeg","3","mat_54","5","0","0","15242.700000047684","","","","","","","","","","","","","","","","","","","","",""
"","","","","","html-keyboard-response","113","469270","0.0-2.0-4.0-0.30","63d418d4229ed6c0712ce5bb","E1","batch5","spm_show_trial_num","null","<p class=block-text>Trial 55 out of 60</p>","null","","","","","","","","","","","","","","","","","","","","","","","","","",""
"","","","","","image-button-response","114","498211","0.0-2.0-4.0-1.30","63d418d4229ed6c0712ce5bb","E1","batch5","spm_respsonse","28938.10000014305","img/question_5_7.jpeg","1","mat_55","1","0","0","28938.10000014305","","","","","","","","","","","","","","","","","","","","",""
"","","","","","html-keyboard-response","115","499263","0.0-2.0-4.0-0.31","63d418d4229ed6c0712ce5bb","E1","batch5","spm_show_trial_num","null","<p class=block-text>Trial 56 out of 60</p>","null","","","","","","","","","","","","","","","","","","","","","","","","","",""
"","","","","","image-button-response","116","518104","0.0-2.0-4.0-1.31","63d418d4229ed6c0712ce5bb","E1","batch5","spm_respsonse","18839.5","img/question_5_8.jpeg","0","mat_56","6","0","0","18839.5","","","","","","","","","","","","","","","","","","","","",""
"","","","","","html-keyboard-response","117","519170","0.0-2.0-4.0-0.32","63d418d4229ed6c0712ce5bb","E1","batch5","spm_show_trial_num","null","<p class=block-text>Trial 57 out of 60</p>","null","","","","","","","","","","","","","","","","","","","","","","","","","",""
"","","","","","image-button-response","118","531498","0.0-2.0-4.0-1.32","63d418d4229ed6c0712ce5bb","E1","batch5","spm_respsonse","12326.299999952316","img/question_5_9.jpeg","4","mat_57","3","0","0","12326.299999952316","","","","","","","","","","","","","","","","","","","","",""
"","","","","","html-keyboard-response","119","532568","0.0-2.0-4.0-0.33","63d418d4229ed6c0712ce5bb","E1","batch5","spm_show_trial_num","null","<p class=block-text>Trial 58 out of 60</p>","null","","","","","","","","","","","","","","","","","","","","","","","","","",""
"","","","","","image-button-response","120","552447","0.0-2.0-4.0-1.33","63d418d4229ed6c0712ce5bb","E1","batch5","spm_respsonse","19877.200000047684","img/question_5_10.jpeg","6","mat_58","2","0","0","19877.200000047684","","","","","","","","","","","","","","","","","","","","",""
"","","","","","html-keyboard-response","121","553500","0.0-2.0-4.0-0.34","63d418d4229ed6c0712ce5bb","E1","batch5","spm_show_trial_num","null","<p class=block-text>Trial 59 out of 60</p>","null","","","","","","","","","","","","","","","","","","","","","","","","","",""
"","","","","","image-button-response","122","563659","0.0-2.0-4.0-1.34","63d418d4229ed6c0712ce5bb","E1","batch5","spm_respsonse","10157","img/question_5_11.jpeg","2","mat_59","4","0","0","10157","","","","","","","","","","","","","","","","","","","","",""
"","","","","","html-keyboard-response","123","564719","0.0-2.0-4.0-0.35","63d418d4229ed6c0712ce5bb","E1","batch5","spm_show_trial_num","null","<p class=block-text>Trial 60 out of 60</p>","null","","","","","","","","","","","","","","","","","","","","","","","","","",""
"","","","","","image-button-response","124","578330","0.0-2.0-4.0-1.35","63d418d4229ed6c0712ce5bb","E1","batch5","spm_respsonse","13609.5","img/question_5_12.jpeg","2","mat_60","5","0","0","13609.5","","","","","","","","","","","","","","","","","","","","",""
"","","","","","html-button-response","125","579916","0.0-2.0-5.0","63d418d4229ed6c0712ce5bb","E1","batch5","spm_goodbye","1319.2000000476837","<p class= block-text>This concludes the Standard Progressive Matrix game. Thank you for your responses!<br> When you are ready, click the button continue</p>","0","","","","","","","","","","","","","","","","","","","","","","","","","",""
"true","","","","","fullscreen","126","595302","0.0-3.0-0.0","63d418d4229ed6c0712ce5bb","E1","batch5","","","","","","","","","","","","","","","","","","","","","","","","","","","","","",""
"","","","","","instructions","127","615343","0.0-3.0-1.0-0.0","63d418d4229ed6c0712ce5bb","E1","batch5","","20039.60000014305","","","","","","","","[{""page_index"":0,""viewing_time"":12017.800000190735},{""page_index"":1,""viewing_time"":8021.199999809265}]","","","","","","","","","","","","","","","","","","","",""
"","","","","","html-button-response","128","616345","0.0-3.0-1.0-1.0-0.0","63d418d4229ed6c0712ce5bb","E1","batch5","pattern_enter_quiz","1001","<p class=block-text> Let's answer a few questions <br>","0","","","","","","","","","","","","","","","","","","","","","","","","","",""
"","","","","","html-button-response","129","619502","0.0-3.0-1.0-1.0-1.0","63d418d4229ed6c0712ce5bb","E1","batch5","pattern_quiz","3156.5999999046326","<p class = block-text>True or False: You will have as much time as you want to make each choice. <br></p>","1","","","true","","","","","","","","","","","","","","","","","","","","","","",""
"","","","","","html-button-response","130","620440","0.0-3.0-1.0-1.0-2.0","63d418d4229ed6c0712ce5bb","E1","batch5","pattern_quiz_feedback","935.8999998569489","<p class = block-text>Correct! You should make your choice <strong> as fast as you can</strong>.</p>","0","","","","","","","","","","","","","","","","","","","","","","","","","",""
"","","","","","html-button-response","131","623746","0.0-3.0-1.0-1.0-3.0","63d418d4229ed6c0712ce5bb","E1","batch5","pattern_quiz","3305.5999999046326","<p class = block-text>True or False: You will look for 4 pieces in black or white color connected in a row either horizontally, vertically or diagonally. <br></p>","0","","","true","","","","","","","","","","","","","","","","","","","","","","",""
"","","","","","html-button-response","132","624280","0.0-3.0-1.0-1.0-4.0","63d418d4229ed6c0712ce5bb","E1","batch5","pattern_quiz_feedback","532.8999998569489","<p class = block-text>Correct! </p>","0","","","","","","","","","","","","","","","","","","","","","","","","","",""
"","","","","","html-button-response","133","625161","0.0-3.0-2.0","63d418d4229ed6c0712ce5bb","E1","batch5","pattern_enter_practice","880.0999999046326","<p class=block-text> Now that you've understood the game, let's do a few practice trials before we start!<br> <br>","0","","","","","","","","","","","","","","","","","","","","","","","","","",""
"","","","","","image-keyboard-response","134","628720","0.0-3.0-3.0-0.0","63d418d4229ed6c0712ce5bb","E1","batch5","pattern_practice","3557.0999999046326","stim/prac_no_16_1.png","j","","j","true","","","","","","","","","","","","","","","","","","","","","","",""
"","","","","","html-keyboard-response","135","629738","0.0-3.0-3.0-1.0","63d418d4229ed6c0712ce5bb","E1","batch5","pattern_feedback","null","<p style=""font-size:30px;color:green;"">Correct!</p>","null","","","","","","","","","","","","","","","","","","","","","","","","","",""
"","","","","","image-keyboard-response","136","632504","0.0-3.0-3.0-0.1","63d418d4229ed6c0712ce5bb","E1","batch5","pattern_practice","2764.5","stim/prac_no_18_1.png","j","","j","true","","","","","","","","","","","","","","","","","","","","","","",""
"","","","","","html-keyboard-response","137","633532","0.0-3.0-3.0-1.1","63d418d4229ed6c0712ce5bb","E1","batch5","pattern_feedback","null","<p style=""font-size:30px;color:green;"">Correct!</p>","null","","","","","","","","","","","","","","","","","","","","","","","","","",""
"","","","","","image-keyboard-response","138","634544","0.0-3.0-3.0-0.2","63d418d4229ed6c0712ce5bb","E1","batch5","pattern_practice","1010.7000000476837","stim/prac_yes_20_dia_b1.png","f","","f","true","","","","","","","","","","","","","","","","","","","","","","",""
"","","","","","html-keyboard-response","139","635566","0.0-3.0-3.0-1.2","63d418d4229ed6c0712ce5bb","E1","batch5","pattern_feedback","null","<p style=""font-size:30px;color:green;"">Correct!</p>","null","","","","","","","","","","","","","","","","","","","","","","","","","",""
"","","","","","image-keyboard-response","140","636368","0.0-3.0-3.0-0.3","63d418d4229ed6c0712ce5bb","E1","batch5","pattern_practice","800.5999999046326","stim/prac_yes_16_ver_w1.png","f","","f","true","","","","","","","","","","","","","","","","","","","","","","",""
"","","","","","html-keyboard-response","141","637390","0.0-3.0-3.0-1.3","63d418d4229ed6c0712ce5bb","E1","batch5","pattern_feedback","null","<p style=""font-size:30px;color:green;"">Correct!</p>","null","","","","","","","","","","","","","","","","","","","","","","","","","",""
"","","","","","image-keyboard-response","142","637992","0.0-3.0-3.0-0.4","63d418d4229ed6c0712ce5bb","E1","batch5","pattern_practice","600.8000001907349","stim/prac_yes_18_hor_w1.png","f","","f","true","","","","","","","","","","","","","","","","","","","","","","",""
"","","","","","html-keyboard-response","143","639005","0.0-3.0-3.0-1.4","63d418d4229ed6c0712ce5bb","E1","batch5","pattern_feedback","null","<p style=""font-size:30px;color:green;"">Correct!</p>","null","","","","","","","","","","","","","","","","","","","","","","","","","",""
"","","","","","html-button-response","144","642335","0.0-3.0-4.0","63d418d4229ed6c0712ce5bb","E1","batch5","pattern_enter_official_trials","3329.5","<p class=block-text> Good job! You are done with practice trials!<br>
        You responded correctly on 100% of the trials.<br>
        Press the button below to start official trials. Now you won't see any feedback about your response</p>","0","","","","","","","","","","","","","","","","","","","","","","","","","",""
"","","","","","html-keyboard-response","145","643137","0.0-3.0-5.0-0.0","63d418d4229ed6c0712ce5bb","E1","batch5","pattern_show_trial_num","null","<p class=block-text>Trial 1 out of 78</p>","null","","","","","","","","","","","","","","","","","","","","","","","","","",""
"","","","","","image-keyboard-response","146","649337","0.0-3.0-5.0-1.0","63d418d4229ed6c0712ce5bb","E1","batch5","pattern_response","6198.399999856949","stim/no_45_1_w.png","j","pattern_25","j","true","","","","6198.399999856949","true","1","","","","","","","","","","","","","","","","",""
"","","","","","html-keyboard-response","147","650644","0.0-3.0-5.0-0.1","63d418d4229ed6c0712ce5bb","E1","batch5","pattern_show_trial_num","null","<p class=block-text>Trial 2 out of 78</p>","null","","","","","","","","","","","","","","","","","","","","","","","","","",""
"","","","","","image-keyboard-response","148","654353","0.0-3.0-5.0-1.1","63d418d4229ed6c0712ce5bb","E1","batch5","pattern_response","3706.5","stim/no_43_2_b.png","j","pattern_23","j","true","","","","3706.5","true","2","","","","","","","","","","","","","","","","",""
"","","","","","html-keyboard-response","149","655662","0.0-3.0-5.0-0.2","63d418d4229ed6c0712ce5bb","E1","batch5","pattern_show_trial_num","null","<p class=block-text>Trial 3 out of 78</p>","null","","","","","","","","","","","","","","","","","","","","","","","","","",""
"","","","","","image-keyboard-response","150","656865","0.0-3.0-5.0-1.2","63d418d4229ed6c0712ce5bb","E1","batch5","pattern_response","1202.5","stim/yes_36_ver_w1_w.png","f","pattern_58","f","true","","","","1202.5","true","3","","","","","","","","","","","","","","","","",""
"","","","","","html-keyboard-response","151","658189","0.0-3.0-5.0-0.3","63d418d4229ed6c0712ce5bb","E1","batch5","pattern_show_trial_num","null","<p class=block-text>Trial 4 out of 78</p>","null","","","","","","","","","","","","","","","","","","","","","","","","","",""
"","","","","","image-keyboard-response","152","659089","0.0-3.0-5.0-1.3","63d418d4229ed6c0712ce5bb","E1","batch5","pattern_response","899.7999999523163","stim/yes_23_ver_b1.png","f","pattern_48","f","true","","","","899.7999999523163","true","4","","","","","","","","","","","","","","","","",""
"","","","","","html-keyboard-response","153","660409","0.0-3.0-5.0-0.4","63d418d4229ed6c0712ce5bb","E1","batch5","pattern_show_trial_num","null","<p class=block-text>Trial 5 out of 78</p>","null","","","","","","","","","","","","","","","","","","","","","","","","","",""
"","","","","","image-keyboard-response","154","664938","0.0-3.0-5.0-1.4","63d418d4229ed6c0712ce5bb","E1","batch5","pattern_response","4528","stim/no_37_2_w.png","j","pattern_19","j","true","","","","4528","true","5","","","","","","","","","","","","","","","","",""
"","","","","","html-keyboard-response","155","666254","0.0-3.0-5.0-0.5","63d418d4229ed6c0712ce5bb","E1","batch5","pattern_show_trial_num","null","<p class=block-text>Trial 6 out of 78</p>","null","","","","","","","","","","","","","","","","","","","","","","","","","",""
"","","","","","image-keyboard-response","156","671346","0.0-3.0-5.0-1.5","63d418d4229ed6c0712ce5bb","E1","batch5","pattern_response","5091.200000047684","stim/yes_42_dia_w1_w.png","j","pattern_64","f","false","","","","5091.200000047684","false","5","","","","","","","","","","","","","","","","",""
"","","","","","html-keyboard-response","157","672658","0.0-3.0-5.0-0.6","63d418d4229ed6c0712ce5bb","E1","batch5","pattern_show_trial_num","null","<p class=block-text>Trial 7 out of 78</p>","null","","","","","","","","","","","","","","","","","","","","","","","","","",""
"","","","","","image-keyboard-response","158","679282","0.0-3.0-5.0-1.6","63d418d4229ed6c0712ce5bb","E1","batch5","pattern_response","6622.5","stim/no_51_1.png","j","pattern_31","j","true","","","","6622.5","true","6","","","","","","","","","","","","","","","","",""
"","","","","","html-keyboard-response","159","680602","0.0-3.0-5.0-0.7","63d418d4229ed6c0712ce5bb","E1","batch5","pattern_show_trial_num","null","<p class=block-text>Trial 8 out of 78</p>","null","","","","","","","","","","","","","","","","","","","","","","","","","",""
"","","","","","image-keyboard-response","160","682243","0.0-3.0-5.0-1.7","63d418d4229ed6c0712ce5bb","E1","batch5","pattern_response","1639.5999999046326","stim/yes_63_dia_b1.png","f","pattern_78","f","true","","","","1639.5999999046326","true","7","","","","","","","","","","","","","","","","",""
"","","","","","html-keyboard-response","161","683556","0.0-3.0-5.0-0.8","63d418d4229ed6c0712ce5bb","E1","batch5","pattern_show_trial_num","null","<p class=block-text>Trial 9 out of 78</p>","null","","","","","","","","","","","","","","","","","","","","","","","","","",""
"","","","","","image-keyboard-response","162","684387","0.0-3.0-5.0-1.8","63d418d4229ed6c0712ce5bb","E1","batch5","pattern_response","829.7000000476837","stim/yes_51_dia_b1.png","f","pattern_72","f","true","","","","829.7000000476837","true","8","","","","","","","","","","","","","","","","",""
"","","","","","html-keyboard-response","163","685700","0.0-3.0-5.0-0.9","63d418d4229ed6c0712ce5bb","E1","batch5","pattern_show_trial_num","null","<p class=block-text>Trial 10 out of 78</p>","null","","","","","","","","","","","","","","","","","","","","","","","","","",""
"","","","","","image-keyboard-response","164","690724","0.0-3.0-5.0-1.9","63d418d4229ed6c0712ce5bb","E1","batch5","pattern_response","5022.799999952316","stim/no_47_1_b.png","j","pattern_27","j","true","","","","5022.799999952316","true","9","","","","","","","","","","","","","","","","",""
"","","","","","html-keyboard-response","165","692034","0.0-3.0-5.0-0.10","63d418d4229ed6c0712ce5bb","E1","batch5","pattern_show_trial_num","null","<p class=block-text>Trial 11 out of 78</p>","null","","","","","","","","","","","","","","","","","","","","","","","","","",""
"","","","","","image-keyboard-response","166","692716","0.0-3.0-5.0-1.10","63d418d4229ed6c0712ce5bb","E1","batch5","pattern_response","681.0999999046326","stim/yes_12_hor_w1_w.png","f","pattern_42","f","true","","","","681.0999999046326","true","10","","","","","","","","","","","","","","","","",""
"","","","","","html-keyboard-response","167","694037","0.0-3.0-5.0-0.11","63d418d4229ed6c0712ce5bb","E1","batch5","pattern_show_trial_num","null","<p class=block-text>Trial 12 out of 78</p>","null","","","","","","","","","","","","","","","","","","","","","","","","","",""
"","","","","","image-keyboard-response","168","695716","0.0-3.0-5.0-1.11","63d418d4229ed6c0712ce5bb","E1","batch5","pattern_response","1677.5999999046326","stim/no_12_1.png","j","pattern_01","j","true","","","","1677.5999999046326","true","11","","","","","","","","","","","","","","","","",""
"","","","","","html-keyboard-response","169","697034","0.0-3.0-5.0-0.12","63d418d4229ed6c0712ce5bb","E1","batch5","pattern_show_trial_num","null","<p class=block-text>Trial 13 out of 78</p>","null","","","","","","","","","","","","","","","","","","","","","","","","","",""
"","","","","","image-keyboard-response","170","699580","0.0-3.0-5.0-1.12","63d418d4229ed6c0712ce5bb","E1","batch5","pattern_response","2545","stim/no_36_1_b.png","j","pattern_17","j","true","","","","2545","true","12","","","","","","","","","","","","","","","","",""
"","","","","","html-keyboard-response","171","700896","0.0-3.0-5.0-0.13","63d418d4229ed6c0712ce5bb","E1","batch5","pattern_show_trial_num","null","<p class=block-text>Trial 14 out of 78</p>","null","","","","","","","","","","","","","","","","","","","","","","","","","",""
"","","","","","image-keyboard-response","172","701837","0.0-3.0-5.0-1.13","63d418d4229ed6c0712ce5bb","E1","batch5","pattern_response","939.5999999046326","stim/no_18_1_b.png","j","pattern_05","j","true","","","","939.5999999046326","true","13","","","","","","","","","","","","","","","","",""
"","","","","","html-keyboard-response","173","703165","0.0-3.0-5.0-0.14","63d418d4229ed6c0712ce5bb","E1","batch5","pattern_show_trial_num","null","<p class=block-text>Trial 15 out of 78</p>","null","","","","","","","","","","","","","","","","","","","","","","","","","",""
"","","","","","image-keyboard-response","174","707596","0.0-3.0-5.0-1.14","63d418d4229ed6c0712ce5bb","E1","batch5","pattern_response","4430.200000047684","stim/yes_58_dia_w1_w.png","j","pattern_76","f","false","","","","4430.200000047684","false","13","","","","","","","","","","","","","","","","",""
"","","","","","html-keyboard-response","175","708917","0.0-3.0-5.0-0.15","63d418d4229ed6c0712ce5bb","E1","batch5","pattern_show_trial_num","null","<p class=block-text>Trial 16 out of 78</p>","null","","","","","","","","","","","","","","","","","","","","","","","","","",""
"","","","","","image-keyboard-response","176","710069","0.0-3.0-5.0-1.15","63d418d4229ed6c0712ce5bb","E1","batch5","pattern_response","1150.2000000476837","stim/yes_49_hor_w1_b.png","f","pattern_70","f","true","","","","1150.2000000476837","true","14","","","","","","","","","","","","","","","","",""
"","","","","","html-keyboard-response","177","711383","0.0-3.0-5.0-0.16","63d418d4229ed6c0712ce5bb","E1","batch5","pattern_show_trial_num","null","<p class=block-text>Trial 17 out of 78</p>","null","","","","","","","","","","","","","","","","","","","","","","","","","",""
"","","","","","image-keyboard-response","178","714093","0.0-3.0-5.0-1.16","63d418d4229ed6c0712ce5bb","E1","batch5","pattern_response","2709.300000190735","stim/yes_70_ver_b1.png","f","pattern_80","f","true","","","","2709.300000190735","true","15","","","","","","","","","","","","","","","","",""
"","","","","","html-keyboard-response","179","715414","0.0-3.0-5.0-0.17","63d418d4229ed6c0712ce5bb","E1","batch5","pattern_show_trial_num","null","<p class=block-text>Trial 18 out of 78</p>","null","","","","","","","","","","","","","","","","","","","","","","","","","",""
"","","","","","image-keyboard-response","180","716181","0.0-3.0-5.0-1.17","63d418d4229ed6c0712ce5bb","E1","batch5","pattern_response","766.1000001430511","stim/no_22_1_b.png","j","pattern_07","j","true","","","","766.1000001430511","true","16","","","","","","","","","","","","","","","","",""
"","","","","","html-keyboard-response","181","717484","0.0-3.0-5.0-0.18","63d418d4229ed6c0712ce5bb","E1","batch5","pattern_show_trial_num","null","<p class=block-text>Trial 19 out of 78</p>","null","","","","","","","","","","","","","","","","","","","","","","","","","",""
"","","","","","image-keyboard-response","182","719533","0.0-3.0-5.0-1.18","63d418d4229ed6c0712ce5bb","E1","batch5","pattern_response","2047.9000000953674","stim/no_30_1_b.png","j","pattern_13","j","true","","","","2047.9000000953674","true","17","","","","","","","","","","","","","","","","",""
"","","","","","html-keyboard-response","183","720849","0.0-3.0-5.0-0.19","63d418d4229ed6c0712ce5bb","E1","batch5","pattern_show_trial_num","null","<p class=block-text>Trial 20 out of 78</p>","null","","","","","","","","","","","","","","","","","","","","","","","","","",""
"","","","","","image-keyboard-response","184","722254","0.0-3.0-5.0-1.19","63d418d4229ed6c0712ce5bb","E1","batch5","pattern_response","1403.7000000476837","stim/yes_46_ver_b1_b.png","f","pattern_68","f","true","","","","1403.7000000476837","true","18","","","","","","","","","","","","","","","","",""
"","","","","","html-keyboard-response","185","723563","0.0-3.0-5.0-0.20","63d418d4229ed6c0712ce5bb","E1","batch5","pattern_show_trial_num","null","<p class=block-text>Trial 21 out of 78</p>","null","","","","","","","","","","","","","","","","","","","","","","","","","",""
"","","","","","image-keyboard-response","186","724710","0.0-3.0-5.0-1.20","63d418d4229ed6c0712ce5bb","E1","batch5","pattern_response","1146.7999999523163","stim/yes_17_ver_b1_b.png","f","pattern_46","f","true","","","","1146.7999999523163","true","19","","","","","","","","","","","","","","","","",""
"","","","","","html-keyboard-response","187","726023","0.0-3.0-5.0-0.21","63d418d4229ed6c0712ce5bb","E1","batch5","pattern_show_trial_num","null","<p class=block-text>Trial 22 out of 78</p>","null","","","","","","","","","","","","","","","","","","","","","","","","","",""
"","","","","","image-keyboard-response","188","730102","0.0-3.0-5.0-1.21","63d418d4229ed6c0712ce5bb","E1","batch5","pattern_response","4078.2999999523163","stim/no_58_1_w.png","j","pattern_35","j","true","","","","4078.2999999523163","true","20","","","","","","","","","","","","","","","","",""
"","","","","","html-keyboard-response","189","731411","0.0-3.0-5.0-0.22","63d418d4229ed6c0712ce5bb","E1","batch5","pattern_show_trial_num","null","<p class=block-text>Trial 23 out of 78</p>","null","","","","","","","","","","","","","","","","","","","","","","","","","",""
"","","","","","image-keyboard-response","190","734623","0.0-3.0-5.0-1.22","63d418d4229ed6c0712ce5bb","E1","batch5","pattern_response","3210.7999999523163","stim/no_33_1_b.png","j","pattern_15","j","true","","","","3210.7999999523163","true","21","","","","","","","","","","","","","","","","",""
"","","","","","html-keyboard-response","191","735947","0.0-3.0-5.0-0.23","63d418d4229ed6c0712ce5bb","E1","batch5","pattern_show_trial_num","null","<p class=block-text>Trial 24 out of 78</p>","null","","","","","","","","","","","","","","","","","","","","","","","","","",""
"","","","","","image-keyboard-response","192","738608","0.0-3.0-5.0-1.23","63d418d4229ed6c0712ce5bb","E1","batch5","pattern_response","2659.300000190735","stim/no_28_2.png","j","pattern_11","j","true","","","","2659.300000190735","true","22","","","","","","","","","","","","","","","","",""
"","","","","","html-keyboard-response","193","739931","0.0-3.0-5.0-0.24","63d418d4229ed6c0712ce5bb","E1","batch5","pattern_show_trial_num","null","<p class=block-text>Trial 25 out of 78</p>","null","","","","","","","","","","","","","","","","","","","","","","","","","",""
"","","","","","image-keyboard-response","194","741359","0.0-3.0-5.0-1.24","63d418d4229ed6c0712ce5bb","E1","batch5","pattern_response","1426.7000000476837","stim/no_15_1_w.png","j","pattern_03","j","true","","","","1426.7000000476837","true","23","","","","","","","","","","","","","","","","",""
"","","","","","html-keyboard-response","195","742680","0.0-3.0-5.0-0.25","63d418d4229ed6c0712ce5bb","E1","batch5","pattern_show_trial_num","null","<p class=block-text>Trial 26 out of 78</p>","null","","","","","","","","","","","","","","","","","","","","","","","","","",""
"","","","","","image-keyboard-response","196","743496","0.0-3.0-5.0-1.25","63d418d4229ed6c0712ce5bb","E1","batch5","pattern_response","815.2999999523163","stim/yes_33_dia_w1_w.png","f","pattern_56","f","true","","","","815.2999999523163","true","24","","","","","","","","","","","","","","","","",""
"","","","","","html-keyboard-response","197","744805","0.0-3.0-5.0-0.26","63d418d4229ed6c0712ce5bb","E1","batch5","pattern_show_trial_num","null","<p class=block-text>Trial 27 out of 78</p>","null","","","","","","","","","","","","","","","","","","","","","","","","","",""
"","","","","","image-keyboard-response","198","745519","0.0-3.0-5.0-1.26","63d418d4229ed6c0712ce5bb","E1","batch5","pattern_response","713.7999999523163","stim/yes_37_hor_w1_w.png","f","pattern_60","f","true","","","","713.7999999523163","true","25","","","","","","","","","","","","","","","","",""
"","","","","","html-keyboard-response","199","746839","0.0-3.0-5.0-0.27","63d418d4229ed6c0712ce5bb","E1","batch5","pattern_show_trial_num","null","<p class=block-text>Trial 28 out of 78</p>","null","","","","","","","","","","","","","","","","","","","","","","","","","",""
"","","","","","image-keyboard-response","200","748336","0.0-3.0-5.0-1.27","63d418d4229ed6c0712ce5bb","E1","batch5","pattern_response","1495.4000000953674","stim/yes_30_ver_b1_b.png","f","pattern_54","f","true","","","","1495.4000000953674","true","26","","","","","","","","","","","","","","","","",""
"","","","","","html-keyboard-response","201","749647","0.0-3.0-5.0-0.28","63d418d4229ed6c0712ce5bb","E1","batch5","pattern_show_trial_num","null","<p class=block-text>Trial 29 out of 78</p>","null","","","","","","","","","","","","","","","","","","","","","","","","","",""
"","","","","","image-keyboard-response","202","750856","0.0-3.0-5.0-1.28","63d418d4229ed6c0712ce5bb","E1","batch5","pattern_response","1207.1999998092651","stim/yes_53_ver_b1_b.png","f","pattern_74","f","true","","","","1207.1999998092651","true","27","","","","","","","","","","","","","","","","",""
"","","","","","html-keyboard-response","203","752162","0.0-3.0-5.0-0.29","63d418d4229ed6c0712ce5bb","E1","batch5","pattern_show_trial_num","null","<p class=block-text>Trial 30 out of 78</p>","null","","","","","","","","","","","","","","","","","","","","","","","","","",""
"","","","","","image-keyboard-response","204","752720","0.0-3.0-5.0-1.29","63d418d4229ed6c0712ce5bb","E1","batch5","pattern_response","557.4000000953674","stim/yes_29_hor_b1_b.png","f","pattern_52","f","true","","","","557.4000000953674","true","28","","","","","","","","","","","","","","","","",""
"","","","","","html-keyboard-response","205","754035","0.0-3.0-5.0-0.30","63d418d4229ed6c0712ce5bb","E1","batch5","pattern_show_trial_num","null","<p class=block-text>Trial 31 out of 78</p>","null","","","","","","","","","","","","","","","","","","","","","","","","","",""
"","","","","","image-keyboard-response","206","755768","0.0-3.0-5.0-1.30","63d418d4229ed6c0712ce5bb","E1","batch5","pattern_response","1732.3000001907349","stim/no_25_1_b.png","j","pattern_09","j","true","","","","1732.3000001907349","true","29","","","","","","","","","","","","","","","","",""
"","","","","","html-keyboard-response","207","757091","0.0-3.0-5.0-0.31","63d418d4229ed6c0712ce5bb","E1","batch5","pattern_show_trial_num","null","<p class=block-text>Trial 32 out of 78</p>","null","","","","","","","","","","","","","","","","","","","","","","","","","",""
"","","","","","image-keyboard-response","208","761353","0.0-3.0-5.0-1.31","63d418d4229ed6c0712ce5bb","E1","batch5","pattern_response","4260.200000047684","stim/no_53_1_b.png","j","pattern_33","j","true","","","","4260.200000047684","true","30","","","","","","","","","","","","","","","","",""
"","","","","","html-keyboard-response","209","762677","0.0-3.0-5.0-0.32","63d418d4229ed6c0712ce5bb","E1","batch5","pattern_show_trial_num","null","<p class=block-text>Trial 33 out of 78</p>","null","","","","","","","","","","","","","","","","","","","","","","","","","",""
"","","","","","image-keyboard-response","210","768017","0.0-3.0-5.0-1.32","63d418d4229ed6c0712ce5bb","E1","batch5","pattern_response","5338.200000047684","stim/no_49_2_b.png","j","pattern_29","j","true","","","","5338.200000047684","true","31","","","","","","","","","","","","","","","","",""
"","","","","","html-keyboard-response","211","769335","0.0-3.0-5.0-0.33","63d418d4229ed6c0712ce5bb","E1","batch5","pattern_show_trial_num","null","<p class=block-text>Trial 34 out of 78</p>","null","","","","","","","","","","","","","","","","","","","","","","","","","",""
"","","","","","image-keyboard-response","212","774762","0.0-3.0-5.0-1.33","63d418d4229ed6c0712ce5bb","E1","batch5","pattern_response","5424.700000047684","stim/no_39_1_w.png","j","pattern_21","j","true","","","","5424.700000047684","true","32","","","","","","","","","","","","","","","","",""
"","","","","","html-keyboard-response","213","776073","0.0-3.0-5.0-0.34","63d418d4229ed6c0712ce5bb","E1","batch5","pattern_show_trial_num","null","<p class=block-text>Trial 35 out of 78</p>","null","","","","","","","","","","","","","","","","","","","","","","","","","",""
"","","","","","image-keyboard-response","214","776914","0.0-3.0-5.0-1.34","63d418d4229ed6c0712ce5bb","E1","batch5","pattern_response","838.7999999523163","stim/yes_39_hor_w1_w.png","f","pattern_62","f","true","","","","838.7999999523163","true","33","","","","","","","","","","","","","","","","",""
"","","","","","html-keyboard-response","215","778226","0.0-3.0-5.0-0.35","63d418d4229ed6c0712ce5bb","E1","batch5","pattern_show_trial_num","null","<p class=block-text>Trial 36 out of 78</p>","null","","","","","","","","","","","","","","","","","","","","","","","","","",""
"","","","","","image-keyboard-response","216","779257","0.0-3.0-5.0-1.35","63d418d4229ed6c0712ce5bb","E1","batch5","pattern_response","1030.7999999523163","stim/yes_26_dia_w2_w.png","f","pattern_50","f","true","","","","1030.7999999523163","true","34","","","","","","","","","","","","","","","","",""
"","","","","","html-keyboard-response","217","780569","0.0-3.0-5.0-0.36","63d418d4229ed6c0712ce5bb","E1","batch5","pattern_show_trial_num","null","<p class=block-text>Trial 37 out of 78</p>","null","","","","","","","","","","","","","","","","","","","","","","","","","",""
"","","","","","image-keyboard-response","218","781346","0.0-3.0-5.0-1.36","63d418d4229ed6c0712ce5bb","E1","batch5","pattern_response","775.3000001907349","stim/yes_15_dia_b1u_b.png","j","pattern_44","f","false","","","","775.3000001907349","false","34","","","","","","","","","","","","","","","","",""
"","","","","","html-keyboard-response","219","782666","0.0-3.0-5.0-0.37","63d418d4229ed6c0712ce5bb","E1","batch5","pattern_show_trial_num","null","<p class=block-text>Trial 38 out of 78</p>","null","","","","","","","","","","","","","","","","","","","","","","","","","",""
"","","","","","image-keyboard-response","220","784923","0.0-3.0-5.0-1.37","63d418d4229ed6c0712ce5bb","E1","batch5","pattern_response","2256.300000190735","stim/yes_44_ver_w1_w.png","j","pattern_66","f","false","","","","2256.300000190735","false","34","","","","","","","","","","","","","","","","",""
"","","","","","html-keyboard-response","221","786240","0.0-3.0-5.0-0.38","63d418d4229ed6c0712ce5bb","E1","batch5","pattern_show_trial_num","null","<p class=block-text>Trial 39 out of 78</p>","null","","","","","","","","","","","","","","","","","","","","","","","","","",""
"","","","","","image-keyboard-response","222","792587","0.0-3.0-5.0-1.38","63d418d4229ed6c0712ce5bb","E1","batch5","pattern_response","6345.700000047684","stim/no_67_1.png","j","pattern_39","j","true","","","","6345.700000047684","true","35","","","","","","","","","","","","","","","","",""
"","","","","","image-keyboard-response","223","795283","0.0-3.0-6.0","63d418d4229ed6c0712ce5bb","E1","batch5","attention_check","2185.7999999523163","stim/empty_board.png","j","","j","true","","","","","","","500","[""f"",""j""]","","","","","","","","","","","","","","",""
"","","","","","html-keyboard-response","224","796092","0.0-3.0-7.0-0.0","63d418d4229ed6c0712ce5bb","E1","batch5","pattern_show_trial_num","null","<p class=block-text>Trial 40 out of 78</p>","null","","","","","","","","","","","","","","","","","","","","","","","","","",""
"","","","","","image-keyboard-response","225","799683","0.0-3.0-7.0-1.0","63d418d4229ed6c0712ce5bb","E1","batch5","pattern_response","3589.0999999046326","stim/yes_52_ver_w1.png","f","pattern_73","f","true","","","","3589.0999999046326","true","36","","","","","","","","","","","","","","","","",""
"","","","","","html-keyboard-response","226","800996","0.0-3.0-7.0-0.1","63d418d4229ed6c0712ce5bb","E1","batch5","pattern_show_trial_num","null","<p class=block-text>Trial 41 out of 78</p>","null","","","","","","","","","","","","","","","","","","","","","","","","","",""
"","","","","","image-keyboard-response","227","806140","0.0-3.0-7.0-1.1","63d418d4229ed6c0712ce5bb","E1","batch5","pattern_response","5142.199999809265","stim/no_65_1_b.png","j","pattern_38","j","true","","","","5142.199999809265","true","37","","","","","","","","","","","","","","","","",""
"","","","","","html-keyboard-response","228","807456","0.0-3.0-7.0-0.2","63d418d4229ed6c0712ce5bb","E1","batch5","pattern_show_trial_num","null","<p class=block-text>Trial 42 out of 78</p>","null","","","","","","","","","","","","","","","","","","","","","","","","","",""
"","","","","","image-keyboard-response","229","809548","0.0-3.0-7.0-1.2","63d418d4229ed6c0712ce5bb","E1","batch5","pattern_response","2090.0999999046326","stim/no_26_1_w.png","j","pattern_10","j","true","","","","2090.0999999046326","true","38","","","","","","","","","","","","","","","","",""
"","","","","","html-keyboard-response","230","810870","0.0-3.0-7.0-0.3","63d418d4229ed6c0712ce5bb","E1","batch5","pattern_show_trial_num","null","<p class=block-text>Trial 43 out of 78</p>","null","","","","","","","","","","","","","","","","","","","","","","","","","",""
"","","","","","image-keyboard-response","231","814108","0.0-3.0-7.0-1.3","63d418d4229ed6c0712ce5bb","E1","batch5","pattern_response","3237.2000000476837","stim/no_42_1_w.png","j","pattern_22","j","true","","","","3237.2000000476837","true","39","","","","","","","","","","","","","","","","",""
"","","","","","html-keyboard-response","232","815425","0.0-3.0-7.0-0.4","63d418d4229ed6c0712ce5bb","E1","batch5","pattern_show_trial_num","null","<p class=block-text>Trial 44 out of 78</p>","null","","","","","","","","","","","","","","","","","","","","","","","","","",""
"","","","","","image-keyboard-response","233","816900","0.0-3.0-7.0-1.4","63d418d4229ed6c0712ce5bb","E1","batch5","pattern_response","1472.0999999046326","stim/yes_31_hor_b1.png","f","pattern_55","f","true","","","","1472.0999999046326","true","40","","","","","","","","","","","","","","","","",""
"","","","","","html-keyboard-response","234","818223","0.0-3.0-7.0-0.5","63d418d4229ed6c0712ce5bb","E1","batch5","pattern_show_trial_num","null","<p class=block-text>Trial 45 out of 78</p>","null","","","","","","","","","","","","","","","","","","","","","","","","","",""
"","","","","","image-keyboard-response","235","819580","0.0-3.0-7.0-1.5","63d418d4229ed6c0712ce5bb","E1","batch5","pattern_response","1356.3999998569489","stim/yes_43_ver_w1_w.png","f","pattern_65","f","true","","","","1356.3999998569489","true","41","","","","","","","","","","","","","","","","",""
"","","","","","html-keyboard-response","236","820905","0.0-3.0-7.0-0.6","63d418d4229ed6c0712ce5bb","E1","batch5","pattern_show_trial_num","null","<p class=block-text>Trial 46 out of 78</p>","null","","","","","","","","","","","","","","","","","","","","","","","","","",""
"","","","","","image-keyboard-response","237","825077","0.0-3.0-7.0-1.6","63d418d4229ed6c0712ce5bb","E1","batch5","pattern_response","4170.799999952316","stim/yes_50_dia_w1.png","j","pattern_71","f","false","","","","4170.799999952316","false","41","","","","","","","","","","","","","","","","",""
"","","","","","html-keyboard-response","238","826393","0.0-3.0-7.0-0.7","63d418d4229ed6c0712ce5bb","E1","batch5","pattern_show_trial_num","null","<p class=block-text>Trial 47 out of 78</p>","null","","","","","","","","","","","","","","","","","","","","","","","","","",""
"","","","","","image-keyboard-response","239","827782","0.0-3.0-7.0-1.7","63d418d4229ed6c0712ce5bb","E1","batch5","pattern_response","1387.2000000476837","stim/yes_37_dia_w1.png","f","pattern_59","f","true","","","","1387.2000000476837","true","42","","","","","","","","","","","","","","","","",""
"","","","","","html-keyboard-response","240","829124","0.0-3.0-7.0-0.8","63d418d4229ed6c0712ce5bb","E1","batch5","pattern_show_trial_num","null","<p class=block-text>Trial 48 out of 78</p>","null","","","","","","","","","","","","","","","","","","","","","","","","","",""
"","","","","","image-keyboard-response","241","830461","0.0-3.0-7.0-1.8","63d418d4229ed6c0712ce5bb","E1","batch5","pattern_response","1336.6000001430511","stim/no_13_2_b.png","j","pattern_02","j","true","","","","1336.6000001430511","true","43","","","","","","","","","","","","","","","","",""
"","","","","","html-keyboard-response","242","831783","0.0-3.0-7.0-0.9","63d418d4229ed6c0712ce5bb","E1","batch5","pattern_show_trial_num","null","<p class=block-text>Trial 49 out of 78</p>","null","","","","","","","","","","","","","","","","","","","","","","","","","",""
"","","","","","image-keyboard-response","243","833621","0.0-3.0-7.0-1.9","63d418d4229ed6c0712ce5bb","E1","batch5","pattern_response","1837","stim/yes_29_ver_w1.png","f","pattern_53","f","true","","","","1837","true","44","","","","","","","","","","","","","","","","",""
"","","","","","html-keyboard-response","244","834936","0.0-3.0-7.0-0.10","63d418d4229ed6c0712ce5bb","E1","batch5","pattern_show_trial_num","null","<p class=block-text>Trial 50 out of 78</p>","null","","","","","","","","","","","","","","","","","","","","","","","","","",""
"","","","","","image-keyboard-response","245","838911","0.0-3.0-7.0-1.10","63d418d4229ed6c0712ce5bb","E1","batch5","pattern_response","3972.699999809265","stim/no_46_1_b.png","j","pattern_26","j","true","","","","3972.699999809265","true","45","","","","","","","","","","","","","","","","",""
"","","","","","html-keyboard-response","246","840226","0.0-3.0-7.0-0.11","63d418d4229ed6c0712ce5bb","E1","batch5","pattern_show_trial_num","null","<p class=block-text>Trial 51 out of 78</p>","null","","","","","","","","","","","","","","","","","","","","","","","","","",""
"","","","","","image-keyboard-response","247","844671","0.0-3.0-7.0-1.11","63d418d4229ed6c0712ce5bb","E1","batch5","pattern_response","4443.200000047684","stim/no_36_2_w.png","j","pattern_18","j","true","","","","4443.200000047684","true","46","","","","","","","","","","","","","","","","",""
"","","","","","html-keyboard-response","248","845993","0.0-3.0-7.0-0.12","63d418d4229ed6c0712ce5bb","E1","batch5","pattern_show_trial_num","null","<p class=block-text>Trial 52 out of 78</p>","null","","","","","","","","","","","","","","","","","","","","","","","","","",""
"","","","","","image-keyboard-response","249","850423","0.0-3.0-7.0-1.12","63d418d4229ed6c0712ce5bb","E1","batch5","pattern_response","4427.900000095367","stim/no_38_1_b.png","j","pattern_20","j","true","","","","4427.900000095367","true","47","","","","","","","","","","","","","","","","",""
"","","","","","html-keyboard-response","250","851745","0.0-3.0-7.0-0.13","63d418d4229ed6c0712ce5bb","E1","batch5","pattern_show_trial_num","null","<p class=block-text>Trial 53 out of 78</p>","null","","","","","","","","","","","","","","","","","","","","","","","","","",""
"","","","","","image-keyboard-response","251","857175","0.0-3.0-7.0-1.13","63d418d4229ed6c0712ce5bb","E1","batch5","pattern_response","5429.200000047684","stim/no_70_2.png","j","pattern_40","j","true","","","","5429.200000047684","true","48","","","","","","","","","","","","","","","","",""
"","","","","","html-keyboard-response","252","858496","0.0-3.0-7.0-0.14","63d418d4229ed6c0712ce5bb","E1","batch5","pattern_show_trial_num","null","<p class=block-text>Trial 54 out of 78</p>","null","","","","","","","","","","","","","","","","","","","","","","","","","",""
"","","","","","image-keyboard-response","253","861416","0.0-3.0-7.0-1.14","63d418d4229ed6c0712ce5bb","E1","batch5","pattern_response","2917.7999999523163","stim/no_52_1.png","j","pattern_32","j","true","","","","2917.7999999523163","true","49","","","","","","","","","","","","","","","","",""
"","","","","","html-keyboard-response","254","862735","0.0-3.0-7.0-0.15","63d418d4229ed6c0712ce5bb","E1","batch5","pattern_show_trial_num","null","<p class=block-text>Trial 55 out of 78</p>","null","","","","","","","","","","","","","","","","","","","","","","","","","",""
"","","","","","image-keyboard-response","255","864640","0.0-3.0-7.0-1.15","63d418d4229ed6c0712ce5bb","E1","batch5","pattern_response","1903.1000001430511","stim/yes_35_dia_b1.png","f","pattern_57","f","true","","","","1903.1000001430511","true","50","","","","","","","","","","","","","","","","",""
"","","","","","html-keyboard-response","256","865952","0.0-3.0-7.0-0.16","63d418d4229ed6c0712ce5bb","E1","batch5","pattern_show_trial_num","null","<p class=block-text>Trial 56 out of 78</p>","null","","","","","","","","","","","","","","","","","","","","","","","","","",""
"","","","","","image-keyboard-response","257","868057","0.0-3.0-7.0-1.16","63d418d4229ed6c0712ce5bb","E1","batch5","pattern_response","2102.9000000953674","stim/no_32_1_w.png","j","pattern_14","j","true","","","","2102.9000000953674","true","51","","","","","","","","","","","","","","","","",""
"","","","","","html-keyboard-response","258","869372","0.0-3.0-7.0-0.17","63d418d4229ed6c0712ce5bb","E1","batch5","pattern_show_trial_num","null","<p class=block-text>Trial 57 out of 78</p>","null","","","","","","","","","","","","","","","","","","","","","","","","","",""
"","","","","","image-keyboard-response","259","870072","0.0-3.0-7.0-1.17","63d418d4229ed6c0712ce5bb","E1","batch5","pattern_response","698.3000001907349","stim/yes_28_ver_b1.png","f","pattern_51","f","true","","","","698.3000001907349","true","52","","","","","","","","","","","","","","","","",""
"","","","","","html-keyboard-response","260","871376","0.0-3.0-7.0-0.18","63d418d4229ed6c0712ce5bb","E1","batch5","pattern_show_trial_num","null","<p class=block-text>Trial 58 out of 78</p>","null","","","","","","","","","","","","","","","","","","","","","","","","","",""
"","","","","","image-keyboard-response","261","872136","0.0-3.0-7.0-1.18","63d418d4229ed6c0712ce5bb","E1","batch5","pattern_response","758.9000000953674","stim/yes_38_hor_b1_b.png","f","pattern_61","f","true","","","","758.9000000953674","true","53","","","","","","","","","","","","","","","","",""
"","","","","","html-keyboard-response","262","873457","0.0-3.0-7.0-0.19","63d418d4229ed6c0712ce5bb","E1","batch5","pattern_show_trial_num","null","<p class=block-text>Trial 59 out of 78</p>","null","","","","","","","","","","","","","","","","","","","","","","","","","",""
"","","","","","image-keyboard-response","263","877537","0.0-3.0-7.0-1.19","63d418d4229ed6c0712ce5bb","E1","batch5","pattern_response","4078.9000000953674","stim/yes_48_dia_w1_w.png","j","pattern_69","f","false","","","","4078.9000000953674","false","53","","","","","","","","","","","","","","","","",""
"","","","","","html-keyboard-response","264","878849","0.0-3.0-7.0-0.20","63d418d4229ed6c0712ce5bb","E1","batch5","pattern_show_trial_num","null","<p class=block-text>Trial 60 out of 78</p>","null","","","","","","","","","","","","","","","","","","","","","","","","","",""
"","","","","","image-keyboard-response","265","883618","0.0-3.0-7.0-1.20","63d418d4229ed6c0712ce5bb","E1","batch5","pattern_response","4766.600000143051","stim/no_62_1_w.png","j","pattern_36","j","true","","","","4766.600000143051","true","54","","","","","","","","","","","","","","","","",""
"","","","","","html-keyboard-response","266","884936","0.0-3.0-7.0-0.21","63d418d4229ed6c0712ce5bb","E1","batch5","pattern_show_trial_num","null","<p class=block-text>Trial 61 out of 78</p>","null","","","","","","","","","","","","","","","","","","","","","","","","","",""
"","","","","","image-keyboard-response","267","885754","0.0-3.0-7.0-1.21","63d418d4229ed6c0712ce5bb","E1","batch5","pattern_response","815.7999999523163","stim/yes_40_dia_b1_b.png","f","pattern_63","f","true","","","","815.7999999523163","true","55","","","","","","","","","","","","","","","","",""
"","","","","","html-keyboard-response","268","887075","0.0-3.0-7.0-0.22","63d418d4229ed6c0712ce5bb","E1","batch5","pattern_show_trial_num","null","<p class=block-text>Trial 62 out of 78</p>","null","","","","","","","","","","","","","","","","","","","","","","","","","",""
"","","","","","image-keyboard-response","269","888505","0.0-3.0-7.0-1.22","63d418d4229ed6c0712ce5bb","E1","batch5","pattern_response","1429.5","stim/no_23_1.png","j","pattern_08","j","true","","","","1429.5","true","56","","","","","","","","","","","","","","","","",""
"","","","","","html-keyboard-response","270","889826","0.0-3.0-7.0-0.23","63d418d4229ed6c0712ce5bb","E1","batch5","pattern_show_trial_num","null","<p class=block-text>Trial 63 out of 78</p>","null","","","","","","","","","","","","","","","","","","","","","","","","","",""
"","","","","","image-keyboard-response","271","893050","0.0-3.0-7.0-1.23","63d418d4229ed6c0712ce5bb","E1","batch5","pattern_response","3223","stim/no_44_1.png","j","pattern_24","j","true","","","","3223","true","57","","","","","","","","","","","","","","","","",""
"","","","","","html-keyboard-response","272","894365","0.0-3.0-7.0-0.24","63d418d4229ed6c0712ce5bb","E1","batch5","pattern_show_trial_num","null","<p class=block-text>Trial 64 out of 78</p>","null","","","","","","","","","","","","","","","","","","","","","","","","","",""
"","","","","","image-keyboard-response","273","896986","0.0-3.0-7.0-1.24","63d418d4229ed6c0712ce5bb","E1","batch5","pattern_response","2620.2000000476837","stim/no_50_1.png","j","pattern_30","j","true","","","","2620.2000000476837","true","58","","","","","","","","","","","","","","","","",""
"","","","","","html-keyboard-response","274","898307","0.0-3.0-7.0-0.25","63d418d4229ed6c0712ce5bb","E1","batch5","pattern_show_trial_num","null","<p class=block-text>Trial 65 out of 78</p>","null","","","","","","","","","","","","","","","","","","","","","","","","","",""
"","","","","","image-keyboard-response","275","899466","0.0-3.0-7.0-1.25","63d418d4229ed6c0712ce5bb","E1","batch5","pattern_response","1157.7999999523163","stim/no_20_1_w.png","j","pattern_06","j","true","","","","1157.7999999523163","true","59","","","","","","","","","","","","","","","","",""
"","","","","","html-keyboard-response","276","900779","0.0-3.0-7.0-0.26","63d418d4229ed6c0712ce5bb","E1","batch5","pattern_show_trial_num","null","<p class=block-text>Trial 66 out of 78</p>","null","","","","","","","","","","","","","","","","","","","","","","","","","",""
"","","","","","image-keyboard-response","277","901843","0.0-3.0-7.0-1.26","63d418d4229ed6c0712ce5bb","E1","batch5","pattern_response","1062.8999998569489","stim/yes_45_hor_b2_b.png","f","pattern_67","f","true","","","","1062.8999998569489","true","60","","","","","","","","","","","","","","","","",""
"","","","","","html-keyboard-response","278","903156","0.0-3.0-7.0-0.27","63d418d4229ed6c0712ce5bb","E1","batch5","pattern_show_trial_num","null","<p class=block-text>Trial 67 out of 78</p>","null","","","","","","","","","","","","","","","","","","","","","","","","","",""
"","","","","","image-keyboard-response","279","905531","0.0-3.0-7.0-1.27","63d418d4229ed6c0712ce5bb","E1","batch5","pattern_response","2373.2000000476837","stim/no_34_1_b.png","j","pattern_16","j","true","","","","2373.2000000476837","true","61","","","","","","","","","","","","","","","","",""
"","","","","","html-keyboard-response","280","906836","0.0-3.0-7.0-0.28","63d418d4229ed6c0712ce5bb","E1","batch5","pattern_show_trial_num","null","<p class=block-text>Trial 68 out of 78</p>","null","","","","","","","","","","","","","","","","","","","","","","","","","",""
"","","","","","image-keyboard-response","281","907755","0.0-3.0-7.0-1.28","63d418d4229ed6c0712ce5bb","E1","batch5","pattern_response","918.2000000476837","stim/yes_67_hor_b1.png","f","pattern_79","f","true","","","","918.2000000476837","true","62","","","","","","","","","","","","","","","","",""
"","","","","","html-keyboard-response","282","909071","0.0-3.0-7.0-0.29","63d418d4229ed6c0712ce5bb","E1","batch5","pattern_show_trial_num","null","<p class=block-text>Trial 69 out of 78</p>","null","","","","","","","","","","","","","","","","","","","","","","","","","",""
"","","","","","image-keyboard-response","283","913547","0.0-3.0-7.0-1.29","63d418d4229ed6c0712ce5bb","E1","batch5","pattern_response","4474.700000047684","stim/no_29_1_b.png","j","pattern_12","j","true","","","","4474.700000047684","true","63","","","","","","","","","","","","","","","","",""
"","","","","","html-keyboard-response","284","914867","0.0-3.0-7.0-0.30","63d418d4229ed6c0712ce5bb","E1","batch5","pattern_show_trial_num","null","<p class=block-text>Trial 70 out of 78</p>","null","","","","","","","","","","","","","","","","","","","","","","","","","",""
"","","","","","image-keyboard-response","285","915507","0.0-3.0-7.0-1.30","63d418d4229ed6c0712ce5bb","E1","batch5","pattern_response","638","stim/yes_25_hor_b1_b.png","f","pattern_49","f","true","","","","638","true","64","","","","","","","","","","","","","","","","",""
"","","","","","html-keyboard-response","286","916824","0.0-3.0-7.0-0.31","63d418d4229ed6c0712ce5bb","E1","batch5","pattern_show_trial_num","null","<p class=block-text>Trial 71 out of 78</p>","null","","","","","","","","","","","","","","","","","","","","","","","","","",""
"","","","","","image-keyboard-response","287","918852","0.0-3.0-7.0-1.31","63d418d4229ed6c0712ce5bb","E1","batch5","pattern_response","2027.4000000953674","stim/no_48_1_w.png","j","pattern_28","j","true","","","","2027.4000000953674","true","65","","","","","","","","","","","","","","","","",""
"","","","","","html-keyboard-response","288","920167","0.0-3.0-7.0-0.32","63d418d4229ed6c0712ce5bb","E1","batch5","pattern_show_trial_num","null","<p class=block-text>Trial 72 out of 78</p>","null","","","","","","","","","","","","","","","","","","","","","","","","","",""
"","","","","","image-keyboard-response","289","921011","0.0-3.0-7.0-1.32","63d418d4229ed6c0712ce5bb","E1","batch5","pattern_response","841.7999999523163","stim/yes_22_ver_w1.png","f","pattern_47","f","true","","","","841.7999999523163","true","66","","","","","","","","","","","","","","","","",""
"","","","","","html-keyboard-response","290","922319","0.0-3.0-7.0-0.33","63d418d4229ed6c0712ce5bb","E1","batch5","pattern_show_trial_num","null","<p class=block-text>Trial 73 out of 78</p>","null","","","","","","","","","","","","","","","","","","","","","","","","","",""
"","","","","","image-keyboard-response","291","922836","0.0-3.0-7.0-1.33","63d418d4229ed6c0712ce5bb","E1","batch5","pattern_response","515.7000000476837","stim/yes_14_hor_b1_w.png","f","pattern_43","f","true","","","","515.7000000476837","true","67","","","","","","","","","","","","","","","","",""
"","","","","","html-keyboard-response","292","924148","0.0-3.0-7.0-0.34","63d418d4229ed6c0712ce5bb","E1","batch5","pattern_show_trial_num","null","<p class=block-text>Trial 74 out of 78</p>","null","","","","","","","","","","","","","","","","","","","","","","","","","",""
"","","","","","image-keyboard-response","293","925347","0.0-3.0-7.0-1.34","63d418d4229ed6c0712ce5bb","E1","batch5","pattern_response","1198.7999999523163","stim/no_17_1_w.png","j","pattern_04","j","true","","","","1198.7999999523163","true","68","","","","","","","","","","","","","","","","",""
"","","","","","html-keyboard-response","294","926665","0.0-3.0-7.0-0.35","63d418d4229ed6c0712ce5bb","E1","batch5","pattern_show_trial_num","null","<p class=block-text>Trial 75 out of 78</p>","null","","","","","","","","","","","","","","","","","","","","","","","","","",""
"","","","","","image-keyboard-response","295","927348","0.0-3.0-7.0-1.35","63d418d4229ed6c0712ce5bb","E1","batch5","pattern_response","682.3999998569489","stim/yes_17_dia_w1.png","f","pattern_45","f","true","","","","682.3999998569489","true","69","","","","","","","","","","","","","","","","",""
"","","","","","html-keyboard-response","296","928665","0.0-3.0-7.0-0.36","63d418d4229ed6c0712ce5bb","E1","batch5","pattern_show_trial_num","null","<p class=block-text>Trial 76 out of 78</p>","null","","","","","","","","","","","","","","","","","","","","","","","","","",""
"","","","","","image-keyboard-response","297","930388","0.0-3.0-7.0-1.36","63d418d4229ed6c0712ce5bb","E1","batch5","pattern_response","1722.7999999523163","stim/yes_60_ver_b1_b.png","f","pattern_77","f","true","","","","1722.7999999523163","true","70","","","","","","","","","","","","","","","","",""
"","","","","","html-keyboard-response","298","931710","0.0-3.0-7.0-0.37","63d418d4229ed6c0712ce5bb","E1","batch5","pattern_show_trial_num","null","<p class=block-text>Trial 77 out of 78</p>","null","","","","","","","","","","","","","","","","","","","","","","","","","",""
"","","","","","image-keyboard-response","299","934628","0.0-3.0-7.0-1.37","63d418d4229ed6c0712ce5bb","E1","batch5","pattern_response","2916.899999856949","stim/no_55_1_w.png","j","pattern_34","j","true","","","","2916.899999856949","true","71","","","","","","","","","","","","","","","","",""
"","","","","","html-keyboard-response","300","935955","0.0-3.0-7.0-0.38","63d418d4229ed6c0712ce5bb","E1","batch5","pattern_show_trial_num","null","<p class=block-text>Trial 78 out of 78</p>","null","","","","","","","","","","","","","","","","","","","","","","","","","",""
"","","","","","image-keyboard-response","301","936565","0.0-3.0-7.0-1.38","63d418d4229ed6c0712ce5bb","E1","batch5","pattern_response","608.9000000953674","stim/yes_55_hor_w1_w.png","f","pattern_75","f","true","","","","608.9000000953674","true","72","","","","","","","","","","","","","","","","",""
"","","","","","html-button-response","302","943423","0.0-3.0-8.0","63d418d4229ed6c0712ce5bb","E1","batch5","","6348.399999856949","<p class = block-text>This concludes the 4-in-a-row detection game.Thank you for your responses!<br>
            You responded correctly on 92% of the trials.<br>
            When you are ready, press ""Continue"" button to continue </p>","0","","","","","","","","","","","","","","","","","","","","","","","","","",""
"true","","","","","fullscreen","303","962891","0.0-4.0-0.0","63d418d4229ed6c0712ce5bb","E1","batch5","","","","","","","","","","","","","","","","","","","","","","","","","","","","","",""
"","","","","","instructions","304","995988","0.0-4.0-1.0-0.0-0.0","63d418d4229ed6c0712ce5bb","E1","batch5","tol-instructions","33096.700000047684","","","","","","","","[{""page_index"":0,""viewing_time"":5455.5},{""page_index"":1,""viewing_time"":4296.100000143051},{""page_index"":2,""viewing_time"":2715.2999999523163},{""page_index"":3,""viewing_time"":6369.200000047684},{""page_index"":4,""viewing_time"":5374.5},{""page_index"":5,""viewing_time"":7470.599999904633},{""page_index"":6,""viewing_time"":1415.2000000476837}]","","","","","","","","","","","","","","","","","","","",""
"","","","","","html-button-response","305","996632","0.0-4.0-1.0-1.0-0.0","63d418d4229ed6c0712ce5bb","E1","batch5","tol_enter_quiz","643","<p class=block-text> Let's answer a few questions <br>","0","","","","","","","","","","","","","","","","","","","","","","","","","",""
"","","","","","html-button-response","306","999907","0.0-4.0-1.0-1.0-1.0","63d418d4229ed6c0712ce5bb","E1","batch5","tol_quiz","3273.2000000476837","<p class = block-text>True or False: You can only move the ball on top of a peg. <br></p>","1","","","false","","","","","","","","","","","","","","","","","","","","","","",""
"","","","","","html-button-response","307","1001295","0.0-4.0-1.0-1.0-2.0","63d418d4229ed6c0712ce5bb","E1","batch5","tol_quiz_feedback","1387.4000000953674","<p class = block-text>Incorrect. Remember, you can only move the ball on top of a peg.</p>","0","","","","","","","","","","","","","","","","","","","","","","","","","",""
"","","","","","html-button-response","308","1004077","0.0-4.0-1.0-1.0-3.0","63d418d4229ed6c0712ce5bb","E1","batch5","tol_quiz","2780.2999999523163","<p class = block-text>True or False: You should try to match your board with the target board with fewest moves possible. <br></p>","0","","","true","","","","","","","","","","","","","","","","","","","","","","",""
"","","","","","html-button-response","309","1004603","0.0-4.0-1.0-1.0-4.0","63d418d4229ed6c0712ce5bb","E1","batch5","tol_quiz_feedback","525.5999999046326","<p class = block-text>Correct! </p>","0","","","","","","","","","","","","","","","","","","","","","","","","","",""
"","","","","","html-button-response","310","1006203","0.0-4.0-1.0-2.0-0.0","63d418d4229ed6c0712ce5bb","E1","batch5","","1599","<p class = block-text>You made too many incorrect choices.</p><p class = block-text>You will now repeat the instructions and quiz</p>","0","","","","","","","","","","","","","","","","","","","","","","","","","",""
"","","","","","instructions","311","1009921","0.0-4.0-1.1-0.1-0.1","63d418d4229ed6c0712ce5bb","E1","batch5","tol-instructions","3717.199999809265","","","","","","","","[{""page_index"":0,""viewing_time"":817.3999998569489},{""page_index"":1,""viewing_time"":451.2000000476837},{""page_index"":2,""viewing_time"":271.2999999523163},{""page_index"":3,""viewing_time"":490.10000014305115},{""page_index"":4,""viewing_time"":389},{""page_index"":5,""viewing_time"":336.19999980926514},{""page_index"":6,""viewing_time"":961.9000000953674}]","","","","","","","","","","","","","","","","","","","",""
"","","","","","html-button-response","312","1010532","0.0-4.0-1.1-1.1-0.1","63d418d4229ed6c0712ce5bb","E1","batch5","tol_enter_quiz","610.5999999046326","<p class=block-text> Let's answer a few questions <br>","0","","","","","","","","","","","","","","","","","","","","","","","","","",""
"","","","","","html-button-response","313","1010977","0.0-4.0-1.1-1.1-1.1","63d418d4229ed6c0712ce5bb","E1","batch5","tol_quiz","443.39999985694885","<p class = block-text>True or False: You can only move the ball on top of a peg. <br></p>","0","","","true","","","","","","","","","","","","","","","","","","","","","","",""
"","","","","","html-button-response","314","1011516","0.0-4.0-1.1-1.1-2.1","63d418d4229ed6c0712ce5bb","E1","batch5","tol_quiz_feedback","539.2000000476837","<p class = block-text>Correct! You can only move the ball on top of a peg.</p>","0","","","","","","","","","","","","","","","","","","","","","","","","","",""
"","","","","","html-button-response","315","1011924","0.0-4.0-1.1-1.1-3.1","63d418d4229ed6c0712ce5bb","E1","batch5","tol_quiz","407.09999990463257","<p class = block-text>True or False: You should try to match your board with the target board with fewest moves possible. <br></p>","0","","","true","","","","","","","","","","","","","","","","","","","","","","",""
"","","","","","html-button-response","316","1012474","0.0-4.0-1.1-1.1-4.1","63d418d4229ed6c0712ce5bb","E1","batch5","tol_quiz_feedback","548.1999998092651","<p class = block-text>Correct! </p>","0","","","","","","","","","","","","","","","","","","","","","","","","","",""
"","","","","","html-button-response","317","1013015","0.0-4.0-2.0","63d418d4229ed6c0712ce5bb","E1","batch5","","540.1000001430511","<p class=block-text> Now that you've understood the game, let's practice a few easier examples before we start!<br> <br>","0","","","","","","","","","","","","","","","","","","","","","","","","","",""
"","","","","","single-stim-button","318","1015096","0.0-4.0-3.0-0.0","63d418d4229ed6c0712ce5bb","E1","batch5","tol_practice","2079","","","","","","","","","","","","","","tol_peg_2","2079","2079","0","[[1,2,0],[0,0],[0]]","1","[[1,2,0],[0,0],[3]]","practice","2079","","","","","",""
"","","","","","single-stim-button","319","1015791","0.0-4.0-3.0-1.0","63d418d4229ed6c0712ce5bb","E1","batch5","tol_practice","693","","","","","","","","","","","","","","tol_peg_3","693","693","0","[[1,2,0],[0,0],[3]]","1","[[1,2,0],[0,0],[3]]","practice","693","","","","","",""
"","","","","","poldrack-single-stim","320","1016795","0.0-4.0-4.0","63d418d4229ed6c0712ce5bb","E1","batch5","tol_feedback","-1","","","","","true","","","","","","","","","","1000","1000","500","","","","","","-1","none","true","","0",""
"","","","","","single-stim-button","321","1019610","0.0-4.0-5.0-0.0","63d418d4229ed6c0712ce5bb","E1","batch5","tol_practice","2815","","","","","","","","","","","","","","tol_peg_1","2815","2815","0","[[1,0,0],[3,0],[0]]","2","[[0,0,0],[3,1],[2]]","practice","2815","","","","","",""
"","","","","","single-stim-button","322","1020967","0.0-4.0-5.0-1.0","63d418d4229ed6c0712ce5bb","E1","batch5","tol_practice","1356","","","","","","","","","","","","","","tol_peg_3","1356","1356","0","[[1,0,0],[3,0],[2]]","2","[[0,0,0],[3,1],[2]]","practice","1356","","","","","",""
"","","","","","single-stim-button","323","1021433","0.0-4.0-5.1-0.1","63d418d4229ed6c0712ce5bb","E1","batch5","tol_practice","465","","","","","","","","","","","","","","tol_peg_1","465","465","0","[[0,0,0],[3,0],[2]]","3","[[0,0,0],[3,1],[2]]","practice","465","","","","","",""
"","","","","","single-stim-button","324","1022056","0.0-4.0-5.1-1.1","63d418d4229ed6c0712ce5bb","E1","batch5","tol_practice","621","","","","","","","","","","","","","","tol_peg_2","621","621","0","[[0,0,0],[3,1],[2]]","3","[[0,0,0],[3,1],[2]]","practice","621","","","","","",""
"","","","","","poldrack-single-stim","325","1023062","0.0-4.0-6.0","63d418d4229ed6c0712ce5bb","E1","batch5","tol_feedback","-1","","","","","true","","","","","","","","","","1000","1000","500","","","","","","-1","none","true","","0",""
"","","","","","single-stim-button","326","1027358","0.0-4.0-7.0-0.0","63d418d4229ed6c0712ce5bb","E1","batch5","tol_practice","4296","","","","","","","","","","","","","","tol_peg_2","4296","4296","0","[[1,2,0],[0,0],[0]]","4","[[1,0,0],[2,0],[3]]","practice","4296","","","","","",""
"","","","","","single-stim-button","327","1027976","0.0-4.0-7.0-1.0","63d418d4229ed6c0712ce5bb","E1","batch5","tol_practice","617","","","","","","","","","","","","","","tol_peg_3","617","617","0","[[1,2,0],[0,0],[3]]","4","[[1,0,0],[2,0],[3]]","practice","617","","","","","",""
"","","","","","single-stim-button","328","1028389","0.0-4.0-7.1-0.1","63d418d4229ed6c0712ce5bb","E1","batch5","tol_practice","412","","","","","","","","","","","","","","tol_peg_1","412","412","0","[[1,0,0],[0,0],[3]]","5","[[1,0,0],[2,0],[3]]","practice","412","","","","","",""
"","","","","","single-stim-button","329","1028743","0.0-4.0-7.1-1.1","63d418d4229ed6c0712ce5bb","E1","batch5","tol_practice","354","","","","","","","","","","","","","","tol_peg_2","354","354","0","[[1,0,0],[2,0],[3]]","5","[[1,0,0],[2,0],[3]]","practice","354","","","","","",""
"","","","","","poldrack-single-stim","330","1029751","0.0-4.0-8.0","63d418d4229ed6c0712ce5bb","E1","batch5","tol_feedback","-1","","","","","true","","","","","","","","","","1000","1000","500","","","","","","-1","none","true","","0",""
"","","","","","html-button-response","331","1032016","0.0-4.0-9.0","63d418d4229ed6c0712ce5bb","E1","batch5","tol_instruction","2264.2000000476837","<div class = centerbox><p class = center-block-text>Great job! You are done with practice trials<br>You are about to start official trials.<br> <br> Problem <strong>1</strong> out of 25 problems</p></div>","0","","","","","","","","","","","","","","","","","","","","","","","","","",""
"","","","","","single-stim-button","332","1037841","0.0-4.0-10.0-0.0","63d418d4229ed6c0712ce5bb","E1","batch5","tol_tohand","4824","","","","","","","","","","","","","","tol_peg_1","4824","4824","0","[[1,0,0],[3,0],[0]]","1","[[1,3,0],[2,0],[0]]","0","0","","","","","","3"
"","","","","","single-stim-button","333","1040383","0.0-4.0-10.0-1.0","63d418d4229ed6c0712ce5bb","E1","batch5","tol_toboard","2542","","","","","","","","","","","","","","tol_peg_3","2542","2542","0","[[1,0,0],[3,0],[2]]","1","[[1,3,0],[2,0],[0]]","0","0","","","","","","3"
"","","","","","single-stim-button","334","1040763","0.0-4.0-10.1-0.1","63d418d4229ed6c0712ce5bb","E1","batch5","tol_tohand","379","","","","","","","","","","","","","","tol_peg_2","379","379","0","[[1,0,0],[0,0],[2]]","2","[[1,3,0],[2,0],[0]]","0","0","","","","","","3"
"","","","","","single-stim-button","335","1041148","0.0-4.0-10.1-1.1","63d418d4229ed6c0712ce5bb","E1","batch5","tol_toboard","384","","","","","","","","","","","","","","tol_peg_1","384","384","0","[[1,3,0],[0,0],[2]]","2","[[1,3,0],[2,0],[0]]","0","0","","","","","","3"
"","","","","","single-stim-button","336","1041615","0.0-4.0-10.2-0.2","63d418d4229ed6c0712ce5bb","E1","batch5","tol_tohand","466","","","","","","","","","","","","","","tol_peg_3","466","466","0","[[1,3,0],[0,0],[0]]","3","[[1,3,0],[2,0],[0]]","0","0","","","","","","3"
"","","","","","single-stim-button","337","1041929","0.0-4.0-10.2-1.2","63d418d4229ed6c0712ce5bb","E1","batch5","tol_toboard","314","","","","","","","","","","","","","","tol_peg_2","314","314","0","[[1,3,0],[2,0],[0]]","3","[[1,3,0],[2,0],[0]]","0","0","","","","","","3"
"","","","","","poldrack-single-stim","338","1042930","0.0-4.0-11.0","63d418d4229ed6c0712ce5bb","E1","batch5","tol_feedback","-1","","","","","true","","","","","","","","","","1000","1000","500","","","","","","-1","none","true","4824","5669",""
"","","","","","html-button-response","339","1043914","0.0-4.0-12.0","63d418d4229ed6c0712ce5bb","E1","batch5","tol_trial_num","984.1000001430511","<div class = centerbox><p class = center-block-text>problem <strong>2</strong> out of 25 problems</p></div>","0","","","","","","","","","","","","","","","","","","","","","","","","","",""
"","","","","","single-stim-button","340","1052721","0.0-4.0-13.0-0.0","63d418d4229ed6c0712ce5bb","E1","batch5","tol_tohand","8806","","","","","","","","","","","","","","tol_peg_1","8806","8806","0","[[1,0,0],[3,0],[0]]","1","[[2,1,3],[0,0],[0]]","1","0","","","","","","5"
"","","","","","single-stim-button","341","1053358","0.0-4.0-13.0-1.0","63d418d4229ed6c0712ce5bb","E1","batch5","tol_toboard","637","","","","","","","","","","","","","","tol_peg_2","637","637","0","[[1,0,0],[3,2],[0]]","1","[[2,1,3],[0,0],[0]]","1","0","","","","","","5"
"","","","","","single-stim-button","342","1053869","0.0-4.0-13.1-0.1","63d418d4229ed6c0712ce5bb","E1","batch5","tol_tohand","510","","","","","","","","","","","","","","tol_peg_1","510","510","0","[[0,0,0],[3,2],[0]]","2","[[2,1,3],[0,0],[0]]","1","0","","","","","","5"
"","","","","","single-stim-button","343","1056071","0.0-4.0-13.1-1.1","63d418d4229ed6c0712ce5bb","E1","batch5","tol_toboard","2202","","","","","","","","","","","","","","tol_peg_3","2202","2202","0","[[0,0,0],[3,2],[1]]","2","[[2,1,3],[0,0],[0]]","1","0","","","","","","5"
"","","","","","single-stim-button","344","1056499","0.0-4.0-13.2-0.2","63d418d4229ed6c0712ce5bb","E1","batch5","tol_tohand","428","","","","","","","","","","","","","","tol_peg_2","428","428","0","[[0,0,0],[3,0],[1]]","3","[[2,1,3],[0,0],[0]]","1","0","","","","","","5"
"","","","","","single-stim-button","345","1056874","0.0-4.0-13.2-1.2","63d418d4229ed6c0712ce5bb","E1","batch5","tol_toboard","375","","","","","","","","","","","","","","tol_peg_1","375","375","0","[[2,0,0],[3,0],[1]]","3","[[2,1,3],[0,0],[0]]","1","0","","","","","","5"
