"success","timeout","failed_images","failed_audio","failed_video","trial_type","trial_index","time_elapsed","internal_node_id","subject_id","study_id","session_id","view_history","rt","task","stimulus","response","correct","mouse_click","stim_duration","block_duration","timing_post_trial","current_position","tol_num_moves_made","tol_target","tol_problem_id","tol_rt","key_press","possible_responses","tol_correct","preplanning","tol_rt_per_trial","tol_min_moves","answer","item","fiar_detect_rt","fiar_detect_correct","total_correct_fiar_detect","post_trial_gap","choices","spm_correct","spm_rt"
"true","false","[]","[]","[]","preload","0","24653","0.0-0.0","63d4011ebee8a9cb17cfa313","C3","batch3","","","","","","","","","","","","","","","","","","","","","","","","","","","","","",""
"true","","","","","fullscreen","1","34003","0.0-1.0-0.0","63d4011ebee8a9cb17cfa313","C3","batch3","","","","","","","","","","","","","","","","","","","","","","","","","","","","","",""
"true","","","","","fullscreen","2","36920","0.0-2.0-0.0","63d4011ebee8a9cb17cfa313","C3","batch3","","","","","","","","","","","","","","","","","","","","","","","","","","","","","",""
"","","","","","instructions","3","100359","0.0-2.0-1.0-0.0-0.0","63d4011ebee8a9cb17cfa313","C3","batch3","[{""page_index"":0,""viewing_time"":12618.299999952316},{""page_index"":1,""viewing_time"":7466},{""page_index"":2,""viewing_time"":4866.100000023842},{""page_index"":3,""viewing_time"":14375.699999928474},{""page_index"":4,""viewing_time"":9040.200000047684},{""page_index"":5,""viewing_time"":12265.399999976158},{""page_index"":6,""viewing_time"":2806.5}]","63438.5","tol-instructions","","","","","","","","","","","","","","","","","","","","","","","","","","",""
"","","","","","html-button-response","4","101127","0.0-2.0-1.0-1.0-0.0","63d4011ebee8a9cb17cfa313","C3","batch3","","766.3999999761581","tol_enter_quiz","<p class=block-text> Let's answer a few questions <br>","0","","","","","","","","","","","","","","","","","","","","","","","","",""
"","","","","","html-button-response","5","105423","0.0-2.0-1.0-1.0-1.0","63d4011ebee8a9cb17cfa313","C3","batch3","","4295.199999928474","tol_quiz","<p class = block-text>True or False: You can only move the ball on top of a peg. <br></p>","0","true","","","","","","","","","","","","","","","","","","","","","","","",""
"","","","","","html-button-response","6","106297","0.0-2.0-1.0-1.0-2.0","63d4011ebee8a9cb17cfa313","C3","batch3","","873.3999999761581","tol_quiz_feedback","<p class = block-text>Correct! You can only move the ball on top of a peg.</p>","0","","","","","","","","","","","","","","","","","","","","","","","","",""
"","","","","","html-button-response","7","109783","0.0-2.0-1.0-1.0-3.0","63d4011ebee8a9cb17cfa313","C3","batch3","","3485.2999999523163","tol_quiz","<p class = block-text>True or False: You should try to match your board with the target board with fewest moves possible. <br></p>","0","true","","","","","","","","","","","","","","","","","","","","","","","",""
"","","","","","html-button-response","8","110493","0.0-2.0-1.0-1.0-4.0","63d4011ebee8a9cb17cfa313","C3","batch3","","709","tol_quiz_feedback","<p class = block-text>Correct! </p>","0","","","","","","","","","","","","","","","","","","","","","","","","",""
"","","","","","html-button-response","9","111825","0.0-2.0-2.0","63d4011ebee8a9cb17cfa313","C3","batch3","","1330.5","","<p class=block-text> Now that you've understood the game, let's practice a few easier examples before we start!<br> <br>","0","","","","","","","","","","","","","","","","","","","","","","","","",""
"","","","","","single-stim-button","10","114552","0.0-2.0-3.0-0.0","63d4011ebee8a9cb17cfa313","C3","batch3","","2726","tol_practice","","","","tol_peg_2","2726","2726","0","[[1,2,0],[0,0],[0]]","1","[[1,2,0],[0,0],[3]]","practice","2726","","","","","","","","","","","","","","",""
"","","","","","single-stim-button","11","115328","0.0-2.0-3.0-1.0","63d4011ebee8a9cb17cfa313","C3","batch3","","775","tol_practice","","","","tol_peg_3","775","775","0","[[1,2,0],[0,0],[3]]","1","[[1,2,0],[0,0],[3]]","practice","775","","","","","","","","","","","","","","",""
"","","","","","poldrack-single-stim","12","116340","0.0-2.0-4.0","63d4011ebee8a9cb17cfa313","C3","batch3","","-1","tol_feedback","","","true","","1000","1000","500","","","","","","-1","none","true","","0","","","","","","","","","",""
"","","","","","single-stim-button","13","118870","0.0-2.0-5.0-0.0","63d4011ebee8a9cb17cfa313","C3","batch3","","2528","tol_practice","","","","tol_peg_1","2528","2528","0","[[1,0,0],[3,0],[0]]","2","[[0,0,0],[3,1],[2]]","practice","2528","","","","","","","","","","","","","","",""
"","","","","","single-stim-button","14","119750","0.0-2.0-5.0-1.0","63d4011ebee8a9cb17cfa313","C3","batch3","","879","tol_practice","","","","tol_peg_3","879","879","0","[[1,0,0],[3,0],[2]]","2","[[0,0,0],[3,1],[2]]","practice","879","","","","","","","","","","","","","","",""
"","","","","","single-stim-button","15","120268","0.0-2.0-5.1-0.1","63d4011ebee8a9cb17cfa313","C3","batch3","","518","tol_practice","","","","tol_peg_1","518","518","0","[[0,0,0],[3,0],[2]]","3","[[0,0,0],[3,1],[2]]","practice","518","","","","","","","","","","","","","","",""
"","","","","","single-stim-button","16","120799","0.0-2.0-5.1-1.1","63d4011ebee8a9cb17cfa313","C3","batch3","","531","tol_practice","","","","tol_peg_2","531","531","0","[[0,0,0],[3,1],[2]]","3","[[0,0,0],[3,1],[2]]","practice","531","","","","","","","","","","","","","","",""
"","","","","","poldrack-single-stim","17","121813","0.0-2.0-6.0","63d4011ebee8a9cb17cfa313","C3","batch3","","-1","tol_feedback","","","true","","1000","1000","500","","","","","","-1","none","true","","0","","","","","","","","","",""
"","","","","","single-stim-button","18","124162","0.0-2.0-7.0-0.0","63d4011ebee8a9cb17cfa313","C3","batch3","","2348","tol_practice","","","","tol_peg_2","2348","2348","0","[[1,2,0],[0,0],[0]]","4","[[1,0,0],[2,0],[3]]","practice","2348","","","","","","","","","","","","","","",""
"","","","","","single-stim-button","19","124842","0.0-2.0-7.0-1.0","63d4011ebee8a9cb17cfa313","C3","batch3","","680","tol_practice","","","","tol_peg_3","680","680","0","[[1,2,0],[0,0],[3]]","4","[[1,0,0],[2,0],[3]]","practice","680","","","","","","","","","","","","","","",""
"","","","","","single-stim-button","20","125408","0.0-2.0-7.1-0.1","63d4011ebee8a9cb17cfa313","C3","batch3","","564","tol_practice","","","","tol_peg_1","564","564","0","[[1,0,0],[0,0],[3]]","5","[[1,0,0],[2,0],[3]]","practice","564","","","","","","","","","","","","","","",""
"","","","","","single-stim-button","21","125870","0.0-2.0-7.1-1.1","63d4011ebee8a9cb17cfa313","C3","batch3","","462","tol_practice","","","","tol_peg_2","462","462","0","[[1,0,0],[2,0],[3]]","5","[[1,0,0],[2,0],[3]]","practice","462","","","","","","","","","","","","","","",""
"","","","","","poldrack-single-stim","22","126877","0.0-2.0-8.0","63d4011ebee8a9cb17cfa313","C3","batch3","","-1","tol_feedback","","","true","","1000","1000","500","","","","","","-1","none","true","","0","","","","","","","","","",""
"","","","","","html-button-response","23","129684","0.0-2.0-9.0","63d4011ebee8a9cb17cfa313","C3","batch3","","2807.2000000476837","tol_instruction","<div class = centerbox><p class = center-block-text>Great job! You are done with practice trials<br>You are about to start official trials.<br> <br> Problem <strong>1</strong> out of 25 problems</p></div>","0","","","","","","","","","","","","","","","","","","","","","","","","",""
"","","","","","single-stim-button","24","133689","0.0-2.0-10.0-0.0","63d4011ebee8a9cb17cfa313","C3","batch3","","3003","tol_tohand","","","","tol_peg_1","3003","3003","0","[[1,0,0],[3,0],[0]]","1","[[1,3,0],[2,0],[0]]","0","0","","","","","","3","","","","","","","","",""
"","","","","","single-stim-button","25","134171","0.0-2.0-10.0-1.0","63d4011ebee8a9cb17cfa313","C3","batch3","","482","tol_toboard","","","","tol_peg_3","482","482","0","[[1,0,0],[3,0],[2]]","1","[[1,3,0],[2,0],[0]]","0","0","","","","","","3","","","","","","","","",""
"","","","","","single-stim-button","26","134703","0.0-2.0-10.1-0.1","63d4011ebee8a9cb17cfa313","C3","batch3","","532","tol_tohand","","","","tol_peg_2","532","532","0","[[1,0,0],[0,0],[2]]","2","[[1,3,0],[2,0],[0]]","0","0","","","","","","3","","","","","","","","",""
"","","","","","single-stim-button","27","135133","0.0-2.0-10.1-1.1","63d4011ebee8a9cb17cfa313","C3","batch3","","430","tol_toboard","","","","tol_peg_1","430","430","0","[[1,3,0],[0,0],[2]]","2","[[1,3,0],[2,0],[0]]","0","0","","","","","","3","","","","","","","","",""
"","","","","","single-stim-button","28","135593","0.0-2.0-10.2-0.2","63d4011ebee8a9cb17cfa313","C3","batch3","","460","tol_tohand","","","","tol_peg_3","460","460","0","[[1,3,0],[0,0],[0]]","3","[[1,3,0],[2,0],[0]]","0","0","","","","","","3","","","","","","","","",""
"","","","","","single-stim-button","29","136015","0.0-2.0-10.2-1.2","63d4011ebee8a9cb17cfa313","C3","batch3","","422","tol_toboard","","","","tol_peg_2","422","422","0","[[1,3,0],[2,0],[0]]","3","[[1,3,0],[2,0],[0]]","0","0","","","","","","3","","","","","","","","",""
"","","","","","poldrack-single-stim","30","137030","0.0-2.0-11.0","63d4011ebee8a9cb17cfa313","C3","batch3","","-1","tol_feedback","","","true","","1000","1000","500","","","","","","-1","none","true","3003","3995","","","","","","","","","",""
"","","","","","html-button-response","31","137748","0.0-2.0-12.0","63d4011ebee8a9cb17cfa313","C3","batch3","","716.1000000238419","tol_trial_num","<div class = centerbox><p class = center-block-text>problem <strong>2</strong> out of 25 problems</p></div>","0","","","","","","","","","","","","","","","","","","","","","","","","",""
"","","","","","single-stim-button","32","139867","0.0-2.0-13.0-0.0","63d4011ebee8a9cb17cfa313","C3","batch3","","2119","tol_tohand","","","","tol_peg_1","2119","2119","0","[[1,0,0],[3,0],[0]]","1","[[2,1,3],[0,0],[0]]","1","0","","","","","","5","","","","","","","","",""
"","","","","","single-stim-button","33","141251","0.0-2.0-13.0-1.0","63d4011ebee8a9cb17cfa313","C3","batch3","","1384","tol_toboard","","","","tol_peg_3","1384","1384","0","[[1,0,0],[3,0],[2]]","1","[[2,1,3],[0,0],[0]]","1","0","","","","","","5","","","","","","","","",""
"","","","","","single-stim-button","34","142348","0.0-2.0-13.1-0.1","63d4011ebee8a9cb17cfa313","C3","batch3","","1097","tol_tohand","","","","tol_peg_2","1097","1097","0","[[1,0,0],[0,0],[2]]","2","[[2,1,3],[0,0],[0]]","1","0","","","","","","5","","","","","","","","",""
"","","","","","single-stim-button","35","144753","0.0-2.0-13.1-1.1","63d4011ebee8a9cb17cfa313","C3","batch3","","2404","tol_toboard","","","","tol_peg_2","2404","2404","0","[[1,0,0],[3,0],[2]]","2","[[2,1,3],[0,0],[0]]","1","0","","","","","","5","","","","","","","","",""
"","","","","","single-stim-button","36","151846","0.0-2.0-13.2-0.2","63d4011ebee8a9cb17cfa313","C3","batch3","","7092","tol_tohand","","","","tol_peg_1","7092","7092","0","[[0,0,0],[3,0],[2]]","3","[[2,1,3],[0,0],[0]]","1","0","","","","","","5","","","","","","","","",""
"","","","","","single-stim-button","37","152284","0.0-2.0-13.2-1.2","63d4011ebee8a9cb17cfa313","C3","batch3","","437","tol_toboard","","","","tol_peg_2","437","437","0","[[0,0,0],[3,1],[2]]","3","[[2,1,3],[0,0],[0]]","1","0","","","","","","5","","","","","","","","",""
"","","","","","single-stim-button","38","152799","0.0-2.0-13.3-0.3","63d4011ebee8a9cb17cfa313","C3","batch3","","515","tol_tohand","","","","tol_peg_3","515","515","0","[[0,0,0],[3,1],[0]]","4","[[2,1,3],[0,0],[0]]","1","0","","","","","","5","","","","","","","","",""
"","","","","","single-stim-button","39","153436","0.0-2.0-13.3-1.3","63d4011ebee8a9cb17cfa313","C3","batch3","","637","tol_toboard","","","","tol_peg_1","637","637","0","[[2,0,0],[3,1],[0]]","4","[[2,1,3],[0,0],[0]]","1","0","","","","","","5","","","","","","","","",""
"","","","","","single-stim-button","40","153974","0.0-2.0-13.4-0.4","63d4011ebee8a9cb17cfa313","C3","batch3","","538","tol_tohand","","","","tol_peg_2","538","538","0","[[2,0,0],[3,0],[0]]","5","[[2,1,3],[0,0],[0]]","1","0","","","","","","5","","","","","","","","",""
"","","","","","single-stim-button","41","154413","0.0-2.0-13.4-1.4","63d4011ebee8a9cb17cfa313","C3","batch3","","438","tol_toboard","","","","tol_peg_1","438","438","0","[[2,1,0],[3,0],[0]]","5","[[2,1,3],[0,0],[0]]","1","0","","","","","","5","","","","","","","","",""
"","","","","","single-stim-button","42","154849","0.0-2.0-13.5-0.5","63d4011ebee8a9cb17cfa313","C3","batch3","","436","tol_tohand","","","","tol_peg_2","436","436","0","[[2,1,0],[0,0],[0]]","6","[[2,1,3],[0,0],[0]]","1","0","","","","","","5","","","","","","","","",""
"","","","","","single-stim-button","43","155287","0.0-2.0-13.5-1.5","63d4011ebee8a9cb17cfa313","C3","batch3","","438","tol_toboard","","","","tol_peg_1","438","438","0","[[2,1,3],[0,0],[0]]","6","[[2,1,3],[0,0],[0]]","1","0","","","","","","5","","","","","","","","",""
"","","","","","poldrack-single-stim","44","156296","0.0-2.0-14.0","63d4011ebee8a9cb17cfa313","C3","batch3","","-1","tol_feedback","","","true","","1000","1000","500","","","","","","-1","none","true","2119","11797","","","","","","","","","",""
"","","","","","html-button-response","45","156887","0.0-2.0-15.0","63d4011ebee8a9cb17cfa313","C3","batch3","","589.7000000476837","tol_trial_num","<div class = centerbox><p class = center-block-text>problem <strong>3</strong> out of 25 problems</p></div>","0","","","","","","","","","","","","","","","","","","","","","","","","",""
"","","","","","single-stim-button","46","160586","0.0-2.0-16.0-0.0","63d4011ebee8a9cb17cfa313","C3","batch3","","3699","tol_tohand","","","","tol_peg_1","3699","3699","0","[[2,0,0],[0,0],[1]]","1","[[1,2,0],[3,0],[0]]","2","0","","","","","","4","","","","","","","","",""
"","","","","","single-stim-button","47","161427","0.0-2.0-16.0-1.0","63d4011ebee8a9cb17cfa313","C3","batch3","","840","tol_toboard","","","","tol_peg_2","840","840","0","[[2,0,0],[3,0],[1]]","1","[[1,2,0],[3,0],[0]]","2","0","","","","","","4","","","","","","","","",""
"","","","","","single-stim-button","48","162994","0.0-2.0-16.1-0.1","63d4011ebee8a9cb17cfa313","C3","batch3","","1566","tol_tohand","","","","tol_peg_1","1566","1566","0","[[0,0,0],[3,0],[1]]","2","[[1,2,0],[3,0],[0]]","2","0","","","","","","4","","","","","","","","",""
"","","","","","single-stim-button","49","163388","0.0-2.0-16.1-1.1","63d4011ebee8a9cb17cfa313","C3","batch3","","393","tol_toboard","","","","tol_peg_2","393","393","0","[[0,0,0],[3,2],[1]]","2","[[1,2,0],[3,0],[0]]","2","0","","","","","","4","","","","","","","","",""
"","","","","","single-stim-button","50","163767","0.0-2.0-16.2-0.2","63d4011ebee8a9cb17cfa313","C3","batch3","","379","tol_tohand","","","","tol_peg_3","379","379","0","[[0,0,0],[3,2],[0]]","3","[[1,2,0],[3,0],[0]]","2","0","","","","","","4","","","","","","","","",""
"","","","","","single-stim-button","51","164489","0.0-2.0-16.2-1.2","63d4011ebee8a9cb17cfa313","C3","batch3","","721","tol_toboard","","","","tol_peg_1","721","721","0","[[1,0,0],[3,2],[0]]","3","[[1,2,0],[3,0],[0]]","2","0","","","","","","4","","","","","","","","",""
"","","","","","single-stim-button","52","165368","0.0-2.0-16.3-0.3","63d4011ebee8a9cb17cfa313","C3","batch3","","879","tol_tohand","","","","tol_peg_2","879","879","0","[[1,0,0],[3,0],[0]]","4","[[1,2,0],[3,0],[0]]","2","0","","","","","","4","","","","","","","","",""
"","","","","","single-stim-button","53","165862","0.0-2.0-16.3-1.3","63d4011ebee8a9cb17cfa313","C3","batch3","","493","tol_toboard","","","","tol_peg_1","493","493","0","[[1,2,0],[3,0],[0]]","4","[[1,2,0],[3,0],[0]]","2","0","","","","","","4","","","","","","","","",""
"","","","","","poldrack-single-stim","54","166876","0.0-2.0-17.0","63d4011ebee8a9cb17cfa313","C3","batch3","","-1","tol_feedback","","","true","","1000","1000","500","","","","","","-1","none","true","3699","6523","","","","","","","","","",""
"","","","","","html-button-response","55","167425","0.0-2.0-18.0","63d4011ebee8a9cb17cfa313","C3","batch3","","547.6000000238419","tol_trial_num","<div class = centerbox><p class = center-block-text>problem <strong>4</strong> out of 25 problems</p></div>","0","","","","","","","","","","","","","","","","","","","","","","","","",""
"","","","","","single-stim-button","56","169528","0.0-2.0-19.0-0.0","63d4011ebee8a9cb17cfa313","C3","batch3","","2103","tol_tohand","","","","tol_peg_2","2103","2103","0","[[3,0,0],[2,0],[0]]","1","[[3,0,0],[1,0],[2]]","3","0","","","","","","3","","","","","","","","",""
"","","","","","single-stim-button","57","169924","0.0-2.0-19.0-1.0","63d4011ebee8a9cb17cfa313","C3","batch3","","396","tol_toboard","","","","tol_peg_1","396","396","0","[[3,1,0],[2,0],[0]]","1","[[3,0,0],[1,0],[2]]","3","0","","","","","","3","","","","","","","","",""
"","","","","","single-stim-button","58","170392","0.0-2.0-19.1-0.1","63d4011ebee8a9cb17cfa313","C3","batch3","","467","tol_tohand","","","","tol_peg_2","467","467","0","[[3,1,0],[0,0],[0]]","2","[[3,0,0],[1,0],[2]]","3","0","","","","","","3","","","","","","","","",""
"","","","","","single-stim-button","59","170778","0.0-2.0-19.1-1.1","63d4011ebee8a9cb17cfa313","C3","batch3","","386","tol_toboard","","","","tol_peg_3","386","386","0","[[3,1,0],[0,0],[2]]","2","[[3,0,0],[1,0],[2]]","3","0","","","","","","3","","","","","","","","",""
"","","","","","single-stim-button","60","171340","0.0-2.0-19.2-0.2","63d4011ebee8a9cb17cfa313","C3","batch3","","562","tol_tohand","","","","tol_peg_1","562","562","0","[[3,0,0],[0,0],[2]]","3","[[3,0,0],[1,0],[2]]","3","0","","","","","","3","","","","","","","","",""
"","","","","","single-stim-button","61","171970","0.0-2.0-19.2-1.2","63d4011ebee8a9cb17cfa313","C3","batch3","","630","tol_toboard","","","","tol_peg_2","630","630","0","[[3,0,0],[1,0],[2]]","3","[[3,0,0],[1,0],[2]]","3","0","","","","","","3","","","","","","","","",""
"","","","","","poldrack-single-stim","62","172971","0.0-2.0-20.0","63d4011ebee8a9cb17cfa313","C3","batch3","","-1","tol_feedback","","","true","","1000","1000","500","","","","","","-1","none","true","2103","3132","","","","","","","","","",""
"","","","","","html-button-response","63","173425","0.0-2.0-21.0","63d4011ebee8a9cb17cfa313","C3","batch3","","453.2000000476837","tol_trial_num","<div class = centerbox><p class = center-block-text>problem <strong>5</strong> out of 25 problems</p></div>","0","","","","","","","","","","","","","","","","","","","","","","","","",""
"","","","","","single-stim-button","64","175969","0.0-2.0-22.0-0.0","63d4011ebee8a9cb17cfa313","C3","batch3","","2543","tol_tohand","","","","tol_peg_2","2543","2543","0","[[1,0,0],[0,0],[3]]","1","[[0,0,0],[1,2],[3]]","4","0","","","","","","7","","","","","","","","",""
"","","","","","single-stim-button","65","179218","0.0-2.0-22.0-1.0","63d4011ebee8a9cb17cfa313","C3","batch3","","3249","tol_toboard","","","","tol_peg_2","3249","3249","0","[[1,0,0],[2,0],[3]]","1","[[0,0,0],[1,2],[3]]","4","0","","","","","","7","","","","","","","","",""
"","","","","","single-stim-button","66","179720","0.0-2.0-22.1-0.1","63d4011ebee8a9cb17cfa313","C3","batch3","","501","tol_tohand","","","","tol_peg_3","501","501","0","[[1,0,0],[2,0],[0]]","2","[[0,0,0],[1,2],[3]]","4","0","","","","","","7","","","","","","","","",""
"","","","","","single-stim-button","67","180360","0.0-2.0-22.1-1.1","63d4011ebee8a9cb17cfa313","C3","batch3","","640","tol_toboard","","","","tol_peg_1","640","640","0","[[1,3,0],[2,0],[0]]","2","[[0,0,0],[1,2],[3]]","4","0","","","","","","7","","","","","","","","",""
"","","","","","single-stim-button","68","180755","0.0-2.0-22.2-0.2","63d4011ebee8a9cb17cfa313","C3","batch3","","393","tol_tohand","","","","tol_peg_2","393","393","0","[[1,3,0],[0,0],[0]]","3","[[0,0,0],[1,2],[3]]","4","0","","","","","","7","","","","","","","","",""
"","","","","","single-stim-button","69","181454","0.0-2.0-22.2-1.2","63d4011ebee8a9cb17cfa313","C3","batch3","","699","tol_toboard","","","","tol_peg_3","699","699","0","[[1,3,0],[0,0],[2]]","3","[[0,0,0],[1,2],[3]]","4","0","","","","","","7","","","","","","","","",""
"","","","","","single-stim-button","70","184776","0.0-2.0-22.3-0.3","63d4011ebee8a9cb17cfa313","C3","batch3","","3322","tol_tohand","","","","tol_peg_1","3322","3322","0","[[1,0,0],[0,0],[2]]","4","[[0,0,0],[1,2],[3]]","4","0","","","","","","7","","","","","","","","",""
"","","","","","single-stim-button","71","190695","0.0-2.0-22.3-1.3","63d4011ebee8a9cb17cfa313","C3","batch3","","5917","tol_toboard","","","","tol_peg_1","5917","5917","0","[[1,3,0],[0,0],[2]]","4","[[0,0,0],[1,2],[3]]","4","0","","","","","","7","","","","","","","","",""
"","","","","","single-stim-button","72","191367","0.0-2.0-22.4-0.4","63d4011ebee8a9cb17cfa313","C3","batch3","","672","tol_tohand","","","","tol_peg_3","672","672","0","[[1,3,0],[0,0],[0]]","5","[[0,0,0],[1,2],[3]]","4","0","","","","","","7","","","","","","","","",""
"","","","","","single-stim-button","73","191914","0.0-2.0-22.4-1.4","63d4011ebee8a9cb17cfa313","C3","batch3","","547","tol_toboard","","","","tol_peg_2","547","547","0","[[1,3,0],[2,0],[0]]","5","[[0,0,0],[1,2],[3]]","4","0","","","","","","7","","","","","","","","",""
"","","","","","single-stim-button","74","192361","0.0-2.0-22.5-0.5","63d4011ebee8a9cb17cfa313","C3","batch3","","446","tol_tohand","","","","tol_peg_1","446","446","0","[[1,0,0],[2,0],[0]]","6","[[0,0,0],[1,2],[3]]","4","0","","","","","","7","","","","","","","","",""
"","","","","","single-stim-button","75","196002","0.0-2.0-22.5-1.5","63d4011ebee8a9cb17cfa313","C3","batch3","","3641","tol_toboard","","","","tol_peg_3","3641","3641","0","[[1,0,0],[2,0],[3]]","6","[[0,0,0],[1,2],[3]]","4","0","","","","","","7","","","","","","","","",""
"","","","","","single-stim-button","76","196509","0.0-2.0-22.6-0.6","63d4011ebee8a9cb17cfa313","C3","batch3","","507","tol_tohand","","","","tol_peg_2","507","507","0","[[1,0,0],[0,0],[3]]","7","[[0,0,0],[1,2],[3]]","4","0","","","","","","7","","","","","","","","",""
"","","","","","single-stim-button","77","197889","0.0-2.0-22.6-1.6","63d4011ebee8a9cb17cfa313","C3","batch3","","1379","tol_toboard","","","","tol_peg_1","1379","1379","0","[[1,2,0],[0,0],[3]]","7","[[0,0,0],[1,2],[3]]","4","0","","","","","","7","","","","","","","","",""
"","","","","","single-stim-button","78","202633","0.0-2.0-22.7-0.7","63d4011ebee8a9cb17cfa313","C3","batch3","","4744","tol_tohand","","","","tol_peg_1","4744","4744","0","[[1,0,0],[0,0],[3]]","8","[[0,0,0],[1,2],[3]]","4","0","","","","","","7","","","","","","","","",""
"","","","","","single-stim-button","79","203716","0.0-2.0-22.7-1.7","63d4011ebee8a9cb17cfa313","C3","batch3","","1082","tol_toboard","","","","tol_peg_2","1082","1082","0","[[1,0,0],[2,0],[3]]","8","[[0,0,0],[1,2],[3]]","4","0","","","","","","7","","","","","","","","",""
"","","","","","single-stim-button","80","204080","0.0-2.0-22.8-0.8","63d4011ebee8a9cb17cfa313","C3","batch3","","364","tol_tohand","","","","tol_peg_3","364","364","0","[[1,0,0],[2,0],[0]]","9","[[0,0,0],[1,2],[3]]","4","0","","","","","","7","","","","","","","","",""
"","","","","","single-stim-button","81","204562","0.0-2.0-22.8-1.8","63d4011ebee8a9cb17cfa313","C3","batch3","","481","tol_toboard","","","","tol_peg_2","481","481","0","[[1,0,0],[2,3],[0]]","9","[[0,0,0],[1,2],[3]]","4","0","","","","","","7","","","","","","","","",""
"","","","","","single-stim-button","82","204946","0.0-2.0-22.9-0.9","63d4011ebee8a9cb17cfa313","C3","batch3","","383","tol_tohand","","","","tol_peg_1","383","383","0","[[0,0,0],[2,3],[0]]","10","[[0,0,0],[1,2],[3]]","4","0","","","","","","7","","","","","","","","",""
"","","","","","single-stim-button","83","205636","0.0-2.0-22.9-1.9","63d4011ebee8a9cb17cfa313","C3","batch3","","689","tol_toboard","","","","tol_peg_3","689","689","0","[[0,0,0],[2,3],[1]]","10","[[0,0,0],[1,2],[3]]","4","0","","","","","","7","","","","","","","","",""
"","","","","","single-stim-button","84","206093","0.0-2.0-22.10-0.10","63d4011ebee8a9cb17cfa313","C3","batch3","","457","tol_tohand","","","","tol_peg_2","457","457","0","[[0,0,0],[2,0],[1]]","11","[[0,0,0],[1,2],[3]]","4","0","","","","","","7","","","","","","","","",""
"","","","","","single-stim-button","85","206642","0.0-2.0-22.10-1.10","63d4011ebee8a9cb17cfa313","C3","batch3","","548","tol_toboard","","","","tol_peg_1","548","548","0","[[3,0,0],[2,0],[1]]","11","[[0,0,0],[1,2],[3]]","4","0","","","","","","7","","","","","","","","",""
"","","","","","single-stim-button","86","207044","0.0-2.0-22.11-0.11","63d4011ebee8a9cb17cfa313","C3","batch3","","401","tol_tohand","","","","tol_peg_2","401","401","0","[[3,0,0],[0,0],[1]]","12","[[0,0,0],[1,2],[3]]","4","0","","","","","","7","","","","","","","","",""
"","","","","","single-stim-button","87","207433","0.0-2.0-22.11-1.11","63d4011ebee8a9cb17cfa313","C3","batch3","","389","tol_toboard","","","","tol_peg_1","389","389","0","[[3,2,0],[0,0],[1]]","12","[[0,0,0],[1,2],[3]]","4","0","","","","","","7","","","","","","","","",""
"","","","","","single-stim-button","88","207962","0.0-2.0-22.12-0.12","63d4011ebee8a9cb17cfa313","C3","batch3","","529","tol_tohand","","","","tol_peg_3","529","529","0","[[3,2,0],[0,0],[0]]","13","[[0,0,0],[1,2],[3]]","4","0","","","","","","7","","","","","","","","",""
"","","","","","single-stim-button","89","208444","0.0-2.0-22.12-1.12","63d4011ebee8a9cb17cfa313","C3","batch3","","482","tol_toboard","","","","tol_peg_2","482","482","0","[[3,2,0],[1,0],[0]]","13","[[0,0,0],[1,2],[3]]","4","0","","","","","","7","","","","","","","","",""
"","","","","","single-stim-button","90","209159","0.0-2.0-22.13-0.13","63d4011ebee8a9cb17cfa313","C3","batch3","","715","tol_tohand","","","","tol_peg_1","715","715","0","[[3,0,0],[1,0],[0]]","14","[[0,0,0],[1,2],[3]]","4","0","","","","","","7","","","","","","","","",""
"","","","","","single-stim-button","91","209524","0.0-2.0-22.13-1.13","63d4011ebee8a9cb17cfa313","C3","batch3","","364","tol_toboard","","","","tol_peg_2","364","364","0","[[3,0,0],[1,2],[0]]","14","[[0,0,0],[1,2],[3]]","4","0","","","","","","7","","","","","","","","",""
"","","","","","single-stim-button","92","209988","0.0-2.0-22.14-0.14","63d4011ebee8a9cb17cfa313","C3","batch3","","463","tol_tohand","","","","tol_peg_1","463","463","0","[[0,0,0],[1,2],[0]]","15","[[0,0,0],[1,2],[3]]","4","0","","","","","","7","","","","","","","","",""
"","","","","","single-stim-button","93","210550","0.0-2.0-22.14-1.14","63d4011ebee8a9cb17cfa313","C3","batch3","","561","tol_toboard","","","","tol_peg_3","561","561","0","[[0,0,0],[1,2],[3]]","15","[[0,0,0],[1,2],[3]]","4","0","","","","","","7","","","","","","","","",""
"","","","","","poldrack-single-stim","94","211564","0.0-2.0-23.0","63d4011ebee8a9cb17cfa313","C3","batch3","","-1","tol_feedback","","","true","","1000","1000","500","","","","","","-1","none","true","2543","16440","","","","","","","","","",""
"","","","","","html-button-response","95","212092","0.0-2.0-24.0","63d4011ebee8a9cb17cfa313","C3","batch3","","527.7999999523163","tol_trial_num","<div class = centerbox><p class = center-block-text>problem <strong>6</strong> out of 25 problems</p></div>","0","","","","","","","","","","","","","","","","","","","","","","","","",""
"","","","","","single-stim-button","96","216159","0.0-2.0-25.0-0.0","63d4011ebee8a9cb17cfa313","C3","batch3","","4066","tol_tohand","","","","tol_peg_2","4066","4066","0","[[0,0,0],[1,0],[3]]","1","[[1,0,0],[2,3],[0]]","5","0","","","","","","6","","","","","","","","",""
"","","","","","single-stim-button","97","216674","0.0-2.0-25.0-1.0","63d4011ebee8a9cb17cfa313","C3","batch3","","514","tol_toboard","","","","tol_peg_1","514","514","0","[[2,0,0],[1,0],[3]]","1","[[1,0,0],[2,3],[0]]","5","0","","","","","","6","","","","","","","","",""
"","","","","","single-stim-button","98","218688","0.0-2.0-25.1-0.1","63d4011ebee8a9cb17cfa313","C3","batch3","","2014","tol_tohand","","","","tol_peg_3","2014","2014","0","[[2,0,0],[1,0],[0]]","2","[[1,0,0],[2,3],[0]]","5","0","","","","","","6","","","","","","","","",""
"","","","","","single-stim-button","99","219398","0.0-2.0-25.1-1.1","63d4011ebee8a9cb17cfa313","C3","batch3","","710","tol_toboard","","","","tol_peg_1","710","710","0","[[2,3,0],[1,0],[0]]","2","[[1,0,0],[2,3],[0]]","5","0","","","","","","6","","","","","","","","",""
"","","","","","single-stim-button","100","219927","0.0-2.0-25.2-0.2","63d4011ebee8a9cb17cfa313","C3","batch3","","528","tol_tohand","","","","tol_peg_2","528","528","0","[[2,3,0],[0,0],[0]]","3","[[1,0,0],[2,3],[0]]","5","0","","","","","","6","","","","","","","","",""
"","","","","","single-stim-button","101","220420","0.0-2.0-25.2-1.2","63d4011ebee8a9cb17cfa313","C3","batch3","","493","tol_toboard","","","","tol_peg_3","493","493","0","[[2,3,0],[0,0],[1]]","3","[[1,0,0],[2,3],[0]]","5","0","","","","","","6","","","","","","","","",""
"","","","","","single-stim-button","102","227828","0.0-2.0-25.3-0.3","63d4011ebee8a9cb17cfa313","C3","batch3","","7407","tol_tohand","","","","tol_peg_1","7407","7407","0","[[2,0,0],[0,0],[1]]","4","[[1,0,0],[2,3],[0]]","5","0","","","","","","6","","","","","","","","",""
"","","","","","single-stim-button","103","228522","0.0-2.0-25.3-1.3","63d4011ebee8a9cb17cfa313","C3","batch3","","693","tol_toboard","","","","tol_peg_2","693","693","0","[[2,0,0],[3,0],[1]]","4","[[1,0,0],[2,3],[0]]","5","0","","","","","","6","","","","","","","","",""
"","","","","","single-stim-button","104","229149","0.0-2.0-25.4-0.4","63d4011ebee8a9cb17cfa313","C3","batch3","","627","tol_tohand","","","","tol_peg_1","627","627","0","[[0,0,0],[3,0],[1]]","5","[[1,0,0],[2,3],[0]]","5","0","","","","","","6","","","","","","","","",""
"","","","","","single-stim-button","105","231080","0.0-2.0-25.4-1.4","63d4011ebee8a9cb17cfa313","C3","batch3","","1930","tol_toboard","","","","tol_peg_2","1930","1930","0","[[0,0,0],[3,2],[1]]","5","[[1,0,0],[2,3],[0]]","5","0","","","","","","6","","","","","","","","",""
"","","","","","single-stim-button","106","231500","0.0-2.0-25.5-0.5","63d4011ebee8a9cb17cfa313","C3","batch3","","420","tol_tohand","","","","tol_peg_3","420","420","0","[[0,0,0],[3,2],[0]]","6","[[1,0,0],[2,3],[0]]","5","0","","","","","","6","","","","","","","","",""
"","","","","","single-stim-button","107","232174","0.0-2.0-25.5-1.5","63d4011ebee8a9cb17cfa313","C3","batch3","","673","tol_toboard","","","","tol_peg_1","673","673","0","[[1,0,0],[3,2],[0]]","6","[[1,0,0],[2,3],[0]]","5","0","","","","","","6","","","","","","","","",""
"","","","","","single-stim-button","108","232618","0.0-2.0-25.6-0.6","63d4011ebee8a9cb17cfa313","C3","batch3","","443","tol_tohand","","","","tol_peg_2","443","443","0","[[1,0,0],[3,0],[0]]","7","[[1,0,0],[2,3],[0]]","5","0","","","","","","6","","","","","","","","",""
"","","","","","single-stim-button","109","233105","0.0-2.0-25.6-1.6","63d4011ebee8a9cb17cfa313","C3","batch3","","487","tol_toboard","","","","tol_peg_3","487","487","0","[[1,0,0],[3,0],[2]]","7","[[1,0,0],[2,3],[0]]","5","0","","","","","","6","","","","","","","","",""
"","","","","","single-stim-button","110","233780","0.0-2.0-25.7-0.7","63d4011ebee8a9cb17cfa313","C3","batch3","","673","tol_tohand","","","","tol_peg_2","673","673","0","[[1,0,0],[0,0],[2]]","8","[[1,0,0],[2,3],[0]]","5","0","","","","","","6","","","","","","","","",""
"","","","","","single-stim-button","111","234067","0.0-2.0-25.7-1.7","63d4011ebee8a9cb17cfa313","C3","batch3","","287","tol_toboard","","","","tol_peg_1","287","287","0","[[1,3,0],[0,0],[2]]","8","[[1,0,0],[2,3],[0]]","5","0","","","","","","6","","","","","","","","",""
"","","","","","single-stim-button","112","234431","0.0-2.0-25.8-0.8","63d4011ebee8a9cb17cfa313","C3","batch3","","363","tol_tohand","","","","tol_peg_3","363","363","0","[[1,3,0],[0,0],[0]]","9","[[1,0,0],[2,3],[0]]","5","0","","","","","","6","","","","","","","","",""
"","","","","","single-stim-button","113","235864","0.0-2.0-25.8-1.8","63d4011ebee8a9cb17cfa313","C3","batch3","","1433","tol_toboard","","","","tol_peg_2","1433","1433","0","[[1,3,0],[2,0],[0]]","9","[[1,0,0],[2,3],[0]]","5","0","","","","","","6","","","","","","","","",""
"","","","","","single-stim-button","114","236414","0.0-2.0-25.9-0.9","63d4011ebee8a9cb17cfa313","C3","batch3","","549","tol_tohand","","","","tol_peg_1","549","549","0","[[1,0,0],[2,0],[0]]","10","[[1,0,0],[2,3],[0]]","5","0","","","","","","6","","","","","","","","",""
"","","","","","single-stim-button","115","236926","0.0-2.0-25.9-1.9","63d4011ebee8a9cb17cfa313","C3","batch3","","512","tol_toboard","","","","tol_peg_2","512","512","0","[[1,0,0],[2,3],[0]]","10","[[1,0,0],[2,3],[0]]","5","0","","","","","","6","","","","","","","","",""
"","","","","","poldrack-single-stim","116","237927","0.0-2.0-26.0","63d4011ebee8a9cb17cfa313","C3","batch3","","-1","tol_feedback","","","true","","1000","1000","500","","","","","","-1","none","true","4066","17090","","","","","","","","","",""
"","","","","","html-button-response","117","238415","0.0-2.0-27.0","63d4011ebee8a9cb17cfa313","C3","batch3","","487.40000009536743","tol_trial_num","<div class = centerbox><p class = center-block-text>problem <strong>7</strong> out of 25 problems</p></div>","0","","","","","","","","","","","","","","","","","","","","","","","","",""
"","","","","","single-stim-button","118","242837","0.0-2.0-28.0-0.0","63d4011ebee8a9cb17cfa313","C3","batch3","","4421","tol_tohand","","","","tol_peg_1","4421","4421","0","[[2,0,0],[0,0],[3]]","1","[[1,2,0],[3,0],[0]]","6","0","","","","","","5","","","","","","","","",""
"","","","","","single-stim-button","119","246281","0.0-2.0-28.0-1.0","63d4011ebee8a9cb17cfa313","C3","batch3","","3444","tol_toboard","","","","tol_peg_1","3444","3444","0","[[2,1,0],[0,0],[3]]","1","[[1,2,0],[3,0],[0]]","6","0","","","","","","5","","","","","","","","",""
"","","","","","single-stim-button","120","246706","0.0-2.0-28.1-0.1","63d4011ebee8a9cb17cfa313","C3","batch3","","423","tol_tohand","","","","tol_peg_3","423","423","0","[[2,1,0],[0,0],[0]]","2","[[1,2,0],[3,0],[0]]","6","0","","","","","","5","","","","","","","","",""
"","","","","","single-stim-button","121","247146","0.0-2.0-28.1-1.1","63d4011ebee8a9cb17cfa313","C3","batch3","","439","tol_toboard","","","","tol_peg_2","439","439","0","[[2,1,0],[3,0],[0]]","2","[[1,2,0],[3,0],[0]]","6","0","","","","","","5","","","","","","","","",""
"","","","","","single-stim-button","122","247647","0.0-2.0-28.2-0.2","63d4011ebee8a9cb17cfa313","C3","batch3","","501","tol_tohand","","","","tol_peg_1","501","501","0","[[2,0,0],[3,0],[0]]","3","[[1,2,0],[3,0],[0]]","6","0","","","","","","5","","","","","","","","",""
"","","","","","single-stim-button","123","248188","0.0-2.0-28.2-1.2","63d4011ebee8a9cb17cfa313","C3","batch3","","541","tol_toboard","","","","tol_peg_3","541","541","0","[[2,0,0],[3,0],[1]]","3","[[1,2,0],[3,0],[0]]","6","0","","","","","","5","","","","","","","","",""
"","","","","","single-stim-button","124","250871","0.0-2.0-28.3-0.3","63d4011ebee8a9cb17cfa313","C3","batch3","","2682","tol_tohand","","","","tol_peg_1","2682","2682","0","[[0,0,0],[3,0],[1]]","4","[[1,2,0],[3,0],[0]]","6","0","","","","","","5","","","","","","","","",""
"","","","","","single-stim-button","125","251314","0.0-2.0-28.3-1.3","63d4011ebee8a9cb17cfa313","C3","batch3","","442","tol_toboard","","","","tol_peg_2","442","442","0","[[0,0,0],[3,2],[1]]","4","[[1,2,0],[3,0],[0]]","6","0","","","","","","5","","","","","","","","",""
"","","","","","single-stim-button","126","251759","0.0-2.0-28.4-0.4","63d4011ebee8a9cb17cfa313","C3","batch3","","445","tol_tohand","","","","tol_peg_3","445","445","0","[[0,0,0],[3,2],[0]]","5","[[1,2,0],[3,0],[0]]","6","0","","","","","","5","","","","","","","","",""
"","","","","","single-stim-button","127","252541","0.0-2.0-28.4-1.4","63d4011ebee8a9cb17cfa313","C3","batch3","","782","tol_toboard","","","","tol_peg_1","782","782","0","[[1,0,0],[3,2],[0]]","5","[[1,2,0],[3,0],[0]]","6","0","","","","","","5","","","","","","","","",""
"","","","","","single-stim-button","128","252906","0.0-2.0-28.5-0.5","63d4011ebee8a9cb17cfa313","C3","batch3","","365","tol_tohand","","","","tol_peg_2","365","365","0","[[1,0,0],[3,0],[0]]","6","[[1,2,0],[3,0],[0]]","6","0","","","","","","5","","","","","","","","",""
"","","","","","single-stim-button","129","253398","0.0-2.0-28.5-1.5","63d4011ebee8a9cb17cfa313","C3","batch3","","491","tol_toboard","","","","tol_peg_1","491","491","0","[[1,2,0],[3,0],[0]]","6","[[1,2,0],[3,0],[0]]","6","0","","","","","","5","","","","","","","","",""
"","","","","","poldrack-single-stim","130","254399","0.0-2.0-29.0","63d4011ebee8a9cb17cfa313","C3","batch3","","-1","tol_feedback","","","true","","1000","1000","500","","","","","","-1","none","true","4421","8837","","","","","","","","","",""
"","","","","","html-button-response","131","254824","0.0-2.0-30.0","63d4011ebee8a9cb17cfa313","C3","batch3","","424.40000009536743","tol_trial_num","<div class = centerbox><p class = center-block-text>problem <strong>8</strong> out of 25 problems</p></div>","0","","","","","","","","","","","","","","","","","","","","","","","","",""
"","","","","","single-stim-button","132","257342","0.0-2.0-31.0-0.0","63d4011ebee8a9cb17cfa313","C3","batch3","","2518","tol_tohand","","","","tol_peg_3","2518","2518","0","[[0,0,0],[2,3],[0]]","1","[[1,2,0],[3,0],[0]]","7","0","","","","","","4","","","","","","","","",""
"","","","","","single-stim-button","133","258010","0.0-2.0-31.0-1.0","63d4011ebee8a9cb17cfa313","C3","batch3","","668","tol_toboard","","","","tol_peg_1","668","668","0","[[1,0,0],[2,3],[0]]","1","[[1,2,0],[3,0],[0]]","7","0","","","","","","4","","","","","","","","",""
"","","","","","single-stim-button","134","258364","0.0-2.0-31.1-0.1","63d4011ebee8a9cb17cfa313","C3","batch3","","354","tol_tohand","","","","tol_peg_2","354","354","0","[[1,0,0],[2,0],[0]]","2","[[1,2,0],[3,0],[0]]","7","0","","","","","","4","","","","","","","","",""
"","","","","","single-stim-button","135","258753","0.0-2.0-31.1-1.1","63d4011ebee8a9cb17cfa313","C3","batch3","","388","tol_toboard","","","","tol_peg_3","388","388","0","[[1,0,0],[2,0],[3]]","2","[[1,2,0],[3,0],[0]]","7","0","","","","","","4","","","","","","","","",""
"","","","","","single-stim-button","136","259717","0.0-2.0-31.2-0.2","63d4011ebee8a9cb17cfa313","C3","batch3","","964","tol_tohand","","","","tol_peg_2","964","964","0","[[1,0,0],[0,0],[3]]","3","[[1,2,0],[3,0],[0]]","7","0","","","","","","4","","","","","","","","",""
"","","","","","single-stim-button","137","260284","0.0-2.0-31.2-1.2","63d4011ebee8a9cb17cfa313","C3","batch3","","567","tol_toboard","","","","tol_peg_1","567","567","0","[[1,2,0],[0,0],[3]]","3","[[1,2,0],[3,0],[0]]","7","0","","","","","","4","","","","","","","","",""
"","","","","","single-stim-button","138","260678","0.0-2.0-31.3-0.3","63d4011ebee8a9cb17cfa313","C3","batch3","","394","tol_tohand","","","","tol_peg_3","394","394","0","[[1,2,0],[0,0],[0]]","4","[[1,2,0],[3,0],[0]]","7","0","","","","","","4","","","","","","","","",""
"","","","","","single-stim-button","139","261036","0.0-2.0-31.3-1.3","63d4011ebee8a9cb17cfa313","C3","batch3","","358","tol_toboard","","","","tol_peg_2","358","358","0","[[1,2,0],[3,0],[0]]","4","[[1,2,0],[3,0],[0]]","7","0","","","","","","4","","","","","","","","",""
"","","","","","poldrack-single-stim","140","262037","0.0-2.0-32.0","63d4011ebee8a9cb17cfa313","C3","batch3","","-1","tol_feedback","","","true","","1000","1000","500","","","","","","-1","none","true","2518","4230","","","","","","","","","",""
"","","","","","html-button-response","141","262499","0.0-2.0-33.0","63d4011ebee8a9cb17cfa313","C3","batch3","","461.09999990463257","tol_trial_num","<div class = centerbox><p class = center-block-text>problem <strong>9</strong> out of 25 problems</p></div>","0","","","","","","","","","","","","","","","","","","","","","","","","",""
"","","","","","single-stim-button","142","267110","0.0-2.0-34.0-0.0","63d4011ebee8a9cb17cfa313","C3","batch3","","4610","tol_tohand","","","","tol_peg_3","4610","4610","0","[[3,2,0],[0,0],[0]]","1","[[2,1,0],[3,0],[0]]","8","0","","","","","","6","","","","","","","","",""
"","","","","","single-stim-button","143","267554","0.0-2.0-34.0-1.0","63d4011ebee8a9cb17cfa313","C3","batch3","","443","tol_toboard","","","","tol_peg_2","443","443","0","[[3,2,0],[1,0],[0]]","1","[[2,1,0],[3,0],[0]]","8","0","","","","","","6","","","","","","","","",""
"","","","","","single-stim-button","144","268206","0.0-2.0-34.1-0.1","63d4011ebee8a9cb17cfa313","C3","batch3","","652","tol_tohand","","","","tol_peg_1","652","652","0","[[3,0,0],[1,0],[0]]","2","[[2,1,0],[3,0],[0]]","8","0","","","","","","6","","","","","","","","",""
"","","","","","single-stim-button","145","269121","0.0-2.0-34.1-1.1","63d4011ebee8a9cb17cfa313","C3","batch3","","915","tol_toboard","","","","tol_peg_3","915","915","0","[[3,0,0],[1,0],[2]]","2","[[2,1,0],[3,0],[0]]","8","0","","","","","","6","","","","","","","","",""
"","","","","","single-stim-button","146","269954","0.0-2.0-34.2-0.2","63d4011ebee8a9cb17cfa313","C3","batch3","","833","tol_tohand","","","","tol_peg_1","833","833","0","[[0,0,0],[1,0],[2]]","3","[[2,1,0],[3,0],[0]]","8","0","","","","","","6","","","","","","","","",""
"","","","","","single-stim-button","147","270287","0.0-2.0-34.2-1.2","63d4011ebee8a9cb17cfa313","C3","batch3","","333","tol_toboard","","","","tol_peg_2","333","333","0","[[0,0,0],[1,3],[2]]","3","[[2,1,0],[3,0],[0]]","8","0","","","","","","6","","","","","","","","",""
"","","","","","single-stim-button","148","270703","0.0-2.0-34.3-0.3","63d4011ebee8a9cb17cfa313","C3","batch3","","414","tol_tohand","","","","tol_peg_3","414","414","0","[[0,0,0],[1,3],[0]]","4","[[2,1,0],[3,0],[0]]","8","0","","","","","","6","","","","","","","","",""
"","","","","","single-stim-button","149","271645","0.0-2.0-34.3-1.3","63d4011ebee8a9cb17cfa313","C3","batch3","","942","tol_toboard","","","","tol_peg_1","942","942","0","[[2,0,0],[1,3],[0]]","4","[[2,1,0],[3,0],[0]]","8","0","","","","","","6","","","","","","","","",""
"","","","","","single-stim-button","150","272014","0.0-2.0-34.4-0.4","63d4011ebee8a9cb17cfa313","C3","batch3","","368","tol_tohand","","","","tol_peg_2","368","368","0","[[2,0,0],[1,0],[0]]","5","[[2,1,0],[3,0],[0]]","8","0","","","","","","6","","","","","","","","",""
"","","","","","single-stim-button","151","272298","0.0-2.0-34.4-1.4","63d4011ebee8a9cb17cfa313","C3","batch3","","283","tol_toboard","","","","tol_peg_3","283","283","0","[[2,0,0],[1,0],[3]]","5","[[2,1,0],[3,0],[0]]","8","0","","","","","","6","","","","","","","","",""
"","","","","","single-stim-button","152","272713","0.0-2.0-34.5-0.5","63d4011ebee8a9cb17cfa313","C3","batch3","","414","tol_tohand","","","","tol_peg_2","414","414","0","[[2,0,0],[0,0],[3]]","6","[[2,1,0],[3,0],[0]]","8","0","","","","","","6","","","","","","","","",""
"","","","","","single-stim-button","153","273333","0.0-2.0-34.5-1.5","63d4011ebee8a9cb17cfa313","C3","batch3","","620","tol_toboard","","","","tol_peg_1","620","620","0","[[2,1,0],[0,0],[3]]","6","[[2,1,0],[3,0],[0]]","8","0","","","","","","6","","","","","","","","",""
"","","","","","single-stim-button","154","273757","0.0-2.0-34.6-0.6","63d4011ebee8a9cb17cfa313","C3","batch3","","423","tol_tohand","","","","tol_peg_3","423","423","0","[[2,1,0],[0,0],[0]]","7","[[2,1,0],[3,0],[0]]","8","0","","","","","","6","","","","","","","","",""
"","","","","","single-stim-button","155","274178","0.0-2.0-34.6-1.6","63d4011ebee8a9cb17cfa313","C3","batch3","","420","tol_toboard","","","","tol_peg_2","420","420","0","[[2,1,0],[3,0],[0]]","7","[[2,1,0],[3,0],[0]]","8","0","","","","","","6","","","","","","","","",""
"","","","","","poldrack-single-stim","156","275179","0.0-2.0-35.0","63d4011ebee8a9cb17cfa313","C3","batch3","","-1","tol_feedback","","","true","","1000","1000","500","","","","","","-1","none","true","4610","7714","","","","","","","","","",""
"","","","","","html-button-response","157","275656","0.0-2.0-36.0","63d4011ebee8a9cb17cfa313","C3","batch3","","476","tol_trial_num","<div class = centerbox><p class = center-block-text>problem <strong>10</strong> out of 25 problems</p></div>","0","","","","","","","","","","","","","","","","","","","","","","","","",""
"","","","","","single-stim-button","158","278727","0.0-2.0-37.0-0.0","63d4011ebee8a9cb17cfa313","C3","batch3","","3071","tol_tohand","","","","tol_peg_2","3071","3071","0","[[3,0,0],[0,0],[2]]","1","[[3,0,0],[2,1],[0]]","9","0","","","","","","3","","","","","","","","",""
"","","","","","single-stim-button","159","279147","0.0-2.0-37.0-1.0","63d4011ebee8a9cb17cfa313","C3","batch3","","420","tol_toboard","","","","tol_peg_1","420","420","0","[[3,1,0],[0,0],[2]]","1","[[3,0,0],[2,1],[0]]","9","0","","","","","","3","","","","","","","","",""
"","","","","","single-stim-button","160","279776","0.0-2.0-37.1-0.1","63d4011ebee8a9cb17cfa313","C3","batch3","","629","tol_tohand","","","","tol_peg_3","629","629","0","[[3,1,0],[0,0],[0]]","2","[[3,0,0],[2,1],[0]]","9","0","","","","","","3","","","","","","","","",""
"","","","","","single-stim-button","161","280265","0.0-2.0-37.1-1.1","63d4011ebee8a9cb17cfa313","C3","batch3","","488","tol_toboard","","","","tol_peg_2","488","488","0","[[3,1,0],[2,0],[0]]","2","[[3,0,0],[2,1],[0]]","9","0","","","","","","3","","","","","","","","",""
"","","","","","single-stim-button","162","280695","0.0-2.0-37.2-0.2","63d4011ebee8a9cb17cfa313","C3","batch3","","429","tol_tohand","","","","tol_peg_1","429","429","0","[[3,0,0],[2,0],[0]]","3","[[3,0,0],[2,1],[0]]","9","0","","","","","","3","","","","","","","","",""
"","","","","","single-stim-button","163","281391","0.0-2.0-37.2-1.2","63d4011ebee8a9cb17cfa313","C3","batch3","","696","tol_toboard","","","","tol_peg_2","696","696","0","[[3,0,0],[2,1],[0]]","3","[[3,0,0],[2,1],[0]]","9","0","","","","","","3","","","","","","","","",""
"","","","","","poldrack-single-stim","164","282392","0.0-2.0-38.0","63d4011ebee8a9cb17cfa313","C3","batch3","","-1","tol_feedback","","","true","","1000","1000","500","","","","","","-1","none","true","3071","4129","","","","","","","","","",""
"","","","","","html-button-response","165","282837","0.0-2.0-39.0","63d4011ebee8a9cb17cfa313","C3","batch3","","443.89999997615814","tol_trial_num","<div class = centerbox><p class = center-block-text>problem <strong>11</strong> out of 25 problems</p></div>","0","","","","","","","","","","","","","","","","","","","","","","","","",""
"","","","","","single-stim-button","166","285427","0.0-2.0-40.0-0.0","63d4011ebee8a9cb17cfa313","C3","batch3","","2590","tol_tohand","","","","tol_peg_1","2590","2590","0","[[1,0,0],[3,0],[0]]","1","[[2,0,0],[1,3],[0]]","10","0","","","","","","6","","","","","","","","",""
"","","","","","single-stim-button","167","286219","0.0-2.0-40.0-1.0","63d4011ebee8a9cb17cfa313","C3","batch3","","792","tol_toboard","","","","tol_peg_3","792","792","0","[[1,0,0],[3,0],[2]]","1","[[2,0,0],[1,3],[0]]","10","0","","","","","","6","","","","","","","","",""
"","","","","","single-stim-button","168","286820","0.0-2.0-40.1-0.1","63d4011ebee8a9cb17cfa313","C3","batch3","","601","tol_tohand","","","","tol_peg_1","601","601","0","[[0,0,0],[3,0],[2]]","2","[[2,0,0],[1,3],[0]]","10","0","","","","","","6","","","","","","","","",""
"","","","","","single-stim-button","169","287727","0.0-2.0-40.1-1.1","63d4011ebee8a9cb17cfa313","C3","batch3","","907","tol_toboard","","","","tol_peg_2","907","907","0","[[0,0,0],[3,1],[2]]","2","[[2,0,0],[1,3],[0]]","10","0","","","","","","6","","","","","","","","",""
"","","","","","single-stim-button","170","288089","0.0-2.0-40.2-0.2","63d4011ebee8a9cb17cfa313","C3","batch3","","360","tol_tohand","","","","tol_peg_3","360","360","0","[[0,0,0],[3,1],[0]]","3","[[2,0,0],[1,3],[0]]","10","0","","","","","","6","","","","","","","","",""
"","","","","","single-stim-button","171","288827","0.0-2.0-40.2-1.2","63d4011ebee8a9cb17cfa313","C3","batch3","","737","tol_toboard","","","","tol_peg_1","737","737","0","[[2,0,0],[3,1],[0]]","3","[[2,0,0],[1,3],[0]]","10","0","","","","","","6","","","","","","","","",""
"","","","","","single-stim-button","172","289615","0.0-2.0-40.3-0.3","63d4011ebee8a9cb17cfa313","C3","batch3","","787","tol_tohand","","","","tol_peg_2","787","787","0","[[2,0,0],[3,0],[0]]","4","[[2,0,0],[1,3],[0]]","10","0","","","","","","6","","","","","","","","",""
"","","","","","single-stim-button","173","290028","0.0-2.0-40.3-1.3","63d4011ebee8a9cb17cfa313","C3","batch3","","413","tol_toboard","","","","tol_peg_3","413","413","0","[[2,0,0],[3,0],[1]]","4","[[2,0,0],[1,3],[0]]","10","0","","","","","","6","","","","","","","","",""
"","","","","","single-stim-button","174","290529","0.0-2.0-40.4-0.4","63d4011ebee8a9cb17cfa313","C3","batch3","","499","tol_tohand","","","","tol_peg_2","499","499","0","[[2,0,0],[0,0],[1]]","5","[[2,0,0],[1,3],[0]]","10","0","","","","","","6","","","","","","","","",""
"","","","","","single-stim-button","175","290880","0.0-2.0-40.4-1.4","63d4011ebee8a9cb17cfa313","C3","batch3","","351","tol_toboard","","","","tol_peg_1","351","351","0","[[2,3,0],[0,0],[1]]","5","[[2,0,0],[1,3],[0]]","10","0","","","","","","6","","","","","","","","",""
"","","","","","single-stim-button","176","291296","0.0-2.0-40.5-0.5","63d4011ebee8a9cb17cfa313","C3","batch3","","415","tol_tohand","","","","tol_peg_3","415","415","0","[[2,3,0],[0,0],[0]]","6","[[2,0,0],[1,3],[0]]","10","0","","","","","","6","","","","","","","","",""
"","","","","","single-stim-button","177","291823","0.0-2.0-40.5-1.5","63d4011ebee8a9cb17cfa313","C3","batch3","","526","tol_toboard","","","","tol_peg_2","526","526","0","[[2,3,0],[1,0],[0]]","6","[[2,0,0],[1,3],[0]]","10","0","","","","","","6","","","","","","","","",""
"","","","","","single-stim-button","178","292446","0.0-2.0-40.6-0.6","63d4011ebee8a9cb17cfa313","C3","batch3","","622","tol_tohand","","","","tol_peg_1","622","622","0","[[2,0,0],[1,0],[0]]","7","[[2,0,0],[1,3],[0]]","10","0","","","","","","6","","","","","","","","",""
"","","","","","single-stim-button","179","293282","0.0-2.0-40.6-1.6","63d4011ebee8a9cb17cfa313","C3","batch3","","836","tol_toboard","","","","tol_peg_2","836","836","0","[[2,0,0],[1,3],[0]]","7","[[2,0,0],[1,3],[0]]","10","0","","","","","","6","","","","","","","","",""
"","","","","","poldrack-single-stim","180","294286","0.0-2.0-41.0","63d4011ebee8a9cb17cfa313","C3","batch3","","-1","tol_feedback","","","true","","1000","1000","500","","","","","","-1","none","true","2590","5874","","","","","","","","","",""
"","","","","","html-button-response","181","294956","0.0-2.0-42.0","63d4011ebee8a9cb17cfa313","C3","batch3","","669.3999999761581","tol_trial_num","<div class = centerbox><p class = center-block-text>problem <strong>12</strong> out of 25 problems</p></div>","0","","","","","","","","","","","","","","","","","","","","","","","","",""
"","","","","","single-stim-button","182","296878","0.0-2.0-43.0-0.0","63d4011ebee8a9cb17cfa313","C3","batch3","","1922","tol_tohand","","","","tol_peg_1","1922","1922","0","[[1,0,0],[3,0],[0]]","1","[[2,3,0],[0,0],[1]]","11","0","","","","","","4","","","","","","","","",""
"","","","","","single-stim-button","183","297270","0.0-2.0-43.0-1.0","63d4011ebee8a9cb17cfa313","C3","batch3","","390","tol_toboard","","","","tol_peg_2","390","390","0","[[1,0,0],[3,2],[0]]","1","[[2,3,0],[0,0],[1]]","11","0","","","","","","4","","","","","","","","",""
"","","","","","single-stim-button","184","297820","0.0-2.0-43.1-0.1","63d4011ebee8a9cb17cfa313","C3","batch3","","550","tol_tohand","","","","tol_peg_1","550","550","0","[[0,0,0],[3,2],[0]]","2","[[2,3,0],[0,0],[1]]","11","0","","","","","","4","","","","","","","","",""
"","","","","","single-stim-button","185","298361","0.0-2.0-43.1-1.1","63d4011ebee8a9cb17cfa313","C3","batch3","","541","tol_toboard","","","","tol_peg_3","541","541","0","[[0,0,0],[3,2],[1]]","2","[[2,3,0],[0,0],[1]]","11","0","","","","","","4","","","","","","","","",""
"","","","","","single-stim-button","186","299339","0.0-2.0-43.2-0.2","63d4011ebee8a9cb17cfa313","C3","batch3","","978","tol_tohand","","","","tol_peg_2","978","978","0","[[0,0,0],[3,0],[1]]","3","[[2,3,0],[0,0],[1]]","11","0","","","","","","4","","","","","","","","",""
"","","","","","single-stim-button","187","299988","0.0-2.0-43.2-1.2","63d4011ebee8a9cb17cfa313","C3","batch3","","649","tol_toboard","","","","tol_peg_1","649","649","0","[[2,0,0],[3,0],[1]]","3","[[2,3,0],[0,0],[1]]","11","0","","","","","","4","","","","","","","","",""
"","","","","","single-stim-button","188","300404","0.0-2.0-43.3-0.3","63d4011ebee8a9cb17cfa313","C3","batch3","","416","tol_tohand","","","","tol_peg_2","416","416","0","[[2,0,0],[0,0],[1]]","4","[[2,3,0],[0,0],[1]]","11","0","","","","","","4","","","","","","","","",""
"","","","","","single-stim-button","189","301592","0.0-2.0-43.3-1.3","63d4011ebee8a9cb17cfa313","C3","batch3","","1188","tol_toboard","","","","tol_peg_2","1188","1188","0","[[2,0,0],[3,0],[1]]","4","[[2,3,0],[0,0],[1]]","11","0","","","","","","4","","","","","","","","",""
"","","","","","single-stim-button","190","302021","0.0-2.0-43.4-0.4","63d4011ebee8a9cb17cfa313","C3","batch3","","429","tol_tohand","","","","tol_peg_3","429","429","0","[[2,0,0],[3,0],[0]]","5","[[2,3,0],[0,0],[1]]","11","0","","","","","","4","","","","","","","","",""
"","","","","","single-stim-button","191","302674","0.0-2.0-43.4-1.4","63d4011ebee8a9cb17cfa313","C3","batch3","","652","tol_toboard","","","","tol_peg_2","652","652","0","[[2,0,0],[3,1],[0]]","5","[[2,3,0],[0,0],[1]]","11","0","","","","","","4","","","","","","","","",""
"","","","","","single-stim-button","192","304093","0.0-2.0-43.5-0.5","63d4011ebee8a9cb17cfa313","C3","batch3","","1419","tol_tohand","","","","tol_peg_2","1419","1419","0","[[2,0,0],[3,0],[0]]","6","[[2,3,0],[0,0],[1]]","11","0","","","","","","4","","","","","","","","",""
"","","","","","single-stim-button","193","304630","0.0-2.0-43.5-1.5","63d4011ebee8a9cb17cfa313","C3","batch3","","537","tol_toboard","","","","tol_peg_1","537","537","0","[[2,1,0],[3,0],[0]]","6","[[2,3,0],[0,0],[1]]","11","0","","","","","","4","","","","","","","","",""
"","","","","","single-stim-button","194","305040","0.0-2.0-43.6-0.6","63d4011ebee8a9cb17cfa313","C3","batch3","","409","tol_tohand","","","","tol_peg_2","409","409","0","[[2,1,0],[0,0],[0]]","7","[[2,3,0],[0,0],[1]]","11","0","","","","","","4","","","","","","","","",""
"","","","","","single-stim-button","195","305679","0.0-2.0-43.6-1.6","63d4011ebee8a9cb17cfa313","C3","batch3","","639","tol_toboard","","","","tol_peg_3","639","639","0","[[2,1,0],[0,0],[3]]","7","[[2,3,0],[0,0],[1]]","11","0","","","","","","4","","","","","","","","",""
"","","","","","single-stim-button","196","306513","0.0-2.0-43.7-0.7","63d4011ebee8a9cb17cfa313","C3","batch3","","834","tol_tohand","","","","tol_peg_1","834","834","0","[[2,0,0],[0,0],[3]]","8","[[2,3,0],[0,0],[1]]","11","0","","","","","","4","","","","","","","","",""
"","","","","","single-stim-button","197","308912","0.0-2.0-43.7-1.7","63d4011ebee8a9cb17cfa313","C3","batch3","","2399","tol_toboard","","","","tol_peg_2","2399","2399","0","[[2,0,0],[1,0],[3]]","8","[[2,3,0],[0,0],[1]]","11","0","","","","","","4","","","","","","","","",""
"","","","","","single-stim-button","198","309358","0.0-2.0-43.8-0.8","63d4011ebee8a9cb17cfa313","C3","batch3","","446","tol_tohand","","","","tol_peg_1","446","446","0","[[0,0,0],[1,0],[3]]","9","[[2,3,0],[0,0],[1]]","11","0","","","","","","4","","","","","","","","",""
"","","","","","single-stim-button","199","309690","0.0-2.0-43.8-1.8","63d4011ebee8a9cb17cfa313","C3","batch3","","332","tol_toboard","","","","tol_peg_2","332","332","0","[[0,0,0],[1,2],[3]]","9","[[2,3,0],[0,0],[1]]","11","0","","","","","","4","","","","","","","","",""
"","","","","","single-stim-button","200","310505","0.0-2.0-43.9-0.9","63d4011ebee8a9cb17cfa313","C3","batch3","","814","tol_tohand","","","","tol_peg_3","814","814","0","[[0,0,0],[1,2],[0]]","10","[[2,3,0],[0,0],[1]]","11","0","","","","","","4","","","","","","","","",""
"","","","","","single-stim-button","201","311184","0.0-2.0-43.9-1.9","63d4011ebee8a9cb17cfa313","C3","batch3","","679","tol_toboard","","","","tol_peg_1","679","679","0","[[3,0,0],[1,2],[0]]","10","[[2,3,0],[0,0],[1]]","11","0","","","","","","4","","","","","","","","",""
"","","","","","single-stim-button","202","312337","0.0-2.0-43.10-0.10","63d4011ebee8a9cb17cfa313","C3","batch3","","1153","tol_tohand","","","","tol_peg_1","1153","1153","0","[[0,0,0],[1,2],[0]]","11","[[2,3,0],[0,0],[1]]","11","0","","","","","","4","","","","","","","","",""
"","","","","","single-stim-button","203","313698","0.0-2.0-43.10-1.10","63d4011ebee8a9cb17cfa313","C3","batch3","","1359","tol_toboard","","","","tol_peg_3","1359","1359","0","[[0,0,0],[1,2],[3]]","11","[[2,3,0],[0,0],[1]]","11","0","","","","","","4","","","","","","","","",""
"","","","","","single-stim-button","204","314130","0.0-2.0-43.11-0.11","63d4011ebee8a9cb17cfa313","C3","batch3","","431","tol_tohand","","","","tol_peg_2","431","431","0","[[0,0,0],[1,0],[3]]","12","[[2,3,0],[0,0],[1]]","11","0","","","","","","4","","","","","","","","",""
"","","","","","single-stim-button","205","314581","0.0-2.0-43.11-1.11","63d4011ebee8a9cb17cfa313","C3","batch3","","451","tol_toboard","","","","tol_peg_1","451","451","0","[[2,0,0],[1,0],[3]]","12","[[2,3,0],[0,0],[1]]","11","0","","","","","","4","","","","","","","","",""
"","","","","","single-stim-button","206","315153","0.0-2.0-43.12-0.12","63d4011ebee8a9cb17cfa313","C3","batch3","","570","tol_tohand","","","","tol_peg_3","570","570","0","[[2,0,0],[1,0],[0]]","13","[[2,3,0],[0,0],[1]]","11","0","","","","","","4","","","","","","","","",""
"","","","","","single-stim-button","207","316439","0.0-2.0-43.12-1.12","63d4011ebee8a9cb17cfa313","C3","batch3","","1285","tol_toboard","","","","tol_peg_1","1285","1285","0","[[2,3,0],[1,0],[0]]","13","[[2,3,0],[0,0],[1]]","11","0","","","","","","4","","","","","","","","",""
"","","","","","single-stim-button","208","316925","0.0-2.0-43.13-0.13","63d4011ebee8a9cb17cfa313","C3","batch3","","485","tol_tohand","","","","tol_peg_2","485","485","0","[[2,3,0],[0,0],[0]]","14","[[2,3,0],[0,0],[1]]","11","0","","","","","","4","","","","","","","","",""
"","","","","","single-stim-button","209","317401","0.0-2.0-43.13-1.13","63d4011ebee8a9cb17cfa313","C3","batch3","","476","tol_toboard","","","","tol_peg_3","476","476","0","[[2,3,0],[0,0],[1]]","14","[[2,3,0],[0,0],[1]]","11","0","","","","","","4","","","","","","","","",""
"","","","","","poldrack-single-stim","210","318402","0.0-2.0-44.0","63d4011ebee8a9cb17cfa313","C3","batch3","","-1","tol_feedback","","","true","","1000","1000","500","","","","","","-1","none","true","1922","10856","","","","","","","","","",""
"","","","","","html-button-response","211","318963","0.0-2.0-45.0","63d4011ebee8a9cb17cfa313","C3","batch3","","560.1000000238419","tol_trial_num","<div class = centerbox><p class = center-block-text>problem <strong>13</strong> out of 25 problems</p></div>","0","","","","","","","","","","","","","","","","","","","","","","","","",""
"","","","","","single-stim-button","212","321357","0.0-2.0-46.0-0.0","63d4011ebee8a9cb17cfa313","C3","batch3","","2393","tol_tohand","","","","tol_peg_1","2393","2393","0","[[1,0,0],[3,0],[0]]","1","[[0,0,0],[2,3],[1]]","12","0","","","","","","4","","","","","","","","",""
"","","","","","single-stim-button","213","323311","0.0-2.0-46.0-1.0","63d4011ebee8a9cb17cfa313","C3","batch3","","1954","tol_toboard","","","","tol_peg_3","1954","1954","0","[[1,0,0],[3,0],[2]]","1","[[0,0,0],[2,3],[1]]","12","0","","","","","","4","","","","","","","","",""
"","","","","","single-stim-button","214","325509","0.0-2.0-46.1-0.1","63d4011ebee8a9cb17cfa313","C3","batch3","","2198","tol_tohand","","","","tol_peg_2","2198","2198","0","[[1,0,0],[0,0],[2]]","2","[[0,0,0],[2,3],[1]]","12","0","","","","","","4","","","","","","","","",""
"","","","","","single-stim-button","215","325945","0.0-2.0-46.1-1.1","63d4011ebee8a9cb17cfa313","C3","batch3","","436","tol_toboard","","","","tol_peg_1","436","436","0","[[1,3,0],[0,0],[2]]","2","[[0,0,0],[2,3],[1]]","12","0","","","","","","4","","","","","","","","",""
"","","","","","single-stim-button","216","326765","0.0-2.0-46.2-0.2","63d4011ebee8a9cb17cfa313","C3","batch3","","819","tol_tohand","","","","tol_peg_3","819","819","0","[[1,3,0],[0,0],[0]]","3","[[0,0,0],[2,3],[1]]","12","0","","","","","","4","","","","","","","","",""
"","","","","","single-stim-button","217","327261","0.0-2.0-46.2-1.2","63d4011ebee8a9cb17cfa313","C3","batch3","","496","tol_toboard","","","","tol_peg_2","496","496","0","[[1,3,0],[2,0],[0]]","3","[[0,0,0],[2,3],[1]]","12","0","","","","","","4","","","","","","","","",""
"","","","","","single-stim-button","218","327839","0.0-2.0-46.3-0.3","63d4011ebee8a9cb17cfa313","C3","batch3","","578","tol_tohand","","","","tol_peg_1","578","578","0","[[1,0,0],[2,0],[0]]","4","[[0,0,0],[2,3],[1]]","12","0","","","","","","4","","","","","","","","",""
"","","","","","single-stim-button","219","328350","0.0-2.0-46.3-1.3","63d4011ebee8a9cb17cfa313","C3","batch3","","511","tol_toboard","","","","tol_peg_2","511","511","0","[[1,0,0],[2,3],[0]]","4","[[0,0,0],[2,3],[1]]","12","0","","","","","","4","","","","","","","","",""
"","","","","","single-stim-button","220","328846","0.0-2.0-46.4-0.4","63d4011ebee8a9cb17cfa313","C3","batch3","","496","tol_tohand","","","","tol_peg_1","496","496","0","[[0,0,0],[2,3],[0]]","5","[[0,0,0],[2,3],[1]]","12","0","","","","","","4","","","","","","","","",""
"","","","","","single-stim-button","221","329633","0.0-2.0-46.4-1.4","63d4011ebee8a9cb17cfa313","C3","batch3","","787","tol_toboard","","","","tol_peg_3","787","787","0","[[0,0,0],[2,3],[1]]","5","[[0,0,0],[2,3],[1]]","12","0","","","","","","4","","","","","","","","",""
"","","","","","poldrack-single-stim","222","330634","0.0-2.0-47.0","63d4011ebee8a9cb17cfa313","C3","batch3","","-1","tol_feedback","","","true","","1000","1000","500","","","","","","-1","none","true","2393","6484","","","","","","","","","",""
"","","","","","html-button-response","223","334558","0.0-2.0-48.0","63d4011ebee8a9cb17cfa313","C3","batch3","","3923.5","attention_check","<p class = block-text>How many balls are in your board<br></p>","1","true","","","","","","","","","","","","","","","","","","","","","","","",""
"","","","","","html-button-response","224","335428","0.0-2.0-49.0","63d4011ebee8a9cb17cfa313","C3","batch3","","869.1999999284744","tol_trial_num","<div class = centerbox><p class = center-block-text>problem <strong>14</strong> out of 25 problems</p></div>","0","","","","","","","","","","","","","","","","","","","","","","","","",""
"","","","","","single-stim-button","225","337629","0.0-2.0-50.0-0.0","63d4011ebee8a9cb17cfa313","C3","batch3","","2201","tol_tohand","","","","tol_peg_1","2201","2201","0","[[2,0,0],[3,0],[0]]","1","[[1,2,0],[3,0],[0]]","13","0","","","","","","4","","","","","","","","",""
"","","","","","single-stim-button","226","341151","0.0-2.0-50.0-1.0","63d4011ebee8a9cb17cfa313","C3","batch3","","3522","tol_toboard","","","","tol_peg_3","3522","3522","0","[[2,0,0],[3,0],[1]]","1","[[1,2,0],[3,0],[0]]","13","0","","","","","","4","","","","","","","","",""
"","","","","","single-stim-button","227","341897","0.0-2.0-50.1-0.1","63d4011ebee8a9cb17cfa313","C3","batch3","","745","tol_tohand","","","","tol_peg_1","745","745","0","[[0,0,0],[3,0],[1]]","2","[[1,2,0],[3,0],[0]]","13","0","","","","","","4","","","","","","","","",""
"","","","","","single-stim-button","228","342239","0.0-2.0-50.1-1.1","63d4011ebee8a9cb17cfa313","C3","batch3","","342","tol_toboard","","","","tol_peg_2","342","342","0","[[0,0,0],[3,2],[1]]","2","[[1,2,0],[3,0],[0]]","13","0","","","","","","4","","","","","","","","",""
"","","","","","single-stim-button","229","342674","0.0-2.0-50.2-0.2","63d4011ebee8a9cb17cfa313","C3","batch3","","435","tol_tohand","","","","tol_peg_3","435","435","0","[[0,0,0],[3,2],[0]]","3","[[1,2,0],[3,0],[0]]","13","0","","","","","","4","","","","","","","","",""
"","","","","","single-stim-button","230","343213","0.0-2.0-50.2-1.2","63d4011ebee8a9cb17cfa313","C3","batch3","","539","tol_toboard","","","","tol_peg_1","539","539","0","[[1,0,0],[3,2],[0]]","3","[[1,2,0],[3,0],[0]]","13","0","","","","","","4","","","","","","","","",""
"","","","","","single-stim-button","231","343600","0.0-2.0-50.3-0.3","63d4011ebee8a9cb17cfa313","C3","batch3","","386","tol_tohand","","","","tol_peg_2","386","386","0","[[1,0,0],[3,0],[0]]","4","[[1,2,0],[3,0],[0]]","13","0","","","","","","4","","","","","","","","",""
"","","","","","single-stim-button","232","343964","0.0-2.0-50.3-1.3","63d4011ebee8a9cb17cfa313","C3","batch3","","364","tol_toboard","","","","tol_peg_1","364","364","0","[[1,2,0],[3,0],[0]]","4","[[1,2,0],[3,0],[0]]","13","0","","","","","","4","","","","","","","","",""
"","","","","","poldrack-single-stim","233","344965","0.0-2.0-51.0","63d4011ebee8a9cb17cfa313","C3","batch3","","-1","tol_feedback","","","true","","1000","1000","500","","","","","","-1","none","true","2201","3767","","","","","","","","","",""
"","","","","","html-button-response","234","345328","0.0-2.0-52.0","63d4011ebee8a9cb17cfa313","C3","batch3","","362.89999997615814","tol_trial_num","<div class = centerbox><p class = center-block-text>problem <strong>15</strong> out of 25 problems</p></div>","0","","","","","","","","","","","","","","","","","","","","","","","","",""
"","","","","","single-stim-button","235","350325","0.0-2.0-53.0-0.0","63d4011ebee8a9cb17cfa313","C3","batch3","","4996","tol_tohand","","","","tol_peg_1","4996","4996","0","[[1,0,0],[3,0],[0]]","1","[[2,0,0],[3,0],[1]]","14","0","","","","","","3","","","","","","","","",""
"","","","","","single-stim-button","236","351125","0.0-2.0-53.0-1.0","63d4011ebee8a9cb17cfa313","C3","batch3","","800","tol_toboard","","","","tol_peg_2","800","800","0","[[1,0,0],[3,2],[0]]","1","[[2,0,0],[3,0],[1]]","14","0","","","","","","3","","","","","","","","",""
"","","","","","single-stim-button","237","351754","0.0-2.0-53.1-0.1","63d4011ebee8a9cb17cfa313","C3","batch3","","628","tol_tohand","","","","tol_peg_1","628","628","0","[[0,0,0],[3,2],[0]]","2","[[2,0,0],[3,0],[1]]","14","0","","","","","","3","","","","","","","","",""
"","","","","","single-stim-button","238","352290","0.0-2.0-53.1-1.1","63d4011ebee8a9cb17cfa313","C3","batch3","","536","tol_toboard","","","","tol_peg_3","536","536","0","[[0,0,0],[3,2],[1]]","2","[[2,0,0],[3,0],[1]]","14","0","","","","","","3","","","","","","","","",""
"","","","","","single-stim-button","239","352719","0.0-2.0-53.2-0.2","63d4011ebee8a9cb17cfa313","C3","batch3","","429","tol_tohand","","","","tol_peg_2","429","429","0","[[0,0,0],[3,0],[1]]","3","[[2,0,0],[3,0],[1]]","14","0","","","","","","3","","","","","","","","",""
"","","","","","single-stim-button","240","353149","0.0-2.0-53.2-1.2","63d4011ebee8a9cb17cfa313","C3","batch3","","429","tol_toboard","","","","tol_peg_1","429","429","0","[[2,0,0],[3,0],[1]]","3","[[2,0,0],[3,0],[1]]","14","0","","","","","","3","","","","","","","","",""
"","","","","","poldrack-single-stim","241","354155","0.0-2.0-54.0","63d4011ebee8a9cb17cfa313","C3","batch3","","-1","tol_feedback","","","true","","1000","1000","500","","","","","","-1","none","true","4996","6053","","","","","","","","","",""
"","","","","","html-button-response","242","355377","0.0-2.0-55.0","63d4011ebee8a9cb17cfa313","C3","batch3","","1221.2000000476837","tol_trial_num","<div class = centerbox><p class = center-block-text>problem <strong>16</strong> out of 25 problems</p></div>","0","","","","","","","","","","","","","","","","","","","","","","","","",""
"","","","","","single-stim-button","243","359025","0.0-2.0-56.0-0.0","63d4011ebee8a9cb17cfa313","C3","batch3","","3647","tol_tohand","","","","tol_peg_2","3647","3647","0","[[0,0,0],[2,0],[1]]","1","[[2,3,0],[1,0],[0]]","15","0","","","","","","7","","","","","","","","",""
"","","","","","single-stim-button","244","359668","0.0-2.0-56.0-1.0","63d4011ebee8a9cb17cfa313","C3","batch3","","643","tol_toboard","","","","tol_peg_1","643","643","0","[[3,0,0],[2,0],[1]]","1","[[2,3,0],[1,0],[0]]","15","0","","","","","","7","","","","","","","","",""
"","","","","","single-stim-button","245","360183","0.0-2.0-56.1-0.1","63d4011ebee8a9cb17cfa313","C3","batch3","","514","tol_tohand","","","","tol_peg_2","514","514","0","[[3,0,0],[0,0],[1]]","2","[[2,3,0],[1,0],[0]]","15","0","","","","","","7","","","","","","","","",""
"","","","","","single-stim-button","246","360614","0.0-2.0-56.1-1.1","63d4011ebee8a9cb17cfa313","C3","batch3","","430","tol_toboard","","","","tol_peg_1","430","430","0","[[3,2,0],[0,0],[1]]","2","[[2,3,0],[1,0],[0]]","15","0","","","","","","7","","","","","","","","",""
"","","","","","single-stim-button","247","361106","0.0-2.0-56.2-0.2","63d4011ebee8a9cb17cfa313","C3","batch3","","492","tol_tohand","","","","tol_peg_3","492","492","0","[[3,2,0],[0,0],[0]]","3","[[2,3,0],[1,0],[0]]","15","0","","","","","","7","","","","","","","","",""
"","","","","","single-stim-button","248","361610","0.0-2.0-56.2-1.2","63d4011ebee8a9cb17cfa313","C3","batch3","","503","tol_toboard","","","","tol_peg_2","503","503","0","[[3,2,0],[1,0],[0]]","3","[[2,3,0],[1,0],[0]]","15","0","","","","","","7","","","","","","","","",""
"","","","","","single-stim-button","249","362109","0.0-2.0-56.3-0.3","63d4011ebee8a9cb17cfa313","C3","batch3","","497","tol_tohand","","","","tol_peg_1","497","497","0","[[3,0,0],[1,0],[0]]","4","[[2,3,0],[1,0],[0]]","15","0","","","","","","7","","","","","","","","",""
"","","","","","single-stim-button","250","362888","0.0-2.0-56.3-1.3","63d4011ebee8a9cb17cfa313","C3","batch3","","779","tol_toboard","","","","tol_peg_3","779","779","0","[[3,0,0],[1,0],[2]]","4","[[2,3,0],[1,0],[0]]","15","0","","","","","","7","","","","","","","","",""
"","","","","","single-stim-button","251","363298","0.0-2.0-56.4-0.4","63d4011ebee8a9cb17cfa313","C3","batch3","","410","tol_tohand","","","","tol_peg_1","410","410","0","[[0,0,0],[1,0],[2]]","5","[[2,3,0],[1,0],[0]]","15","0","","","","","","7","","","","","","","","",""
"","","","","","single-stim-button","252","364338","0.0-2.0-56.4-1.4","63d4011ebee8a9cb17cfa313","C3","batch3","","1040","tol_toboard","","","","tol_peg_2","1040","1040","0","[[0,0,0],[1,3],[2]]","5","[[2,3,0],[1,0],[0]]","15","0","","","","","","7","","","","","","","","",""
"","","","","","single-stim-button","253","364825","0.0-2.0-56.5-0.5","63d4011ebee8a9cb17cfa313","C3","batch3","","487","tol_tohand","","","","tol_peg_3","487","487","0","[[0,0,0],[1,3],[0]]","6","[[2,3,0],[1,0],[0]]","15","0","","","","","","7","","","","","","","","",""
"","","","","","single-stim-button","254","365268","0.0-2.0-56.5-1.5","63d4011ebee8a9cb17cfa313","C3","batch3","","442","tol_toboard","","","","tol_peg_1","442","442","0","[[2,0,0],[1,3],[0]]","6","[[2,3,0],[1,0],[0]]","15","0","","","","","","7","","","","","","","","",""
"","","","","","single-stim-button","255","365663","0.0-2.0-56.6-0.6","63d4011ebee8a9cb17cfa313","C3","batch3","","395","tol_tohand","","","","tol_peg_2","395","395","0","[[2,0,0],[1,0],[0]]","7","[[2,3,0],[1,0],[0]]","15","0","","","","","","7","","","","","","","","",""
"","","","","","single-stim-button","256","366031","0.0-2.0-56.6-1.6","63d4011ebee8a9cb17cfa313","C3","batch3","","367","tol_toboard","","","","tol_peg_1","367","367","0","[[2,3,0],[1,0],[0]]","7","[[2,3,0],[1,0],[0]]","15","0","","","","","","7","","","","","","","","",""
"","","","","","poldrack-single-stim","257","367032","0.0-2.0-57.0","63d4011ebee8a9cb17cfa313","C3","batch3","","-1","tol_feedback","","","true","","1000","1000","500","","","","","","-1","none","true","3647","6442","","","","","","","","","",""
"","","","","","html-button-response","258","367513","0.0-2.0-58.0","63d4011ebee8a9cb17cfa313","C3","batch3","","480.7000000476837","tol_trial_num","<div class = centerbox><p class = center-block-text>problem <strong>17</strong> out of 25 problems</p></div>","0","","","","","","","","","","","","","","","","","","","","","","","","",""
"","","","","","single-stim-button","259","370032","0.0-2.0-59.0-0.0","63d4011ebee8a9cb17cfa313","C3","batch3","","2518","tol_tohand","","","","tol_peg_1","2518","2518","0","[[1,0,0],[3,0],[0]]","1","[[3,1,0],[2,0],[0]]","16","0","","","","","","5","","","","","","","","",""
"","","","","","single-stim-button","260","370551","0.0-2.0-59.0-1.0","63d4011ebee8a9cb17cfa313","C3","batch3","","519","tol_toboard","","","","tol_peg_3","519","519","0","[[1,0,0],[3,0],[2]]","1","[[3,1,0],[2,0],[0]]","16","0","","","","","","5","","","","","","","","",""
"","","","","","single-stim-button","261","371906","0.0-2.0-59.1-0.1","63d4011ebee8a9cb17cfa313","C3","batch3","","1354","tol_tohand","","","","tol_peg_2","1354","1354","0","[[1,0,0],[0,0],[2]]","2","[[3,1,0],[2,0],[0]]","16","0","","","","","","5","","","","","","","","",""
"","","","","","single-stim-button","262","372380","0.0-2.0-59.1-1.1","63d4011ebee8a9cb17cfa313","C3","batch3","","474","tol_toboard","","","","tol_peg_1","474","474","0","[[1,3,0],[0,0],[2]]","2","[[3,1,0],[2,0],[0]]","16","0","","","","","","5","","","","","","","","",""
"","","","","","single-stim-button","263","372852","0.0-2.0-59.2-0.2","63d4011ebee8a9cb17cfa313","C3","batch3","","471","tol_tohand","","","","tol_peg_3","471","471","0","[[1,3,0],[0,0],[0]]","3","[[3,1,0],[2,0],[0]]","16","0","","","","","","5","","","","","","","","",""
"","","","","","single-stim-button","264","373296","0.0-2.0-59.2-1.2","63d4011ebee8a9cb17cfa313","C3","batch3","","444","tol_toboard","","","","tol_peg_2","444","444","0","[[1,3,0],[2,0],[0]]","3","[[3,1,0],[2,0],[0]]","16","0","","","","","","5","","","","","","","","",""
"","","","","","single-stim-button","265","373763","0.0-2.0-59.3-0.3","63d4011ebee8a9cb17cfa313","C3","batch3","","466","tol_tohand","","","","tol_peg_1","466","466","0","[[1,0,0],[2,0],[0]]","4","[[3,1,0],[2,0],[0]]","16","0","","","","","","5","","","","","","","","",""
"","","","","","single-stim-button","266","374742","0.0-2.0-59.3-1.3","63d4011ebee8a9cb17cfa313","C3","batch3","","979","tol_toboard","","","","tol_peg_3","979","979","0","[[1,0,0],[2,0],[3]]","4","[[3,1,0],[2,0],[0]]","16","0","","","","","","5","","","","","","","","",""
"","","","","","single-stim-button","267","375295","0.0-2.0-59.4-0.4","63d4011ebee8a9cb17cfa313","C3","batch3","","551","tol_tohand","","","","tol_peg_1","551","551","0","[[0,0,0],[2,0],[3]]","5","[[3,1,0],[2,0],[0]]","16","0","","","","","","5","","","","","","","","",""
"","","","","","single-stim-button","268","375592","0.0-2.0-59.4-1.4","63d4011ebee8a9cb17cfa313","C3","batch3","","297","tol_toboard","","","","tol_peg_2","297","297","0","[[0,0,0],[2,1],[3]]","5","[[3,1,0],[2,0],[0]]","16","0","","","","","","5","","","","","","","","",""
"","","","","","single-stim-button","269","376029","0.0-2.0-59.5-0.5","63d4011ebee8a9cb17cfa313","C3","batch3","","437","tol_tohand","","","","tol_peg_3","437","437","0","[[0,0,0],[2,1],[0]]","6","[[3,1,0],[2,0],[0]]","16","0","","","","","","5","","","","","","","","",""
"","","","","","single-stim-button","270","376692","0.0-2.0-59.5-1.5","63d4011ebee8a9cb17cfa313","C3","batch3","","663","tol_toboard","","","","tol_peg_1","663","663","0","[[3,0,0],[2,1],[0]]","6","[[3,1,0],[2,0],[0]]","16","0","","","","","","5","","","","","","","","",""
"","","","","","single-stim-button","271","377105","0.0-2.0-59.6-0.6","63d4011ebee8a9cb17cfa313","C3","batch3","","412","tol_tohand","","","","tol_peg_2","412","412","0","[[3,0,0],[2,0],[0]]","7","[[3,1,0],[2,0],[0]]","16","0","","","","","","5","","","","","","","","",""
"","","","","","single-stim-button","272","377508","0.0-2.0-59.6-1.6","63d4011ebee8a9cb17cfa313","C3","batch3","","403","tol_toboard","","","","tol_peg_1","403","403","0","[[3,1,0],[2,0],[0]]","7","[[3,1,0],[2,0],[0]]","16","0","","","","","","5","","","","","","","","",""
"","","","","","poldrack-single-stim","273","378509","0.0-2.0-60.0","63d4011ebee8a9cb17cfa313","C3","batch3","","-1","tol_feedback","","","true","","1000","1000","500","","","","","","-1","none","true","2518","6209","","","","","","","","","",""
"","","","","","html-button-response","274","378893","0.0-2.0-61.0","63d4011ebee8a9cb17cfa313","C3","batch3","","384","tol_trial_num","<div class = centerbox><p class = center-block-text>problem <strong>18</strong> out of 25 problems</p></div>","0","","","","","","","","","","","","","","","","","","","","","","","","",""
"","","","","","single-stim-button","275","381134","0.0-2.0-62.0-0.0","63d4011ebee8a9cb17cfa313","C3","batch3","","2240","tol_tohand","","","","tol_peg_1","2240","2240","0","[[1,0,0],[3,0],[0]]","1","[[3,0,0],[2,0],[1]]","17","0","","","","","","5","","","","","","","","",""
"","","","","","single-stim-button","276","381590","0.0-2.0-62.0-1.0","63d4011ebee8a9cb17cfa313","C3","batch3","","455","tol_toboard","","","","tol_peg_2","455","455","0","[[1,0,0],[3,2],[0]]","1","[[3,0,0],[2,0],[1]]","17","0","","","","","","5","","","","","","","","",""
"","","","","","single-stim-button","277","382005","0.0-2.0-62.1-0.1","63d4011ebee8a9cb17cfa313","C3","batch3","","415","tol_tohand","","","","tol_peg_1","415","415","0","[[0,0,0],[3,2],[0]]","2","[[3,0,0],[2,0],[1]]","17","0","","","","","","5","","","","","","","","",""
"","","","","","single-stim-button","278","382816","0.0-2.0-62.1-1.1","63d4011ebee8a9cb17cfa313","C3","batch3","","810","tol_toboard","","","","tol_peg_3","810","810","0","[[0,0,0],[3,2],[1]]","2","[[3,0,0],[2,0],[1]]","17","0","","","","","","5","","","","","","","","",""
"","","","","","single-stim-button","279","383451","0.0-2.0-62.2-0.2","63d4011ebee8a9cb17cfa313","C3","batch3","","634","tol_tohand","","","","tol_peg_2","634","634","0","[[0,0,0],[3,0],[1]]","3","[[3,0,0],[2,0],[1]]","17","0","","","","","","5","","","","","","","","",""
"","","","","","single-stim-button","280","383924","0.0-2.0-62.2-1.2","63d4011ebee8a9cb17cfa313","C3","batch3","","473","tol_toboard","","","","tol_peg_1","473","473","0","[[2,0,0],[3,0],[1]]","3","[[3,0,0],[2,0],[1]]","17","0","","","","","","5","","","","","","","","",""
"","","","","","single-stim-button","281","384380","0.0-2.0-62.3-0.3","63d4011ebee8a9cb17cfa313","C3","batch3","","455","tol_tohand","","","","tol_peg_2","455","455","0","[[2,0,0],[0,0],[1]]","4","[[3,0,0],[2,0],[1]]","17","0","","","","","","5","","","","","","","","",""
"","","","","","single-stim-button","282","387013","0.0-2.0-62.3-1.3","63d4011ebee8a9cb17cfa313","C3","batch3","","2631","tol_toboard","","","","tol_peg_2","2631","2631","0","[[2,0,0],[3,0],[1]]","4","[[3,0,0],[2,0],[1]]","17","0","","","","","","5","","","","","","","","",""
"","","","","","single-stim-button","283","387463","0.0-2.0-62.4-0.4","63d4011ebee8a9cb17cfa313","C3","batch3","","449","tol_tohand","","","","tol_peg_3","449","449","0","[[2,0,0],[3,0],[0]]","5","[[3,0,0],[2,0],[1]]","17","0","","","","","","5","","","","","","","","",""
"","","","","","single-stim-button","284","388007","0.0-2.0-62.4-1.4","63d4011ebee8a9cb17cfa313","C3","batch3","","543","tol_toboard","","","","tol_peg_1","543","543","0","[[2,1,0],[3,0],[0]]","5","[[3,0,0],[2,0],[1]]","17","0","","","","","","5","","","","","","","","",""
"","","","","","single-stim-button","285","391110","0.0-2.0-62.5-0.5","63d4011ebee8a9cb17cfa313","C3","batch3","","3102","tol_tohand","","","","tol_peg_1","3102","3102","0","[[2,0,0],[3,0],[0]]","6","[[3,0,0],[2,0],[1]]","17","0","","","","","","5","","","","","","","","",""
"","","","","","single-stim-button","286","391622","0.0-2.0-62.5-1.5","63d4011ebee8a9cb17cfa313","C3","batch3","","512","tol_toboard","","","","tol_peg_2","512","512","0","[[2,0,0],[3,1],[0]]","6","[[3,0,0],[2,0],[1]]","17","0","","","","","","5","","","","","","","","",""
"","","","","","single-stim-button","287","392143","0.0-2.0-62.6-0.6","63d4011ebee8a9cb17cfa313","C3","batch3","","519","tol_tohand","","","","tol_peg_1","519","519","0","[[0,0,0],[3,1],[0]]","7","[[3,0,0],[2,0],[1]]","17","0","","","","","","5","","","","","","","","",""
"","","","","","single-stim-button","288","393062","0.0-2.0-62.6-1.6","63d4011ebee8a9cb17cfa313","C3","batch3","","919","tol_toboard","","","","tol_peg_3","919","919","0","[[0,0,0],[3,1],[2]]","7","[[3,0,0],[2,0],[1]]","17","0","","","","","","5","","","","","","","","",""
"","","","","","single-stim-button","289","394031","0.0-2.0-62.7-0.7","63d4011ebee8a9cb17cfa313","C3","batch3","","968","tol_tohand","","","","tol_peg_3","968","968","0","[[0,0,0],[3,1],[0]]","8","[[3,0,0],[2,0],[1]]","17","0","","","","","","5","","","","","","","","",""
"","","","","","single-stim-button","290","398919","0.0-2.0-62.7-1.7","63d4011ebee8a9cb17cfa313","C3","batch3","","4888","tol_toboard","","","","tol_peg_1","4888","4888","0","[[2,0,0],[3,1],[0]]","8","[[3,0,0],[2,0],[1]]","17","0","","","","","","5","","","","","","","","",""
"","","","","","single-stim-button","291","399589","0.0-2.0-62.8-0.8","63d4011ebee8a9cb17cfa313","C3","batch3","","669","tol_tohand","","","","tol_peg_2","669","669","0","[[2,0,0],[3,0],[0]]","9","[[3,0,0],[2,0],[1]]","17","0","","","","","","5","","","","","","","","",""
"","","","","","single-stim-button","292","400024","0.0-2.0-62.8-1.8","63d4011ebee8a9cb17cfa313","C3","batch3","","435","tol_toboard","","","","tol_peg_1","435","435","0","[[2,1,0],[3,0],[0]]","9","[[3,0,0],[2,0],[1]]","17","0","","","","","","5","","","","","","","","",""
"","","","","","single-stim-button","293","400543","0.0-2.0-62.9-0.9","63d4011ebee8a9cb17cfa313","C3","batch3","","518","tol_tohand","","","","tol_peg_2","518","518","0","[[2,1,0],[0,0],[0]]","10","[[3,0,0],[2,0],[1]]","17","0","","","","","","5","","","","","","","","",""
"","","","","","single-stim-button","294","401226","0.0-2.0-62.9-1.9","63d4011ebee8a9cb17cfa313","C3","batch3","","682","tol_toboard","","","","tol_peg_3","682","682","0","[[2,1,0],[0,0],[3]]","10","[[3,0,0],[2,0],[1]]","17","0","","","","","","5","","","","","","","","",""
"","","","","","single-stim-button","295","403420","0.0-2.0-62.10-0.10","63d4011ebee8a9cb17cfa313","C3","batch3","","2193","tol_tohand","","","","tol_peg_1","2193","2193","0","[[2,0,0],[0,0],[3]]","11","[[3,0,0],[2,0],[1]]","17","0","","","","","","5","","","","","","","","",""
"","","","","","single-stim-button","296","403910","0.0-2.0-62.10-1.10","63d4011ebee8a9cb17cfa313","C3","batch3","","490","tol_toboard","","","","tol_peg_2","490","490","0","[[2,0,0],[1,0],[3]]","11","[[3,0,0],[2,0],[1]]","17","0","","","","","","5","","","","","","","","",""
"","","","","","single-stim-button","297","404546","0.0-2.0-62.11-0.11","63d4011ebee8a9cb17cfa313","C3","batch3","","636","tol_tohand","","","","tol_peg_1","636","636","0","[[0,0,0],[1,0],[3]]","12","[[3,0,0],[2,0],[1]]","17","0","","","","","","5","","","","","","","","",""
"","","","","","single-stim-button","298","404849","0.0-2.0-62.11-1.11","63d4011ebee8a9cb17cfa313","C3","batch3","","302","tol_toboard","","","","tol_peg_2","302","302","0","[[0,0,0],[1,2],[3]]","12","[[3,0,0],[2,0],[1]]","17","0","","","","","","5","","","","","","","","",""
"","","","","","single-stim-button","299","405529","0.0-2.0-62.12-0.12","63d4011ebee8a9cb17cfa313","C3","batch3","","680","tol_tohand","","","","tol_peg_3","680","680","0","[[0,0,0],[1,2],[0]]","13","[[3,0,0],[2,0],[1]]","17","0","","","","","","5","","","","","","","","",""
"","","","","","single-stim-button","300","406209","0.0-2.0-62.12-1.12","63d4011ebee8a9cb17cfa313","C3","batch3","","679","tol_toboard","","","","tol_peg_1","679","679","0","[[3,0,0],[1,2],[0]]","13","[[3,0,0],[2,0],[1]]","17","0","","","","","","5","","","","","","","","",""
"","","","","","single-stim-button","301","406840","0.0-2.0-62.13-0.13","63d4011ebee8a9cb17cfa313","C3","batch3","","630","tol_tohand","","","","tol_peg_2","630","630","0","[[3,0,0],[1,0],[0]]","14","[[3,0,0],[2,0],[1]]","17","0","","","","","","5","","","","","","","","",""
"","","","","","single-stim-button","302","407253","0.0-2.0-62.13-1.13","63d4011ebee8a9cb17cfa313","C3","batch3","","413","tol_toboard","","","","tol_peg_1","413","413","0","[[3,2,0],[1,0],[0]]","14","[[3,0,0],[2,0],[1]]","17","0","","","","","","5","","","","","","","","",""
"","","","","","single-stim-button","303","407689","0.0-2.0-62.14-0.14","63d4011ebee8a9cb17cfa313","C3","batch3","","436","tol_tohand","","","","tol_peg_2","436","436","0","[[3,2,0],[0,0],[0]]","15","[[3,0,0],[2,0],[1]]","17","0","","","","","","5","","","","","","","","",""
"","","","","","single-stim-button","304","408109","0.0-2.0-62.14-1.14","63d4011ebee8a9cb17cfa313","C3","batch3","","420","tol_toboard","","","","tol_peg_3","420","420","0","[[3,2,0],[0,0],[1]]","15","[[3,0,0],[2,0],[1]]","17","0","","","","","","5","","","","","","","","",""
"","","","","","single-stim-button","305","408755","0.0-2.0-62.15-0.15","63d4011ebee8a9cb17cfa313","C3","batch3","","644","tol_tohand","","","","tol_peg_1","644","644","0","[[3,0,0],[0,0],[1]]","16","[[3,0,0],[2,0],[1]]","17","0","","","","","","5","","","","","","","","",""
"","","","","","single-stim-button","306","409190","0.0-2.0-62.15-1.15","63d4011ebee8a9cb17cfa313","C3","batch3","","435","tol_toboard","","","","tol_peg_2","435","435","0","[[3,0,0],[2,0],[1]]","16","[[3,0,0],[2,0],[1]]","17","0","","","","","","5","","","","","","","","",""
"","","","","","poldrack-single-stim","307","410192","0.0-2.0-63.0","63d4011ebee8a9cb17cfa313","C3","batch3","","-1","tol_feedback","","","true","","1000","1000","500","","","","","","-1","none","true","2240","15188","","","","","","","","","",""
"","","","","","html-button-response","308","410715","0.0-2.0-64.0","63d4011ebee8a9cb17cfa313","C3","batch3","","522.5","tol_trial_num","<div class = centerbox><p class = center-block-text>problem <strong>19</strong> out of 25 problems</p></div>","0","","","","","","","","","","","","","","","","","","","","","","","","",""
"","","","","","single-stim-button","309","412647","0.0-2.0-65.0-0.0","63d4011ebee8a9cb17cfa313","C3","batch3","","1932","tol_tohand","","","","tol_peg_2","1932","1932","0","[[1,2,0],[0,0],[0]]","1","[[0,0,0],[1,2],[3]]","18","0","","","","","","7","","","","","","","","",""
"","","","","","single-stim-button","310","414179","0.0-2.0-65.0-1.0","63d4011ebee8a9cb17cfa313","C3","batch3","","1531","tol_toboard","","","","tol_peg_2","1531","1531","0","[[1,2,0],[3,0],[0]]","1","[[0,0,0],[1,2],[3]]","18","0","","","","","","7","","","","","","","","",""
"","","","","","single-stim-button","311","414592","0.0-2.0-65.1-0.1","63d4011ebee8a9cb17cfa313","C3","batch3","","412","tol_tohand","","","","tol_peg_1","412","412","0","[[1,0,0],[3,0],[0]]","2","[[0,0,0],[1,2],[3]]","18","0","","","","","","7","","","","","","","","",""
"","","","","","single-stim-button","312","415086","0.0-2.0-65.1-1.1","63d4011ebee8a9cb17cfa313","C3","batch3","","494","tol_toboard","","","","tol_peg_3","494","494","0","[[1,0,0],[3,0],[2]]","2","[[0,0,0],[1,2],[3]]","18","0","","","","","","7","","","","","","","","",""
"","","","","","single-stim-button","313","415659","0.0-2.0-65.2-0.2","63d4011ebee8a9cb17cfa313","C3","batch3","","572","tol_tohand","","","","tol_peg_1","572","572","0","[[0,0,0],[3,0],[2]]","3","[[0,0,0],[1,2],[3]]","18","0","","","","","","7","","","","","","","","",""
"","","","","","single-stim-button","314","417285","0.0-2.0-65.2-1.2","63d4011ebee8a9cb17cfa313","C3","batch3","","1626","tol_toboard","","","","tol_peg_2","1626","1626","0","[[0,0,0],[3,1],[2]]","3","[[0,0,0],[1,2],[3]]","18","0","","","","","","7","","","","","","","","",""
"","","","","","single-stim-button","315","417640","0.0-2.0-65.3-0.3","63d4011ebee8a9cb17cfa313","C3","batch3","","354","tol_tohand","","","","tol_peg_3","354","354","0","[[0,0,0],[3,1],[0]]","4","[[0,0,0],[1,2],[3]]","18","0","","","","","","7","","","","","","","","",""
"","","","","","single-stim-button","316","418226","0.0-2.0-65.3-1.3","63d4011ebee8a9cb17cfa313","C3","batch3","","585","tol_toboard","","","","tol_peg_1","585","585","0","[[2,0,0],[3,1],[0]]","4","[[0,0,0],[1,2],[3]]","18","0","","","","","","7","","","","","","","","",""
"","","","","","single-stim-button","317","420975","0.0-2.0-65.4-0.4","63d4011ebee8a9cb17cfa313","C3","batch3","","2747","tol_tohand","","","","tol_peg_2","2747","2747","0","[[2,0,0],[3,0],[0]]","5","[[0,0,0],[1,2],[3]]","18","0","","","","","","7","","","","","","","","",""
"","","","","","single-stim-button","318","421416","0.0-2.0-65.4-1.4","63d4011ebee8a9cb17cfa313","C3","batch3","","441","tol_toboard","","","","tol_peg_1","441","441","0","[[2,1,0],[3,0],[0]]","5","[[0,0,0],[1,2],[3]]","18","0","","","","","","7","","","","","","","","",""
"","","","","","single-stim-button","319","421888","0.0-2.0-65.5-0.5","63d4011ebee8a9cb17cfa313","C3","batch3","","471","tol_tohand","","","","tol_peg_2","471","471","0","[[2,1,0],[0,0],[0]]","6","[[0,0,0],[1,2],[3]]","18","0","","","","","","7","","","","","","","","",""
"","","","","","single-stim-button","320","422296","0.0-2.0-65.5-1.5","63d4011ebee8a9cb17cfa313","C3","batch3","","407","tol_toboard","","","","tol_peg_3","407","407","0","[[2,1,0],[0,0],[3]]","6","[[0,0,0],[1,2],[3]]","18","0","","","","","","7","","","","","","","","",""
"","","","","","single-stim-button","321","423122","0.0-2.0-65.6-0.6","63d4011ebee8a9cb17cfa313","C3","batch3","","826","tol_tohand","","","","tol_peg_1","826","826","0","[[2,0,0],[0,0],[3]]","7","[[0,0,0],[1,2],[3]]","18","0","","","","","","7","","","","","","","","",""
"","","","","","single-stim-button","322","423619","0.0-2.0-65.6-1.6","63d4011ebee8a9cb17cfa313","C3","batch3","","497","tol_toboard","","","","tol_peg_2","497","497","0","[[2,0,0],[1,0],[3]]","7","[[0,0,0],[1,2],[3]]","18","0","","","","","","7","","","","","","","","",""
"","","","","","single-stim-button","323","424134","0.0-2.0-65.7-0.7","63d4011ebee8a9cb17cfa313","C3","batch3","","514","tol_tohand","","","","tol_peg_1","514","514","0","[[0,0,0],[1,0],[3]]","8","[[0,0,0],[1,2],[3]]","18","0","","","","","","7","","","","","","","","",""
"","","","","","single-stim-button","324","424534","0.0-2.0-65.7-1.7","63d4011ebee8a9cb17cfa313","C3","batch3","","398","tol_toboard","","","","tol_peg_2","398","398","0","[[0,0,0],[1,2],[3]]","8","[[0,0,0],[1,2],[3]]","18","0","","","","","","7","","","","","","","","",""
"","","","","","poldrack-single-stim","325","425535","0.0-2.0-66.0","63d4011ebee8a9cb17cfa313","C3","batch3","","-1","tol_feedback","","","true","","1000","1000","500","","","","","","-1","none","true","1932","7828","","","","","","","","","",""
"","","","","","html-button-response","326","426020","0.0-2.0-67.0","63d4011ebee8a9cb17cfa313","C3","batch3","","484.10000002384186","tol_trial_num","<div class = centerbox><p class = center-block-text>problem <strong>20</strong> out of 25 problems</p></div>","0","","","","","","","","","","","","","","","","","","","","","","","","",""
"","","","","","single-stim-button","327","427821","0.0-2.0-68.0-0.0","63d4011ebee8a9cb17cfa313","C3","batch3","","1801","tol_tohand","","","","tol_peg_2","1801","1801","0","[[1,2,0],[0,0],[0]]","1","[[2,1,0],[0,0],[3]]","19","0","","","","","","5","","","","","","","","",""
"","","","","","single-stim-button","328","429400","0.0-2.0-68.0-1.0","63d4011ebee8a9cb17cfa313","C3","batch3","","1578","tol_toboard","","","","tol_peg_2","1578","1578","0","[[1,2,0],[3,0],[0]]","1","[[2,1,0],[0,0],[3]]","19","0","","","","","","5","","","","","","","","",""
"","","","","","single-stim-button","329","429841","0.0-2.0-68.1-0.1","63d4011ebee8a9cb17cfa313","C3","batch3","","439","tol_tohand","","","","tol_peg_1","439","439","0","[[1,0,0],[3,0],[0]]","2","[[2,1,0],[0,0],[3]]","19","0","","","","","","5","","","","","","","","",""
"","","","","","single-stim-button","330","430501","0.0-2.0-68.1-1.1","63d4011ebee8a9cb17cfa313","C3","batch3","","659","tol_toboard","","","","tol_peg_3","659","659","0","[[1,0,0],[3,0],[2]]","2","[[2,1,0],[0,0],[3]]","19","0","","","","","","5","","","","","","","","",""
"","","","","","single-stim-button","331","431255","0.0-2.0-68.2-0.2","63d4011ebee8a9cb17cfa313","C3","batch3","","754","tol_tohand","","","","tol_peg_1","754","754","0","[[0,0,0],[3,0],[2]]","3","[[2,1,0],[0,0],[3]]","19","0","","","","","","5","","","","","","","","",""
"","","","","","single-stim-button","332","431571","0.0-2.0-68.2-1.2","63d4011ebee8a9cb17cfa313","C3","batch3","","316","tol_toboard","","","","tol_peg_2","316","316","0","[[0,0,0],[3,1],[2]]","3","[[2,1,0],[0,0],[3]]","19","0","","","","","","5","","","","","","","","",""
"","","","","","single-stim-button","333","431849","0.0-2.0-68.3-0.3","63d4011ebee8a9cb17cfa313","C3","batch3","","278","tol_tohand","","","","tol_peg_3","278","278","0","[[0,0,0],[3,1],[0]]","4","[[2,1,0],[0,0],[3]]","19","0","","","","","","5","","","","","","","","",""
"","","","","","single-stim-button","334","432402","0.0-2.0-68.3-1.3","63d4011ebee8a9cb17cfa313","C3","batch3","","552","tol_toboard","","","","tol_peg_1","552","552","0","[[2,0,0],[3,1],[0]]","4","[[2,1,0],[0,0],[3]]","19","0","","","","","","5","","","","","","","","",""
"","","","","","single-stim-button","335","433152","0.0-2.0-68.4-0.4","63d4011ebee8a9cb17cfa313","C3","batch3","","750","tol_tohand","","","","tol_peg_2","750","750","0","[[2,0,0],[3,0],[0]]","5","[[2,1,0],[0,0],[3]]","19","0","","","","","","5","","","","","","","","",""
"","","","","","single-stim-button","336","433604","0.0-2.0-68.4-1.4","63d4011ebee8a9cb17cfa313","C3","batch3","","451","tol_toboard","","","","tol_peg_1","451","451","0","[[2,1,0],[3,0],[0]]","5","[[2,1,0],[0,0],[3]]","19","0","","","","","","5","","","","","","","","",""
"","","","","","single-stim-button","337","433944","0.0-2.0-68.5-0.5","63d4011ebee8a9cb17cfa313","C3","batch3","","339","tol_tohand","","","","tol_peg_2","339","339","0","[[2,1,0],[0,0],[0]]","6","[[2,1,0],[0,0],[3]]","19","0","","","","","","5","","","","","","","","",""
"","","","","","single-stim-button","338","434265","0.0-2.0-68.5-1.5","63d4011ebee8a9cb17cfa313","C3","batch3","","321","tol_toboard","","","","tol_peg_3","321","321","0","[[2,1,0],[0,0],[3]]","6","[[2,1,0],[0,0],[3]]","19","0","","","","","","5","","","","","","","","",""
"","","","","","poldrack-single-stim","339","435267","0.0-2.0-69.0","63d4011ebee8a9cb17cfa313","C3","batch3","","-1","tol_feedback","","","true","","1000","1000","500","","","","","","-1","none","true","1801","4361","","","","","","","","","",""
"","","","","","html-button-response","340","435661","0.0-2.0-70.0","63d4011ebee8a9cb17cfa313","C3","batch3","","393.5","tol_trial_num","<div class = centerbox><p class = center-block-text>problem <strong>21</strong> out of 25 problems</p></div>","0","","","","","","","","","","","","","","","","","","","","","","","","",""
"","","","","","single-stim-button","341","440966","0.0-2.0-71.0-0.0","63d4011ebee8a9cb17cfa313","C3","batch3","","5305","tol_tohand","","","","tol_peg_1","5305","5305","0","[[1,0,0],[3,0],[0]]","1","[[3,2,0],[0,0],[1]]","20","0","","","","","","6","","","","","","","","",""
"","","","","","single-stim-button","342","441410","0.0-2.0-71.0-1.0","63d4011ebee8a9cb17cfa313","C3","batch3","","444","tol_toboard","","","","tol_peg_2","444","444","0","[[1,0,0],[3,2],[0]]","1","[[3,2,0],[0,0],[1]]","20","0","","","","","","6","","","","","","","","",""
"","","","","","single-stim-button","343","444168","0.0-2.0-71.1-0.1","63d4011ebee8a9cb17cfa313","C3","batch3","","2758","tol_tohand","","","","tol_peg_1","2758","2758","0","[[0,0,0],[3,2],[0]]","2","[[3,2,0],[0,0],[1]]","20","0","","","","","","6","","","","","","","","",""
"","","","","","single-stim-button","344","444635","0.0-2.0-71.1-1.1","63d4011ebee8a9cb17cfa313","C3","batch3","","465","tol_toboard","","","","tol_peg_3","465","465","0","[[0,0,0],[3,2],[1]]","2","[[3,2,0],[0,0],[1]]","20","0","","","","","","6","","","","","","","","",""
"","","","","","single-stim-button","345","445072","0.0-2.0-71.2-0.2","63d4011ebee8a9cb17cfa313","C3","batch3","","437","tol_tohand","","","","tol_peg_2","437","437","0","[[0,0,0],[3,0],[1]]","3","[[3,2,0],[0,0],[1]]","20","0","","","","","","6","","","","","","","","",""
"","","","","","single-stim-button","346","446463","0.0-2.0-71.2-1.2","63d4011ebee8a9cb17cfa313","C3","batch3","","1390","tol_toboard","","","","tol_peg_2","1390","1390","0","[[0,0,0],[3,2],[1]]","3","[[3,2,0],[0,0],[1]]","20","0","","","","","","6","","","","","","","","",""
"","","","","","single-stim-button","347","447231","0.0-2.0-71.3-0.3","63d4011ebee8a9cb17cfa313","C3","batch3","","767","tol_tohand","","","","tol_peg_2","767","767","0","[[0,0,0],[3,0],[1]]","4","[[3,2,0],[0,0],[1]]","20","0","","","","","","6","","","","","","","","",""
"","","","","","single-stim-button","348","447605","0.0-2.0-71.3-1.3","63d4011ebee8a9cb17cfa313","C3","batch3","","374","tol_toboard","","","","tol_peg_1","374","374","0","[[2,0,0],[3,0],[1]]","4","[[3,2,0],[0,0],[1]]","20","0","","","","","","6","","","","","","","","",""
"","","","","","single-stim-button","349","448121","0.0-2.0-71.4-0.4","63d4011ebee8a9cb17cfa313","C3","batch3","","516","tol_tohand","","","","tol_peg_3","516","516","0","[[2,0,0],[3,0],[0]]","5","[[3,2,0],[0,0],[1]]","20","0","","","","","","6","","","","","","","","",""
"","","","","","single-stim-button","350","448524","0.0-2.0-71.4-1.4","63d4011ebee8a9cb17cfa313","C3","batch3","","401","tol_toboard","","","","tol_peg_1","401","401","0","[[2,1,0],[3,0],[0]]","5","[[3,2,0],[0,0],[1]]","20","0","","","","","","6","","","","","","","","",""
"","","","","","single-stim-button","351","448988","0.0-2.0-71.5-0.5","63d4011ebee8a9cb17cfa313","C3","batch3","","463","tol_tohand","","","","tol_peg_2","463","463","0","[[2,1,0],[0,0],[0]]","6","[[3,2,0],[0,0],[1]]","20","0","","","","","","6","","","","","","","","",""
"","","","","","single-stim-button","352","449393","0.0-2.0-71.5-1.5","63d4011ebee8a9cb17cfa313","C3","batch3","","405","tol_toboard","","","","tol_peg_3","405","405","0","[[2,1,0],[0,0],[3]]","6","[[3,2,0],[0,0],[1]]","20","0","","","","","","6","","","","","","","","",""
"","","","","","single-stim-button","353","449808","0.0-2.0-71.6-0.6","63d4011ebee8a9cb17cfa313","C3","batch3","","414","tol_tohand","","","","tol_peg_1","414","414","0","[[2,0,0],[0,0],[3]]","7","[[3,2,0],[0,0],[1]]","20","0","","","","","","6","","","","","","","","",""
"","","","","","single-stim-button","354","450137","0.0-2.0-71.6-1.6","63d4011ebee8a9cb17cfa313","C3","batch3","","329","tol_toboard","","","","tol_peg_2","329","329","0","[[2,0,0],[1,0],[3]]","7","[[3,2,0],[0,0],[1]]","20","0","","","","","","6","","","","","","","","",""
"","","","","","single-stim-button","355","450538","0.0-2.0-71.7-0.7","63d4011ebee8a9cb17cfa313","C3","batch3","","400","tol_tohand","","","","tol_peg_1","400","400","0","[[0,0,0],[1,0],[3]]","8","[[3,2,0],[0,0],[1]]","20","0","","","","","","6","","","","","","","","",""
"","","","","","single-stim-button","356","450848","0.0-2.0-71.7-1.7","63d4011ebee8a9cb17cfa313","C3","batch3","","310","tol_toboard","","","","tol_peg_2","310","310","0","[[0,0,0],[1,2],[3]]","8","[[3,2,0],[0,0],[1]]","20","0","","","","","","6","","","","","","","","",""
