"success","timeout","failed_images","failed_audio","failed_video","trial_type","trial_index","time_elapsed","internal_node_id","subject_id","study_id","session_id","view_history","rt","task","stimulus","response","correct","mouse_click","stim_duration","block_duration","timing_post_trial","current_position","tol_num_moves_made","tol_target","tol_problem_id","tol_rt","key_press","possible_responses","tol_correct","preplanning","tol_rt_per_trial","tol_min_moves","answer","item","fiar_detect_rt","fiar_detect_correct","total_correct_fiar_detect","post_trial_gap","choices","spm_correct","spm_rt"
"true","false","[]","[]","[]","preload","0","6381","0.0-0.0","63d461ae668907ea6006f43f","D2","batch4","","","","","","","","","","","","","","","","","","","","","","","","","","","","","",""
"true","","","","","fullscreen","1","11815","0.0-1.0-0.0","63d461ae668907ea6006f43f","D2","batch4","","","","","","","","","","","","","","","","","","","","","","","","","","","","","",""
"true","","","","","fullscreen","2","14567","0.0-2.0-0.0","63d461ae668907ea6006f43f","D2","batch4","","","","","","","","","","","","","","","","","","","","","","","","","","","","","",""
"","","","","","instructions","3","38767","0.0-2.0-1.0-0.0-0.0","63d461ae668907ea6006f43f","D2","batch4","[{""page_index"":0,""viewing_time"":13294.800000071526},{""page_index"":1,""viewing_time"":4104.199999928474},{""page_index"":2,""viewing_time"":1456.1000000238419},{""page_index"":3,""viewing_time"":952.1000000238419},{""page_index"":4,""viewing_time"":1695.8999999761581},{""page_index"":5,""viewing_time"":816.2999999523163},{""page_index"":6,""viewing_time"":1879.6000000238419}]","24199.200000047684","tol-instructions","","","","","","","","","","","","","","","","","","","","","","","","","","",""
"","","","","","html-button-response","4","39391","0.0-2.0-1.0-1.0-0.0","63d461ae668907ea6006f43f","D2","batch4","","623.8999999761581","tol_enter_quiz","<p class=block-text> Let's answer a few questions <br>","0","","","","","","","","","","","","","","","","","","","","","","","","",""
"","","","","","html-button-response","5","39703","0.0-2.0-1.0-1.0-1.0","63d461ae668907ea6006f43f","D2","batch4","","310.3000000715256","tol_quiz","<p class = block-text>True or False: You can only move the ball on top of a peg. <br></p>","1","false","","","","","","","","","","","","","","","","","","","","","","","",""
"","","","","","html-button-response","6","43831","0.0-2.0-1.0-1.0-2.0","63d461ae668907ea6006f43f","D2","batch4","","4128.299999952316","tol_quiz_feedback","<p class = block-text>Incorrect. Remember, you can only move the ball on top of a peg.</p>","0","","","","","","","","","","","","","","","","","","","","","","","","",""
"","","","","","html-button-response","7","46199","0.0-2.0-1.0-1.0-3.0","63d461ae668907ea6006f43f","D2","batch4","","2367.100000023842","tol_quiz","<p class = block-text>True or False: You should try to match your board with the target board with fewest moves possible. <br></p>","0","true","","","","","","","","","","","","","","","","","","","","","","","",""
"","","","","","html-button-response","8","46711","0.0-2.0-1.0-1.0-4.0","63d461ae668907ea6006f43f","D2","batch4","","511.59999990463257","tol_quiz_feedback","<p class = block-text>Correct! </p>","0","","","","","","","","","","","","","","","","","","","","","","","","",""
"","","","","","html-button-response","9","47495","0.0-2.0-1.0-2.0-0.0","63d461ae668907ea6006f43f","D2","batch4","","782.9000000953674","","<p class = block-text>You made too many incorrect choices.</p><p class = block-text>You will now repeat the instructions and quiz</p>","0","","","","","","","","","","","","","","","","","","","","","","","","",""
"","","","","","instructions","10","51287","0.0-2.0-1.1-0.1-0.1","63d461ae668907ea6006f43f","D2","batch4","[{""page_index"":0,""viewing_time"":735.5999999046326},{""page_index"":1,""viewing_time"":440},{""page_index"":2,""viewing_time"":280.3000000715256},{""page_index"":3,""viewing_time"":223.10000002384186},{""page_index"":4,""viewing_time"":448.7999999523163},{""page_index"":5,""viewing_time"":408.10000002384186},{""page_index"":6,""viewing_time"":1255.7999999523163}]","3791.7999999523163","tol-instructions","","","","","","","","","","","","","","","","","","","","","","","","","","",""
"","","","","","html-button-response","11","51959","0.0-2.0-1.1-1.1-0.1","63d461ae668907ea6006f43f","D2","batch4","","671.6000000238419","tol_enter_quiz","<p class=block-text> Let's answer a few questions <br>","0","","","","","","","","","","","","","","","","","","","","","","","","",""
"","","","","","html-button-response","12","53503","0.0-2.0-1.1-1.1-1.1","63d461ae668907ea6006f43f","D2","batch4","","1543.3999999761581","tol_quiz","<p class = block-text>True or False: You can only move the ball on top of a peg. <br></p>","0","true","","","","","","","","","","","","","","","","","","","","","","","",""
"","","","","","html-button-response","13","53983","0.0-2.0-1.1-1.1-2.1","63d461ae668907ea6006f43f","D2","batch4","","479.39999997615814","tol_quiz_feedback","<p class = block-text>Correct! You can only move the ball on top of a peg.</p>","0","","","","","","","","","","","","","","","","","","","","","","","","",""
"","","","","","html-button-response","14","54751","0.0-2.0-1.1-1.1-3.1","63d461ae668907ea6006f43f","D2","batch4","","767.3999999761581","tol_quiz","<p class = block-text>True or False: You should try to match your board with the target board with fewest moves possible. <br></p>","0","true","","","","","","","","","","","","","","","","","","","","","","","",""
"","","","","","html-button-response","15","55175","0.0-2.0-1.1-1.1-4.1","63d461ae668907ea6006f43f","D2","batch4","","424","tol_quiz_feedback","<p class = block-text>Correct! </p>","0","","","","","","","","","","","","","","","","","","","","","","","","",""
"","","","","","html-button-response","16","55783","0.0-2.0-2.0","63d461ae668907ea6006f43f","D2","batch4","","607.3000000715256","","<p class=block-text> Now that you've understood the game, let's practice a few easier examples before we start!<br> <br>","0","","","","","","","","","","","","","","","","","","","","","","","","",""
"","","","","","single-stim-button","17","61337","0.0-2.0-3.0-0.0","63d461ae668907ea6006f43f","D2","batch4","","5552","tol_practice","","","","tol_peg_2","5552","5552","0","[[1,2,0],[0,0],[0]]","1","[[1,2,0],[0,0],[3]]","practice","5552","","","","","","","","","","","","","","",""
"","","","","","single-stim-button","18","63415","0.0-2.0-3.0-1.0","63d461ae668907ea6006f43f","D2","batch4","","2076","tol_practice","","","","tol_peg_3","2076","2076","0","[[1,2,0],[0,0],[3]]","1","[[1,2,0],[0,0],[3]]","practice","2076","","","","","","","","","","","","","","",""
"","","","","","poldrack-single-stim","19","64422","0.0-2.0-4.0","63d461ae668907ea6006f43f","D2","batch4","","-1","tol_feedback","","","true","","1000","1000","500","","","","","","-1","none","true","","0","","","","","","","","","",""
"","","","","","single-stim-button","20","66968","0.0-2.0-5.0-0.0","63d461ae668907ea6006f43f","D2","batch4","","2545","tol_practice","","","","tol_peg_1","2545","2545","0","[[1,0,0],[3,0],[0]]","2","[[0,0,0],[3,1],[2]]","practice","2545","","","","","","","","","","","","","","",""
"","","","","","single-stim-button","21","67623","0.0-2.0-5.0-1.0","63d461ae668907ea6006f43f","D2","batch4","","655","tol_practice","","","","tol_peg_3","655","655","0","[[1,0,0],[3,0],[2]]","2","[[0,0,0],[3,1],[2]]","practice","655","","","","","","","","","","","","","","",""
"","","","","","single-stim-button","22","68193","0.0-2.0-5.1-0.1","63d461ae668907ea6006f43f","D2","batch4","","569","tol_practice","","","","tol_peg_1","569","569","0","[[0,0,0],[3,0],[2]]","3","[[0,0,0],[3,1],[2]]","practice","569","","","","","","","","","","","","","","",""
"","","","","","single-stim-button","23","68687","0.0-2.0-5.1-1.1","63d461ae668907ea6006f43f","D2","batch4","","494","tol_practice","","","","tol_peg_2","494","494","0","[[0,0,0],[3,1],[2]]","3","[[0,0,0],[3,1],[2]]","practice","494","","","","","","","","","","","","","","",""
"","","","","","poldrack-single-stim","24","69688","0.0-2.0-6.0","63d461ae668907ea6006f43f","D2","batch4","","-1","tol_feedback","","","true","","1000","1000","500","","","","","","-1","none","true","","0","","","","","","","","","",""
"","","","","","single-stim-button","25","71631","0.0-2.0-7.0-0.0","63d461ae668907ea6006f43f","D2","batch4","","1943","tol_practice","","","","tol_peg_2","1943","1943","0","[[1,2,0],[0,0],[0]]","4","[[1,0,0],[2,0],[3]]","practice","1943","","","","","","","","","","","","","","",""
"","","","","","single-stim-button","26","72095","0.0-2.0-7.0-1.0","63d461ae668907ea6006f43f","D2","batch4","","463","tol_practice","","","","tol_peg_3","463","463","0","[[1,2,0],[0,0],[3]]","4","[[1,0,0],[2,0],[3]]","practice","463","","","","","","","","","","","","","","",""
"","","","","","single-stim-button","27","72887","0.0-2.0-7.1-0.1","63d461ae668907ea6006f43f","D2","batch4","","792","tol_practice","","","","tol_peg_1","792","792","0","[[1,0,0],[0,0],[3]]","5","[[1,0,0],[2,0],[3]]","practice","792","","","","","","","","","","","","","","",""
"","","","","","single-stim-button","28","73287","0.0-2.0-7.1-1.1","63d461ae668907ea6006f43f","D2","batch4","","399","tol_practice","","","","tol_peg_2","399","399","0","[[1,0,0],[2,0],[3]]","5","[[1,0,0],[2,0],[3]]","practice","399","","","","","","","","","","","","","","",""
"","","","","","poldrack-single-stim","29","74289","0.0-2.0-8.0","63d461ae668907ea6006f43f","D2","batch4","","-1","tol_feedback","","","true","","1000","1000","500","","","","","","-1","none","true","","0","","","","","","","","","",""
"","","","","","html-button-response","30","75815","0.0-2.0-9.0","63d461ae668907ea6006f43f","D2","batch4","","1526.1000000238419","tol_instruction","<div class = centerbox><p class = center-block-text>Great job! You are done with practice trials<br>You are about to start official trials.<br> <br> Problem <strong>1</strong> out of 25 problems</p></div>","0","","","","","","","","","","","","","","","","","","","","","","","","",""
"","","","","","single-stim-button","31","79728","0.0-2.0-10.0-0.0","63d461ae668907ea6006f43f","D2","batch4","","2902","tol_tohand","","","","tol_peg_1","2902","2902","0","[[1,0,0],[3,0],[0]]","1","[[1,3,0],[2,0],[0]]","0","0","","","","","","3","","","","","","","","",""
"","","","","","single-stim-button","32","80151","0.0-2.0-10.0-1.0","63d461ae668907ea6006f43f","D2","batch4","","423","tol_toboard","","","","tol_peg_3","423","423","0","[[1,0,0],[3,0],[2]]","1","[[1,3,0],[2,0],[0]]","0","0","","","","","","3","","","","","","","","",""
"","","","","","single-stim-button","33","80543","0.0-2.0-10.1-0.1","63d461ae668907ea6006f43f","D2","batch4","","392","tol_tohand","","","","tol_peg_2","392","392","0","[[1,0,0],[0,0],[2]]","2","[[1,3,0],[2,0],[0]]","0","0","","","","","","3","","","","","","","","",""
"","","","","","single-stim-button","34","80983","0.0-2.0-10.1-1.1","63d461ae668907ea6006f43f","D2","batch4","","440","tol_toboard","","","","tol_peg_1","440","440","0","[[1,3,0],[0,0],[2]]","2","[[1,3,0],[2,0],[0]]","0","0","","","","","","3","","","","","","","","",""
"","","","","","single-stim-button","35","81583","0.0-2.0-10.2-0.2","63d461ae668907ea6006f43f","D2","batch4","","600","tol_tohand","","","","tol_peg_3","600","600","0","[[1,3,0],[0,0],[0]]","3","[[1,3,0],[2,0],[0]]","0","0","","","","","","3","","","","","","","","",""
"","","","","","single-stim-button","36","82239","0.0-2.0-10.2-1.2","63d461ae668907ea6006f43f","D2","batch4","","656","tol_toboard","","","","tol_peg_2","656","656","0","[[1,3,0],[2,0],[0]]","3","[[1,3,0],[2,0],[0]]","0","0","","","","","","3","","","","","","","","",""
"","","","","","poldrack-single-stim","37","83250","0.0-2.0-11.0","63d461ae668907ea6006f43f","D2","batch4","","-1","tol_feedback","","","true","","1000","1000","500","","","","","","-1","none","true","2902","3894","","","","","","","","","",""
"","","","","","html-button-response","38","84063","0.0-2.0-12.0","63d461ae668907ea6006f43f","D2","batch4","","811.5","tol_trial_num","<div class = centerbox><p class = center-block-text>problem <strong>2</strong> out of 25 problems</p></div>","0","","","","","","","","","","","","","","","","","","","","","","","","",""
"","","","","","single-stim-button","39","87255","0.0-2.0-13.0-0.0","63d461ae668907ea6006f43f","D2","batch4","","3192","tol_tohand","","","","tol_peg_1","3192","3192","0","[[1,0,0],[3,0],[0]]","1","[[2,1,3],[0,0],[0]]","1","0","","","","","","5","","","","","","","","",""
"","","","","","single-stim-button","40","87719","0.0-2.0-13.0-1.0","63d461ae668907ea6006f43f","D2","batch4","","464","tol_toboard","","","","tol_peg_3","464","464","0","[[1,0,0],[3,0],[2]]","1","[[2,1,3],[0,0],[0]]","1","0","","","","","","5","","","","","","","","",""
"","","","","","single-stim-button","41","88231","0.0-2.0-13.1-0.1","63d461ae668907ea6006f43f","D2","batch4","","512","tol_tohand","","","","tol_peg_1","512","512","0","[[0,0,0],[3,0],[2]]","2","[[2,1,3],[0,0],[0]]","1","0","","","","","","5","","","","","","","","",""
"","","","","","single-stim-button","42","90111","0.0-2.0-13.1-1.1","63d461ae668907ea6006f43f","D2","batch4","","1879","tol_toboard","","","","tol_peg_2","1879","1879","0","[[0,0,0],[3,1],[2]]","2","[[2,1,3],[0,0],[0]]","1","0","","","","","","5","","","","","","","","",""
"","","","","","single-stim-button","43","90911","0.0-2.0-13.2-0.2","63d461ae668907ea6006f43f","D2","batch4","","800","tol_tohand","","","","tol_peg_3","800","800","0","[[0,0,0],[3,1],[0]]","3","[[2,1,3],[0,0],[0]]","1","0","","","","","","5","","","","","","","","",""
"","","","","","single-stim-button","44","91591","0.0-2.0-13.2-1.2","63d461ae668907ea6006f43f","D2","batch4","","680","tol_toboard","","","","tol_peg_1","680","680","0","[[2,0,0],[3,1],[0]]","3","[[2,1,3],[0,0],[0]]","1","0","","","","","","5","","","","","","","","",""
"","","","","","single-stim-button","45","91984","0.0-2.0-13.3-0.3","63d461ae668907ea6006f43f","D2","batch4","","393","tol_tohand","","","","tol_peg_2","393","393","0","[[2,0,0],[3,0],[0]]","4","[[2,1,3],[0,0],[0]]","1","0","","","","","","5","","","","","","","","",""
"","","","","","single-stim-button","46","92463","0.0-2.0-13.3-1.3","63d461ae668907ea6006f43f","D2","batch4","","479","tol_toboard","","","","tol_peg_1","479","479","0","[[2,1,0],[3,0],[0]]","4","[[2,1,3],[0,0],[0]]","1","0","","","","","","5","","","","","","","","",""
"","","","","","single-stim-button","47","92918","0.0-2.0-13.4-0.4","63d461ae668907ea6006f43f","D2","batch4","","455","tol_tohand","","","","tol_peg_2","455","455","0","[[2,1,0],[0,0],[0]]","5","[[2,1,3],[0,0],[0]]","1","0","","","","","","5","","","","","","","","",""
"","","","","","single-stim-button","48","93359","0.0-2.0-13.4-1.4","63d461ae668907ea6006f43f","D2","batch4","","440","tol_toboard","","","","tol_peg_1","440","440","0","[[2,1,3],[0,0],[0]]","5","[[2,1,3],[0,0],[0]]","1","0","","","","","","5","","","","","","","","",""
"","","","","","poldrack-single-stim","49","94361","0.0-2.0-14.0","63d461ae668907ea6006f43f","D2","batch4","","-1","tol_feedback","","","true","","1000","1000","500","","","","","","-1","none","true","3192","5352","","","","","","","","","",""
"","","","","","html-button-response","50","95071","0.0-2.0-15.0","63d461ae668907ea6006f43f","D2","batch4","","709.3000000715256","tol_trial_num","<div class = centerbox><p class = center-block-text>problem <strong>3</strong> out of 25 problems</p></div>","0","","","","","","","","","","","","","","","","","","","","","","","","",""
"","","","","","single-stim-button","51","96961","0.0-2.0-16.0-0.0","63d461ae668907ea6006f43f","D2","batch4","","1890","tol_tohand","","","","tol_peg_1","1890","1890","0","[[2,0,0],[0,0],[1]]","1","[[1,2,0],[3,0],[0]]","2","0","","","","","","4","","","","","","","","",""
"","","","","","single-stim-button","52","97864","0.0-2.0-16.0-1.0","63d461ae668907ea6006f43f","D2","batch4","","902","tol_toboard","","","","tol_peg_2","902","902","0","[[2,0,0],[3,0],[1]]","1","[[1,2,0],[3,0],[0]]","2","0","","","","","","4","","","","","","","","",""
"","","","","","single-stim-button","53","99304","0.0-2.0-16.1-0.1","63d461ae668907ea6006f43f","D2","batch4","","1440","tol_tohand","","","","tol_peg_3","1440","1440","0","[[2,0,0],[3,0],[0]]","2","[[1,2,0],[3,0],[0]]","2","0","","","","","","4","","","","","","","","",""
"","","","","","single-stim-button","54","99703","0.0-2.0-16.1-1.1","63d461ae668907ea6006f43f","D2","batch4","","398","tol_toboard","","","","tol_peg_2","398","398","0","[[2,0,0],[3,1],[0]]","2","[[1,2,0],[3,0],[0]]","2","0","","","","","","4","","","","","","","","",""
"","","","","","single-stim-button","55","100167","0.0-2.0-16.2-0.2","63d461ae668907ea6006f43f","D2","batch4","","464","tol_tohand","","","","tol_peg_1","464","464","0","[[0,0,0],[3,1],[0]]","3","[[1,2,0],[3,0],[0]]","2","0","","","","","","4","","","","","","","","",""
"","","","","","single-stim-button","56","100999","0.0-2.0-16.2-1.2","63d461ae668907ea6006f43f","D2","batch4","","832","tol_toboard","","","","tol_peg_3","832","832","0","[[0,0,0],[3,1],[2]]","3","[[1,2,0],[3,0],[0]]","2","0","","","","","","4","","","","","","","","",""
"","","","","","single-stim-button","57","101392","0.0-2.0-16.3-0.3","63d461ae668907ea6006f43f","D2","batch4","","393","tol_tohand","","","","tol_peg_2","393","393","0","[[0,0,0],[3,0],[2]]","4","[[1,2,0],[3,0],[0]]","2","0","","","","","","4","","","","","","","","",""
"","","","","","single-stim-button","58","101751","0.0-2.0-16.3-1.3","63d461ae668907ea6006f43f","D2","batch4","","358","tol_toboard","","","","tol_peg_1","358","358","0","[[1,0,0],[3,0],[2]]","4","[[1,2,0],[3,0],[0]]","2","0","","","","","","4","","","","","","","","",""
"","","","","","single-stim-button","59","102271","0.0-2.0-16.4-0.4","63d461ae668907ea6006f43f","D2","batch4","","519","tol_tohand","","","","tol_peg_3","519","519","0","[[1,0,0],[3,0],[0]]","5","[[1,2,0],[3,0],[0]]","2","0","","","","","","4","","","","","","","","",""
"","","","","","single-stim-button","60","102863","0.0-2.0-16.4-1.4","63d461ae668907ea6006f43f","D2","batch4","","591","tol_toboard","","","","tol_peg_1","591","591","0","[[1,2,0],[3,0],[0]]","5","[[1,2,0],[3,0],[0]]","2","0","","","","","","4","","","","","","","","",""
"","","","","","poldrack-single-stim","61","103864","0.0-2.0-17.0","63d461ae668907ea6006f43f","D2","batch4","","-1","tol_feedback","","","true","","1000","1000","500","","","","","","-1","none","true","1890","4706","","","","","","","","","",""
"","","","","","html-button-response","62","104447","0.0-2.0-18.0","63d461ae668907ea6006f43f","D2","batch4","","582.8000000715256","tol_trial_num","<div class = centerbox><p class = center-block-text>problem <strong>4</strong> out of 25 problems</p></div>","0","","","","","","","","","","","","","","","","","","","","","","","","",""
"","","","","","single-stim-button","63","106007","0.0-2.0-19.0-0.0","63d461ae668907ea6006f43f","D2","batch4","","1560","tol_tohand","","","","tol_peg_2","1560","1560","0","[[3,0,0],[2,0],[0]]","1","[[3,0,0],[1,0],[2]]","3","0","","","","","","3","","","","","","","","",""
"","","","","","single-stim-button","64","107895","0.0-2.0-19.0-1.0","63d461ae668907ea6006f43f","D2","batch4","","1888","tol_toboard","","","","tol_peg_1","1888","1888","0","[[3,1,0],[2,0],[0]]","1","[[3,0,0],[1,0],[2]]","3","0","","","","","","3","","","","","","","","",""
"","","","","","single-stim-button","65","108567","0.0-2.0-19.1-0.1","63d461ae668907ea6006f43f","D2","batch4","","672","tol_tohand","","","","tol_peg_2","672","672","0","[[3,1,0],[0,0],[0]]","2","[[3,0,0],[1,0],[2]]","3","0","","","","","","3","","","","","","","","",""
"","","","","","single-stim-button","66","109087","0.0-2.0-19.1-1.1","63d461ae668907ea6006f43f","D2","batch4","","520","tol_toboard","","","","tol_peg_3","520","520","0","[[3,1,0],[0,0],[2]]","2","[[3,0,0],[1,0],[2]]","3","0","","","","","","3","","","","","","","","",""
"","","","","","single-stim-button","67","109520","0.0-2.0-19.2-0.2","63d461ae668907ea6006f43f","D2","batch4","","432","tol_tohand","","","","tol_peg_1","432","432","0","[[3,0,0],[0,0],[2]]","3","[[3,0,0],[1,0],[2]]","3","0","","","","","","3","","","","","","","","",""
"","","","","","single-stim-button","68","110095","0.0-2.0-19.2-1.2","63d461ae668907ea6006f43f","D2","batch4","","574","tol_toboard","","","","tol_peg_2","574","574","0","[[3,0,0],[1,0],[2]]","3","[[3,0,0],[1,0],[2]]","3","0","","","","","","3","","","","","","","","",""
"","","","","","poldrack-single-stim","69","111096","0.0-2.0-20.0","63d461ae668907ea6006f43f","D2","batch4","","-1","tol_feedback","","","true","","1000","1000","500","","","","","","-1","none","true","1560","2664","","","","","","","","","",""
"","","","","","html-button-response","70","112943","0.0-2.0-21.0","63d461ae668907ea6006f43f","D2","batch4","","1846.6000000238419","tol_trial_num","<div class = centerbox><p class = center-block-text>problem <strong>5</strong> out of 25 problems</p></div>","0","","","","","","","","","","","","","","","","","","","","","","","","",""
"","","","","","single-stim-button","71","117063","0.0-2.0-22.0-0.0","63d461ae668907ea6006f43f","D2","batch4","","4120","tol_tohand","","","","tol_peg_2","4120","4120","0","[[1,0,0],[0,0],[3]]","1","[[0,0,0],[1,2],[3]]","4","0","","","","","","7","","","","","","","","",""
"","","","","","single-stim-button","72","118015","0.0-2.0-22.0-1.0","63d461ae668907ea6006f43f","D2","batch4","","952","tol_toboard","","","","tol_peg_2","952","952","0","[[1,0,0],[2,0],[3]]","1","[[0,0,0],[1,2],[3]]","4","0","","","","","","7","","","","","","","","",""
"","","","","","single-stim-button","73","118536","0.0-2.0-22.1-0.1","63d461ae668907ea6006f43f","D2","batch4","","521","tol_tohand","","","","tol_peg_1","521","521","0","[[0,0,0],[2,0],[3]]","2","[[0,0,0],[1,2],[3]]","4","0","","","","","","7","","","","","","","","",""
"","","","","","single-stim-button","74","118903","0.0-2.0-22.1-1.1","63d461ae668907ea6006f43f","D2","batch4","","367","tol_toboard","","","","tol_peg_2","367","367","0","[[0,0,0],[2,1],[3]]","2","[[0,0,0],[1,2],[3]]","4","0","","","","","","7","","","","","","","","",""
"","","","","","single-stim-button","75","119624","0.0-2.0-22.2-0.2","63d461ae668907ea6006f43f","D2","batch4","","720","tol_tohand","","","","tol_peg_2","720","720","0","[[0,0,0],[2,0],[3]]","3","[[0,0,0],[1,2],[3]]","4","0","","","","","","7","","","","","","","","",""
"","","","","","single-stim-button","76","120063","0.0-2.0-22.2-1.2","63d461ae668907ea6006f43f","D2","batch4","","439","tol_toboard","","","","tol_peg_1","439","439","0","[[1,0,0],[2,0],[3]]","3","[[0,0,0],[1,2],[3]]","4","0","","","","","","7","","","","","","","","",""
"","","","","","single-stim-button","77","120774","0.0-2.0-22.3-0.3","63d461ae668907ea6006f43f","D2","batch4","","711","tol_tohand","","","","tol_peg_3","711","711","0","[[1,0,0],[2,0],[0]]","4","[[0,0,0],[1,2],[3]]","4","0","","","","","","7","","","","","","","","",""
"","","","","","single-stim-button","78","121310","0.0-2.0-22.3-1.3","63d461ae668907ea6006f43f","D2","batch4","","535","tol_toboard","","","","tol_peg_1","535","535","0","[[1,3,0],[2,0],[0]]","4","[[0,0,0],[1,2],[3]]","4","0","","","","","","7","","","","","","","","",""
"","","","","","single-stim-button","79","121831","0.0-2.0-22.4-0.4","63d461ae668907ea6006f43f","D2","batch4","","519","tol_tohand","","","","tol_peg_2","519","519","0","[[1,3,0],[0,0],[0]]","5","[[0,0,0],[1,2],[3]]","4","0","","","","","","7","","","","","","","","",""
"","","","","","single-stim-button","80","122279","0.0-2.0-22.4-1.4","63d461ae668907ea6006f43f","D2","batch4","","448","tol_toboard","","","","tol_peg_3","448","448","0","[[1,3,0],[0,0],[2]]","5","[[0,0,0],[1,2],[3]]","4","0","","","","","","7","","","","","","","","",""
"","","","","","single-stim-button","81","122775","0.0-2.0-22.5-0.5","63d461ae668907ea6006f43f","D2","batch4","","496","tol_tohand","","","","tol_peg_1","496","496","0","[[1,0,0],[0,0],[2]]","6","[[0,0,0],[1,2],[3]]","4","0","","","","","","7","","","","","","","","",""
"","","","","","single-stim-button","82","123071","0.0-2.0-22.5-1.5","63d461ae668907ea6006f43f","D2","batch4","","296","tol_toboard","","","","tol_peg_2","296","296","0","[[1,0,0],[3,0],[2]]","6","[[0,0,0],[1,2],[3]]","4","0","","","","","","7","","","","","","","","",""
"","","","","","single-stim-button","83","124590","0.0-2.0-22.6-0.6","63d461ae668907ea6006f43f","D2","batch4","","1519","tol_tohand","","","","tol_peg_1","1519","1519","0","[[0,0,0],[3,0],[2]]","7","[[0,0,0],[1,2],[3]]","4","0","","","","","","7","","","","","","","","",""
"","","","","","single-stim-button","84","126031","0.0-2.0-22.6-1.6","63d461ae668907ea6006f43f","D2","batch4","","1439","tol_toboard","","","","tol_peg_2","1439","1439","0","[[0,0,0],[3,1],[2]]","7","[[0,0,0],[1,2],[3]]","4","0","","","","","","7","","","","","","","","",""
"","","","","","single-stim-button","85","126415","0.0-2.0-22.7-0.7","63d461ae668907ea6006f43f","D2","batch4","","384","tol_tohand","","","","tol_peg_3","384","384","0","[[0,0,0],[3,1],[0]]","8","[[0,0,0],[1,2],[3]]","4","0","","","","","","7","","","","","","","","",""
"","","","","","single-stim-button","86","126936","0.0-2.0-22.7-1.7","63d461ae668907ea6006f43f","D2","batch4","","520","tol_toboard","","","","tol_peg_1","520","520","0","[[2,0,0],[3,1],[0]]","8","[[0,0,0],[1,2],[3]]","4","0","","","","","","7","","","","","","","","",""
"","","","","","single-stim-button","87","127503","0.0-2.0-22.8-0.8","63d461ae668907ea6006f43f","D2","batch4","","567","tol_tohand","","","","tol_peg_2","567","567","0","[[2,0,0],[3,0],[0]]","9","[[0,0,0],[1,2],[3]]","4","0","","","","","","7","","","","","","","","",""
"","","","","","single-stim-button","88","127983","0.0-2.0-22.8-1.8","63d461ae668907ea6006f43f","D2","batch4","","480","tol_toboard","","","","tol_peg_1","480","480","0","[[2,1,0],[3,0],[0]]","9","[[0,0,0],[1,2],[3]]","4","0","","","","","","7","","","","","","","","",""
"","","","","","single-stim-button","89","128424","0.0-2.0-22.9-0.9","63d461ae668907ea6006f43f","D2","batch4","","440","tol_tohand","","","","tol_peg_2","440","440","0","[[2,1,0],[0,0],[0]]","10","[[0,0,0],[1,2],[3]]","4","0","","","","","","7","","","","","","","","",""
"","","","","","single-stim-button","90","128935","0.0-2.0-22.9-1.9","63d461ae668907ea6006f43f","D2","batch4","","510","tol_toboard","","","","tol_peg_3","510","510","0","[[2,1,0],[0,0],[3]]","10","[[0,0,0],[1,2],[3]]","4","0","","","","","","7","","","","","","","","",""
"","","","","","single-stim-button","91","129432","0.0-2.0-22.10-0.10","63d461ae668907ea6006f43f","D2","batch4","","497","tol_tohand","","","","tol_peg_1","497","497","0","[[2,0,0],[0,0],[3]]","11","[[0,0,0],[1,2],[3]]","4","0","","","","","","7","","","","","","","","",""
"","","","","","single-stim-button","92","129936","0.0-2.0-22.10-1.10","63d461ae668907ea6006f43f","D2","batch4","","504","tol_toboard","","","","tol_peg_2","504","504","0","[[2,0,0],[1,0],[3]]","11","[[0,0,0],[1,2],[3]]","4","0","","","","","","7","","","","","","","","",""
"","","","","","single-stim-button","93","130310","0.0-2.0-22.11-0.11","63d461ae668907ea6006f43f","D2","batch4","","374","tol_tohand","","","","tol_peg_1","374","374","0","[[0,0,0],[1,0],[3]]","12","[[0,0,0],[1,2],[3]]","4","0","","","","","","7","","","","","","","","",""
"","","","","","single-stim-button","94","130743","0.0-2.0-22.11-1.11","63d461ae668907ea6006f43f","D2","batch4","","431","tol_toboard","","","","tol_peg_2","431","431","0","[[0,0,0],[1,2],[3]]","12","[[0,0,0],[1,2],[3]]","4","0","","","","","","7","","","","","","","","",""
"","","","","","poldrack-single-stim","95","131745","0.0-2.0-23.0","63d461ae668907ea6006f43f","D2","batch4","","-1","tol_feedback","","","true","","1000","1000","500","","","","","","-1","none","true","4120","10868","","","","","","","","","",""
"","","","","","html-button-response","96","132647","0.0-2.0-24.0","63d461ae668907ea6006f43f","D2","batch4","","902","tol_trial_num","<div class = centerbox><p class = center-block-text>problem <strong>6</strong> out of 25 problems</p></div>","0","","","","","","","","","","","","","","","","","","","","","","","","",""
"","","","","","single-stim-button","97","135631","0.0-2.0-25.0-0.0","63d461ae668907ea6006f43f","D2","batch4","","2983","tol_tohand","","","","tol_peg_3","2983","2983","0","[[0,0,0],[1,2],[0]]","1","[[1,0,0],[2,3],[0]]","5","0","","","","","","6","","","","","","","","",""
"","","","","","single-stim-button","98","136183","0.0-2.0-25.0-1.0","63d461ae668907ea6006f43f","D2","batch4","","551","tol_toboard","","","","tol_peg_1","551","551","0","[[3,0,0],[1,2],[0]]","1","[[1,0,0],[2,3],[0]]","5","0","","","","","","6","","","","","","","","",""
"","","","","","single-stim-button","99","136742","0.0-2.0-25.1-0.1","63d461ae668907ea6006f43f","D2","batch4","","559","tol_tohand","","","","tol_peg_2","559","559","0","[[3,0,0],[1,0],[0]]","2","[[1,0,0],[2,3],[0]]","5","0","","","","","","6","","","","","","","","",""
"","","","","","single-stim-button","100","137199","0.0-2.0-25.1-1.1","63d461ae668907ea6006f43f","D2","batch4","","456","tol_toboard","","","","tol_peg_3","456","456","0","[[3,0,0],[1,0],[2]]","2","[[1,0,0],[2,3],[0]]","5","0","","","","","","6","","","","","","","","",""
"","","","","","single-stim-button","101","141135","0.0-2.0-25.2-0.2","63d461ae668907ea6006f43f","D2","batch4","","3936","tol_tohand","","","","tol_peg_2","3936","3936","0","[[3,0,0],[0,0],[2]]","3","[[1,0,0],[2,3],[0]]","5","0","","","","","","6","","","","","","","","",""
"","","","","","single-stim-button","102","141471","0.0-2.0-25.2-1.2","63d461ae668907ea6006f43f","D2","batch4","","335","tol_toboard","","","","tol_peg_1","335","335","0","[[3,1,0],[0,0],[2]]","3","[[1,0,0],[2,3],[0]]","5","0","","","","","","6","","","","","","","","",""
"","","","","","single-stim-button","103","142063","0.0-2.0-25.3-0.3","63d461ae668907ea6006f43f","D2","batch4","","592","tol_tohand","","","","tol_peg_3","592","592","0","[[3,1,0],[0,0],[0]]","4","[[1,0,0],[2,3],[0]]","5","0","","","","","","6","","","","","","","","",""
"","","","","","single-stim-button","104","143096","0.0-2.0-25.3-1.3","63d461ae668907ea6006f43f","D2","batch4","","1033","tol_toboard","","","","tol_peg_2","1033","1033","0","[[3,1,0],[2,0],[0]]","4","[[1,0,0],[2,3],[0]]","5","0","","","","","","6","","","","","","","","",""
"","","","","","single-stim-button","105","143503","0.0-2.0-25.4-0.4","63d461ae668907ea6006f43f","D2","batch4","","407","tol_tohand","","","","tol_peg_1","407","407","0","[[3,0,0],[2,0],[0]]","5","[[1,0,0],[2,3],[0]]","5","0","","","","","","6","","","","","","","","",""
"","","","","","single-stim-button","106","144047","0.0-2.0-25.4-1.4","63d461ae668907ea6006f43f","D2","batch4","","543","tol_toboard","","","","tol_peg_3","543","543","0","[[3,0,0],[2,0],[1]]","5","[[1,0,0],[2,3],[0]]","5","0","","","","","","6","","","","","","","","",""
"","","","","","single-stim-button","107","144542","0.0-2.0-25.5-0.5","63d461ae668907ea6006f43f","D2","batch4","","495","tol_tohand","","","","tol_peg_1","495","495","0","[[0,0,0],[2,0],[1]]","6","[[1,0,0],[2,3],[0]]","5","0","","","","","","6","","","","","","","","",""
"","","","","","single-stim-button","108","144863","0.0-2.0-25.5-1.5","63d461ae668907ea6006f43f","D2","batch4","","320","tol_toboard","","","","tol_peg_2","320","320","0","[[0,0,0],[2,3],[1]]","6","[[1,0,0],[2,3],[0]]","5","0","","","","","","6","","","","","","","","",""
"","","","","","single-stim-button","109","145183","0.0-2.0-25.6-0.6","63d461ae668907ea6006f43f","D2","batch4","","319","tol_tohand","","","","tol_peg_3","319","319","0","[[0,0,0],[2,3],[0]]","7","[[1,0,0],[2,3],[0]]","5","0","","","","","","6","","","","","","","","",""
"","","","","","single-stim-button","110","145655","0.0-2.0-25.6-1.6","63d461ae668907ea6006f43f","D2","batch4","","472","tol_toboard","","","","tol_peg_1","472","472","0","[[1,0,0],[2,3],[0]]","7","[[1,0,0],[2,3],[0]]","5","0","","","","","","6","","","","","","","","",""
"","","","","","poldrack-single-stim","111","146657","0.0-2.0-26.0","63d461ae668907ea6006f43f","D2","batch4","","-1","tol_feedback","","","true","","1000","1000","500","","","","","","-1","none","true","2983","9291","","","","","","","","","",""
"","","","","","html-button-response","112","147663","0.0-2.0-27.0","63d461ae668907ea6006f43f","D2","batch4","","1005.1000000238419","tol_trial_num","<div class = centerbox><p class = center-block-text>problem <strong>7</strong> out of 25 problems</p></div>","0","","","","","","","","","","","","","","","","","","","","","","","","",""
"","","","","","single-stim-button","113","149695","0.0-2.0-28.0-0.0","63d461ae668907ea6006f43f","D2","batch4","","2032","tol_tohand","","","","tol_peg_1","2032","2032","0","[[2,0,0],[0,0],[3]]","1","[[1,2,0],[3,0],[0]]","6","0","","","","","","5","","","","","","","","",""
"","","","","","single-stim-button","114","150423","0.0-2.0-28.0-1.0","63d461ae668907ea6006f43f","D2","batch4","","728","tol_toboard","","","","tol_peg_2","728","728","0","[[2,0,0],[1,0],[3]]","1","[[1,2,0],[3,0],[0]]","6","0","","","","","","5","","","","","","","","",""
"","","","","","single-stim-button","115","150919","0.0-2.0-28.1-0.1","63d461ae668907ea6006f43f","D2","batch4","","496","tol_tohand","","","","tol_peg_1","496","496","0","[[0,0,0],[1,0],[3]]","2","[[1,2,0],[3,0],[0]]","6","0","","","","","","5","","","","","","","","",""
"","","","","","single-stim-button","116","151583","0.0-2.0-28.1-1.1","63d461ae668907ea6006f43f","D2","batch4","","663","tol_toboard","","","","tol_peg_2","663","663","0","[[0,0,0],[1,2],[3]]","2","[[1,2,0],[3,0],[0]]","6","0","","","","","","5","","","","","","","","",""
"","","","","","single-stim-button","117","152374","0.0-2.0-28.2-0.2","63d461ae668907ea6006f43f","D2","batch4","","791","tol_tohand","","","","tol_peg_3","791","791","0","[[0,0,0],[1,2],[0]]","3","[[1,2,0],[3,0],[0]]","6","0","","","","","","5","","","","","","","","",""
"","","","","","single-stim-button","118","152990","0.0-2.0-28.2-1.2","63d461ae668907ea6006f43f","D2","batch4","","615","tol_toboard","","","","tol_peg_1","615","615","0","[[3,0,0],[1,2],[0]]","3","[[1,2,0],[3,0],[0]]","6","0","","","","","","5","","","","","","","","",""
"","","","","","single-stim-button","119","153879","0.0-2.0-28.3-0.3","63d461ae668907ea6006f43f","D2","batch4","","888","tol_tohand","","","","tol_peg_2","888","888","0","[[3,0,0],[1,0],[0]]","4","[[1,2,0],[3,0],[0]]","6","0","","","","","","5","","","","","","","","",""
"","","","","","single-stim-button","120","156655","0.0-2.0-28.3-1.3","63d461ae668907ea6006f43f","D2","batch4","","2775","tol_toboard","","","","tol_peg_3","2775","2775","0","[[3,0,0],[1,0],[2]]","4","[[1,2,0],[3,0],[0]]","6","0","","","","","","5","","","","","","","","",""
"","","","","","single-stim-button","121","157183","0.0-2.0-28.4-0.4","63d461ae668907ea6006f43f","D2","batch4","","526","tol_tohand","","","","tol_peg_1","526","526","0","[[0,0,0],[1,0],[2]]","5","[[1,2,0],[3,0],[0]]","6","0","","","","","","5","","","","","","","","",""
"","","","","","single-stim-button","122","157487","0.0-2.0-28.4-1.4","63d461ae668907ea6006f43f","D2","batch4","","304","tol_toboard","","","","tol_peg_2","304","304","0","[[0,0,0],[1,3],[2]]","5","[[1,2,0],[3,0],[0]]","6","0","","","","","","5","","","","","","","","",""
"","","","","","single-stim-button","123","159382","0.0-2.0-28.5-0.5","63d461ae668907ea6006f43f","D2","batch4","","1895","tol_tohand","","","","tol_peg_2","1895","1895","0","[[0,0,0],[1,0],[2]]","6","[[1,2,0],[3,0],[0]]","6","0","","","","","","5","","","","","","","","",""
"","","","","","single-stim-button","124","160974","0.0-2.0-28.5-1.5","63d461ae668907ea6006f43f","D2","batch4","","1592","tol_toboard","","","","tol_peg_1","1592","1592","0","[[3,0,0],[1,0],[2]]","6","[[1,2,0],[3,0],[0]]","6","0","","","","","","5","","","","","","","","",""
"","","","","","single-stim-button","125","163262","0.0-2.0-28.6-0.6","63d461ae668907ea6006f43f","D2","batch4","","2287","tol_tohand","","","","tol_peg_3","2287","2287","0","[[3,0,0],[1,0],[0]]","7","[[1,2,0],[3,0],[0]]","6","0","","","","","","5","","","","","","","","",""
"","","","","","single-stim-button","126","163751","0.0-2.0-28.6-1.6","63d461ae668907ea6006f43f","D2","batch4","","488","tol_toboard","","","","tol_peg_1","488","488","0","[[3,2,0],[1,0],[0]]","7","[[1,2,0],[3,0],[0]]","6","0","","","","","","5","","","","","","","","",""
"","","","","","single-stim-button","127","164071","0.0-2.0-28.7-0.7","63d461ae668907ea6006f43f","D2","batch4","","320","tol_tohand","","","","tol_peg_2","320","320","0","[[3,2,0],[0,0],[0]]","8","[[1,2,0],[3,0],[0]]","6","0","","","","","","5","","","","","","","","",""
"","","","","","single-stim-button","128","164423","0.0-2.0-28.7-1.7","63d461ae668907ea6006f43f","D2","batch4","","351","tol_toboard","","","","tol_peg_3","351","351","0","[[3,2,0],[0,0],[1]]","8","[[1,2,0],[3,0],[0]]","6","0","","","","","","5","","","","","","","","",""
"","","","","","single-stim-button","129","165247","0.0-2.0-28.8-0.8","63d461ae668907ea6006f43f","D2","batch4","","824","tol_tohand","","","","tol_peg_1","824","824","0","[[3,0,0],[0,0],[1]]","9","[[1,2,0],[3,0],[0]]","6","0","","","","","","5","","","","","","","","",""
"","","","","","single-stim-button","130","165959","0.0-2.0-28.8-1.8","63d461ae668907ea6006f43f","D2","batch4","","712","tol_toboard","","","","tol_peg_2","712","712","0","[[3,0,0],[2,0],[1]]","9","[[1,2,0],[3,0],[0]]","6","0","","","","","","5","","","","","","","","",""
"","","","","","single-stim-button","131","166488","0.0-2.0-28.9-0.9","63d461ae668907ea6006f43f","D2","batch4","","528","tol_tohand","","","","tol_peg_1","528","528","0","[[0,0,0],[2,0],[1]]","10","[[1,2,0],[3,0],[0]]","6","0","","","","","","5","","","","","","","","",""
"","","","","","single-stim-button","132","166791","0.0-2.0-28.9-1.9","63d461ae668907ea6006f43f","D2","batch4","","302","tol_toboard","","","","tol_peg_2","302","302","0","[[0,0,0],[2,3],[1]]","10","[[1,2,0],[3,0],[0]]","6","0","","","","","","5","","","","","","","","",""
"","","","","","single-stim-button","133","167351","0.0-2.0-28.10-0.10","63d461ae668907ea6006f43f","D2","batch4","","559","tol_tohand","","","","tol_peg_3","559","559","0","[[0,0,0],[2,3],[0]]","11","[[1,2,0],[3,0],[0]]","6","0","","","","","","5","","","","","","","","",""
"","","","","","single-stim-button","134","167742","0.0-2.0-28.10-1.10","63d461ae668907ea6006f43f","D2","batch4","","391","tol_toboard","","","","tol_peg_1","391","391","0","[[1,0,0],[2,3],[0]]","11","[[1,2,0],[3,0],[0]]","6","0","","","","","","5","","","","","","","","",""
"","","","","","single-stim-button","135","168399","0.0-2.0-28.11-0.11","63d461ae668907ea6006f43f","D2","batch4","","657","tol_tohand","","","","tol_peg_2","657","657","0","[[1,0,0],[2,0],[0]]","12","[[1,2,0],[3,0],[0]]","6","0","","","","","","5","","","","","","","","",""
"","","","","","single-stim-button","136","169374","0.0-2.0-28.11-1.11","63d461ae668907ea6006f43f","D2","batch4","","975","tol_toboard","","","","tol_peg_3","975","975","0","[[1,0,0],[2,0],[3]]","12","[[1,2,0],[3,0],[0]]","6","0","","","","","","5","","","","","","","","",""
"","","","","","single-stim-button","137","169825","0.0-2.0-28.12-0.12","63d461ae668907ea6006f43f","D2","batch4","","451","tol_tohand","","","","tol_peg_2","451","451","0","[[1,0,0],[0,0],[3]]","13","[[1,2,0],[3,0],[0]]","6","0","","","","","","5","","","","","","","","",""
"","","","","","single-stim-button","138","170230","0.0-2.0-28.12-1.12","63d461ae668907ea6006f43f","D2","batch4","","405","tol_toboard","","","","tol_peg_1","405","405","0","[[1,2,0],[0,0],[3]]","13","[[1,2,0],[3,0],[0]]","6","0","","","","","","5","","","","","","","","",""
"","","","","","single-stim-button","139","170615","0.0-2.0-28.13-0.13","63d461ae668907ea6006f43f","D2","batch4","","383","tol_tohand","","","","tol_peg_3","383","383","0","[[1,2,0],[0,0],[0]]","14","[[1,2,0],[3,0],[0]]","6","0","","","","","","5","","","","","","","","",""
"","","","","","single-stim-button","140","171046","0.0-2.0-28.13-1.13","63d461ae668907ea6006f43f","D2","batch4","","431","tol_toboard","","","","tol_peg_2","431","431","0","[[1,2,0],[3,0],[0]]","14","[[1,2,0],[3,0],[0]]","6","0","","","","","","5","","","","","","","","",""
"","","","","","poldrack-single-stim","141","172048","0.0-2.0-29.0","63d461ae668907ea6006f43f","D2","batch4","","-1","tol_feedback","","","true","","1000","1000","500","","","","","","-1","none","true","2032","12637","","","","","","","","","",""
"","","","","","html-button-response","142","172590","0.0-2.0-30.0","63d461ae668907ea6006f43f","D2","batch4","","542","tol_trial_num","<div class = centerbox><p class = center-block-text>problem <strong>8</strong> out of 25 problems</p></div>","0","","","","","","","","","","","","","","","","","","","","","","","","",""
"","","","","","single-stim-button","143","174686","0.0-2.0-31.0-0.0","63d461ae668907ea6006f43f","D2","batch4","","2095","tol_tohand","","","","tol_peg_3","2095","2095","0","[[0,0,0],[2,3],[0]]","1","[[1,2,0],[3,0],[0]]","7","0","","","","","","4","","","","","","","","",""
"","","","","","single-stim-button","144","175199","0.0-2.0-31.0-1.0","63d461ae668907ea6006f43f","D2","batch4","","513","tol_toboard","","","","tol_peg_1","513","513","0","[[1,0,0],[2,3],[0]]","1","[[1,2,0],[3,0],[0]]","7","0","","","","","","4","","","","","","","","",""
"","","","","","single-stim-button","145","175663","0.0-2.0-31.1-0.1","63d461ae668907ea6006f43f","D2","batch4","","464","tol_tohand","","","","tol_peg_2","464","464","0","[[1,0,0],[2,0],[0]]","2","[[1,2,0],[3,0],[0]]","7","0","","","","","","4","","","","","","","","",""
"","","","","","single-stim-button","146","176207","0.0-2.0-31.1-1.1","63d461ae668907ea6006f43f","D2","batch4","","544","tol_toboard","","","","tol_peg_3","544","544","0","[[1,0,0],[2,0],[3]]","2","[[1,2,0],[3,0],[0]]","7","0","","","","","","4","","","","","","","","",""
"","","","","","single-stim-button","147","176663","0.0-2.0-31.2-0.2","63d461ae668907ea6006f43f","D2","batch4","","455","tol_tohand","","","","tol_peg_2","455","455","0","[[1,0,0],[0,0],[3]]","3","[[1,2,0],[3,0],[0]]","7","0","","","","","","4","","","","","","","","",""
"","","","","","single-stim-button","148","177071","0.0-2.0-31.2-1.2","63d461ae668907ea6006f43f","D2","batch4","","407","tol_toboard","","","","tol_peg_1","407","407","0","[[1,2,0],[0,0],[3]]","3","[[1,2,0],[3,0],[0]]","7","0","","","","","","4","","","","","","","","",""
"","","","","","single-stim-button","149","177623","0.0-2.0-31.3-0.3","63d461ae668907ea6006f43f","D2","batch4","","551","tol_tohand","","","","tol_peg_3","551","551","0","[[1,2,0],[0,0],[0]]","4","[[1,2,0],[3,0],[0]]","7","0","","","","","","4","","","","","","","","",""
"","","","","","single-stim-button","150","177951","0.0-2.0-31.3-1.3","63d461ae668907ea6006f43f","D2","batch4","","327","tol_toboard","","","","tol_peg_2","327","327","0","[[1,2,0],[3,0],[0]]","4","[[1,2,0],[3,0],[0]]","7","0","","","","","","4","","","","","","","","",""
"","","","","","poldrack-single-stim","151","178952","0.0-2.0-32.0","63d461ae668907ea6006f43f","D2","batch4","","-1","tol_feedback","","","true","","1000","1000","500","","","","","","-1","none","true","2095","3565","","","","","","","","","",""
"","","","","","html-button-response","152","179591","0.0-2.0-33.0","63d461ae668907ea6006f43f","D2","batch4","","638.3999999761581","tol_trial_num","<div class = centerbox><p class = center-block-text>problem <strong>9</strong> out of 25 problems</p></div>","0","","","","","","","","","","","","","","","","","","","","","","","","",""
"","","","","","single-stim-button","153","184039","0.0-2.0-34.0-0.0","63d461ae668907ea6006f43f","D2","batch4","","4448","tol_tohand","","","","tol_peg_1","4448","4448","0","[[3,0,0],[0,0],[1]]","1","[[2,1,0],[3,0],[0]]","8","0","","","","","","6","","","","","","","","",""
"","","","","","single-stim-button","154","184879","0.0-2.0-34.0-1.0","63d461ae668907ea6006f43f","D2","batch4","","839","tol_toboard","","","","tol_peg_2","839","839","0","[[3,0,0],[2,0],[1]]","1","[[2,1,0],[3,0],[0]]","8","0","","","","","","6","","","","","","","","",""
"","","","","","single-stim-button","155","187719","0.0-2.0-34.1-0.1","63d461ae668907ea6006f43f","D2","batch4","","2839","tol_tohand","","","","tol_peg_1","2839","2839","0","[[0,0,0],[2,0],[1]]","2","[[2,1,0],[3,0],[0]]","8","0","","","","","","6","","","","","","","","",""
"","","","","","single-stim-button","156","191174","0.0-2.0-34.1-1.1","63d461ae668907ea6006f43f","D2","batch4","","3455","tol_toboard","","","","tol_peg_2","3455","3455","0","[[0,0,0],[2,3],[1]]","2","[[2,1,0],[3,0],[0]]","8","0","","","","","","6","","","","","","","","",""
"","","","","","single-stim-button","157","191823","0.0-2.0-34.2-0.2","63d461ae668907ea6006f43f","D2","batch4","","648","tol_tohand","","","","tol_peg_3","648","648","0","[[0,0,0],[2,3],[0]]","3","[[2,1,0],[3,0],[0]]","8","0","","","","","","6","","","","","","","","",""
"","","","","","single-stim-button","158","192224","0.0-2.0-34.2-1.2","63d461ae668907ea6006f43f","D2","batch4","","400","tol_toboard","","","","tol_peg_1","400","400","0","[[1,0,0],[2,3],[0]]","3","[[2,1,0],[3,0],[0]]","8","0","","","","","","6","","","","","","","","",""
"","","","","","single-stim-button","159","193200","0.0-2.0-34.3-0.3","63d461ae668907ea6006f43f","D2","batch4","","975","tol_tohand","","","","tol_peg_2","975","975","0","[[1,0,0],[2,0],[0]]","4","[[2,1,0],[3,0],[0]]","8","0","","","","","","6","","","","","","","","",""
"","","","","","single-stim-button","160","193687","0.0-2.0-34.3-1.3","63d461ae668907ea6006f43f","D2","batch4","","487","tol_toboard","","","","tol_peg_3","487","487","0","[[1,0,0],[2,0],[3]]","4","[[2,1,0],[3,0],[0]]","8","0","","","","","","6","","","","","","","","",""
"","","","","","single-stim-button","161","195046","0.0-2.0-34.4-0.4","63d461ae668907ea6006f43f","D2","batch4","","1359","tol_tohand","","","","tol_peg_1","1359","1359","0","[[0,0,0],[2,0],[3]]","5","[[2,1,0],[3,0],[0]]","8","0","","","","","","6","","","","","","","","",""
"","","","","","single-stim-button","162","195310","0.0-2.0-34.4-1.4","63d461ae668907ea6006f43f","D2","batch4","","263","tol_toboard","","","","tol_peg_1","263","263","0","[[1,0,0],[2,0],[3]]","5","[[2,1,0],[3,0],[0]]","8","0","","","","","","6","","","","","","","","",""
"","","","","","single-stim-button","163","196079","0.0-2.0-34.5-0.5","63d461ae668907ea6006f43f","D2","batch4","","768","tol_tohand","","","","tol_peg_2","768","768","0","[[1,0,0],[0,0],[3]]","6","[[2,1,0],[3,0],[0]]","8","0","","","","","","6","","","","","","","","",""
"","","","","","single-stim-button","164","196463","0.0-2.0-34.5-1.5","63d461ae668907ea6006f43f","D2","batch4","","384","tol_toboard","","","","tol_peg_1","384","384","0","[[1,2,0],[0,0],[3]]","6","[[2,1,0],[3,0],[0]]","8","0","","","","","","6","","","","","","","","",""
"","","","","","single-stim-button","165","197199","0.0-2.0-34.6-0.6","63d461ae668907ea6006f43f","D2","batch4","","736","tol_tohand","","","","tol_peg_3","736","736","0","[[1,2,0],[0,0],[0]]","7","[[2,1,0],[3,0],[0]]","8","0","","","","","","6","","","","","","","","",""
"","","","","","single-stim-button","166","197615","0.0-2.0-34.6-1.6","63d461ae668907ea6006f43f","D2","batch4","","416","tol_toboard","","","","tol_peg_2","416","416","0","[[1,2,0],[3,0],[0]]","7","[[2,1,0],[3,0],[0]]","8","0","","","","","","6","","","","","","","","",""
"","","","","","single-stim-button","167","198631","0.0-2.0-34.7-0.7","63d461ae668907ea6006f43f","D2","batch4","","1016","tol_tohand","","","","tol_peg_1","1016","1016","0","[[1,0,0],[3,0],[0]]","8","[[2,1,0],[3,0],[0]]","8","0","","","","","","6","","","","","","","","",""
"","","","","","single-stim-button","168","199999","0.0-2.0-34.7-1.7","63d461ae668907ea6006f43f","D2","batch4","","1368","tol_toboard","","","","tol_peg_3","1368","1368","0","[[1,0,0],[3,0],[2]]","8","[[2,1,0],[3,0],[0]]","8","0","","","","","","6","","","","","","","","",""
"","","","","","single-stim-button","169","200679","0.0-2.0-34.8-0.8","63d461ae668907ea6006f43f","D2","batch4","","679","tol_tohand","","","","tol_peg_1","679","679","0","[[0,0,0],[3,0],[2]]","9","[[2,1,0],[3,0],[0]]","8","0","","","","","","6","","","","","","","","",""
"","","","","","single-stim-button","170","201071","0.0-2.0-34.8-1.8","63d461ae668907ea6006f43f","D2","batch4","","392","tol_toboard","","","","tol_peg_2","392","392","0","[[0,0,0],[3,1],[2]]","9","[[2,1,0],[3,0],[0]]","8","0","","","","","","6","","","","","","","","",""
"","","","","","single-stim-button","171","201406","0.0-2.0-34.9-0.9","63d461ae668907ea6006f43f","D2","batch4","","335","tol_tohand","","","","tol_peg_3","335","335","0","[[0,0,0],[3,1],[0]]","10","[[2,1,0],[3,0],[0]]","8","0","","","","","","6","","","","","","","","",""
"","","","","","single-stim-button","172","201831","0.0-2.0-34.9-1.9","63d461ae668907ea6006f43f","D2","batch4","","424","tol_toboard","","","","tol_peg_1","424","424","0","[[2,0,0],[3,1],[0]]","10","[[2,1,0],[3,0],[0]]","8","0","","","","","","6","","","","","","","","",""
"","","","","","single-stim-button","173","202294","0.0-2.0-34.10-0.10","63d461ae668907ea6006f43f","D2","batch4","","463","tol_tohand","","","","tol_peg_2","463","463","0","[[2,0,0],[3,0],[0]]","11","[[2,1,0],[3,0],[0]]","8","0","","","","","","6","","","","","","","","",""
"","","","","","single-stim-button","174","202694","0.0-2.0-34.10-1.10","63d461ae668907ea6006f43f","D2","batch4","","399","tol_toboard","","","","tol_peg_1","399","399","0","[[2,1,0],[3,0],[0]]","11","[[2,1,0],[3,0],[0]]","8","0","","","","","","6","","","","","","","","",""
"","","","","","poldrack-single-stim","175","203707","0.0-2.0-35.0","63d461ae668907ea6006f43f","D2","batch4","","-1","tol_feedback","","","true","","1000","1000","500","","","","","","-1","none","true","4448","14266","","","","","","","","","",""
"","","","","","html-button-response","176","204278","0.0-2.0-36.0","63d461ae668907ea6006f43f","D2","batch4","","571.1999999284744","tol_trial_num","<div class = centerbox><p class = center-block-text>problem <strong>10</strong> out of 25 problems</p></div>","0","","","","","","","","","","","","","","","","","","","","","","","","",""
"","","","","","single-stim-button","177","206872","0.0-2.0-37.0-0.0","63d461ae668907ea6006f43f","D2","batch4","","2592","tol_tohand","","","","tol_peg_2","2592","2592","0","[[3,0,0],[0,0],[2]]","1","[[3,0,0],[2,1],[0]]","9","0","","","","","","3","","","","","","","","",""
"","","","","","single-stim-button","178","207255","0.0-2.0-37.0-1.0","63d461ae668907ea6006f43f","D2","batch4","","382","tol_toboard","","","","tol_peg_1","382","382","0","[[3,1,0],[0,0],[2]]","1","[[3,0,0],[2,1],[0]]","9","0","","","","","","3","","","","","","","","",""
"","","","","","single-stim-button","179","207822","0.0-2.0-37.1-0.1","63d461ae668907ea6006f43f","D2","batch4","","567","tol_tohand","","","","tol_peg_3","567","567","0","[[3,1,0],[0,0],[0]]","2","[[3,0,0],[2,1],[0]]","9","0","","","","","","3","","","","","","","","",""
"","","","","","single-stim-button","180","208175","0.0-2.0-37.1-1.1","63d461ae668907ea6006f43f","D2","batch4","","352","tol_toboard","","","","tol_peg_2","352","352","0","[[3,1,0],[2,0],[0]]","2","[[3,0,0],[2,1],[0]]","9","0","","","","","","3","","","","","","","","",""
"","","","","","single-stim-button","181","208687","0.0-2.0-37.2-0.2","63d461ae668907ea6006f43f","D2","batch4","","512","tol_tohand","","","","tol_peg_1","512","512","0","[[3,0,0],[2,0],[0]]","3","[[3,0,0],[2,1],[0]]","9","0","","","","","","3","","","","","","","","",""
"","","","","","single-stim-button","182","209143","0.0-2.0-37.2-1.2","63d461ae668907ea6006f43f","D2","batch4","","455","tol_toboard","","","","tol_peg_2","455","455","0","[[3,0,0],[2,1],[0]]","3","[[3,0,0],[2,1],[0]]","9","0","","","","","","3","","","","","","","","",""
"","","","","","poldrack-single-stim","183","210143","0.0-2.0-38.0","63d461ae668907ea6006f43f","D2","batch4","","-1","tol_feedback","","","true","","1000","1000","500","","","","","","-1","none","true","2592","3671","","","","","","","","","",""
"","","","","","html-button-response","184","211030","0.0-2.0-39.0","63d461ae668907ea6006f43f","D2","batch4","","886.6000000238419","tol_trial_num","<div class = centerbox><p class = center-block-text>problem <strong>11</strong> out of 25 problems</p></div>","0","","","","","","","","","","","","","","","","","","","","","","","","",""
"","","","","","single-stim-button","185","212703","0.0-2.0-40.0-0.0","63d461ae668907ea6006f43f","D2","batch4","","1672","tol_tohand","","","","tol_peg_2","1672","1672","0","[[1,2,0],[0,0],[0]]","1","[[2,0,0],[1,3],[0]]","10","0","","","","","","6","","","","","","","","",""
"","","","","","single-stim-button","186","214046","0.0-2.0-40.0-1.0","63d461ae668907ea6006f43f","D2","batch4","","1343","tol_toboard","","","","tol_peg_3","1343","1343","0","[[1,2,0],[0,0],[3]]","1","[[2,0,0],[1,3],[0]]","10","0","","","","","","6","","","","","","","","",""
"","","","","","single-stim-button","187","214719","0.0-2.0-40.1-0.1","63d461ae668907ea6006f43f","D2","batch4","","673","tol_tohand","","","","tol_peg_1","673","673","0","[[1,0,0],[0,0],[3]]","2","[[2,0,0],[1,3],[0]]","10","0","","","","","","6","","","","","","","","",""
"","","","","","single-stim-button","188","215055","0.0-2.0-40.1-1.1","63d461ae668907ea6006f43f","D2","batch4","","336","tol_toboard","","","","tol_peg_2","336","336","0","[[1,0,0],[2,0],[3]]","2","[[2,0,0],[1,3],[0]]","10","0","","","","","","6","","","","","","","","",""
"","","","","","single-stim-button","189","215990","0.0-2.0-40.2-0.2","63d461ae668907ea6006f43f","D2","batch4","","935","tol_tohand","","","","tol_peg_1","935","935","0","[[0,0,0],[2,0],[3]]","3","[[2,0,0],[1,3],[0]]","10","0","","","","","","6","","","","","","","","",""
"","","","","","single-stim-button","190","216390","0.0-2.0-40.2-1.2","63d461ae668907ea6006f43f","D2","batch4","","399","tol_toboard","","","","tol_peg_2","399","399","0","[[0,0,0],[2,1],[3]]","3","[[2,0,0],[1,3],[0]]","10","0","","","","","","6","","","","","","","","",""
"","","","","","single-stim-button","191","216823","0.0-2.0-40.3-0.3","63d461ae668907ea6006f43f","D2","batch4","","432","tol_tohand","","","","tol_peg_3","432","432","0","[[0,0,0],[2,1],[0]]","4","[[2,0,0],[1,3],[0]]","10","0","","","","","","6","","","","","","","","",""
"","","","","","single-stim-button","192","217262","0.0-2.0-40.3-1.3","63d461ae668907ea6006f43f","D2","batch4","","439","tol_toboard","","","","tol_peg_1","439","439","0","[[3,0,0],[2,1],[0]]","4","[[2,0,0],[1,3],[0]]","10","0","","","","","","6","","","","","","","","",""
"","","","","","single-stim-button","193","217663","0.0-2.0-40.4-0.4","63d461ae668907ea6006f43f","D2","batch4","","400","tol_tohand","","","","tol_peg_2","400","400","0","[[3,0,0],[2,0],[0]]","5","[[2,0,0],[1,3],[0]]","10","0","","","","","","6","","","","","","","","",""
"","","","","","single-stim-button","194","218847","0.0-2.0-40.4-1.4","63d461ae668907ea6006f43f","D2","batch4","","1184","tol_toboard","","","","tol_peg_3","1184","1184","0","[[3,0,0],[2,0],[1]]","5","[[2,0,0],[1,3],[0]]","10","0","","","","","","6","","","","","","","","",""
"","","","","","single-stim-button","195","219495","0.0-2.0-40.5-0.5","63d461ae668907ea6006f43f","D2","batch4","","648","tol_tohand","","","","tol_peg_1","648","648","0","[[0,0,0],[2,0],[1]]","6","[[2,0,0],[1,3],[0]]","10","0","","","","","","6","","","","","","","","",""
"","","","","","single-stim-button","196","221487","0.0-2.0-40.5-1.5","63d461ae668907ea6006f43f","D2","batch4","","1992","tol_toboard","","","","tol_peg_1","1992","1992","0","[[3,0,0],[2,0],[1]]","6","[[2,0,0],[1,3],[0]]","10","0","","","","","","6","","","","","","","","",""
"","","","","","single-stim-button","197","222150","0.0-2.0-40.6-0.6","63d461ae668907ea6006f43f","D2","batch4","","662","tol_tohand","","","","tol_peg_1","662","662","0","[[0,0,0],[2,0],[1]]","7","[[2,0,0],[1,3],[0]]","10","0","","","","","","6","","","","","","","","",""
"","","","","","single-stim-button","198","222543","0.0-2.0-40.6-1.6","63d461ae668907ea6006f43f","D2","batch4","","392","tol_toboard","","","","tol_peg_2","392","392","0","[[0,0,0],[2,3],[1]]","7","[[2,0,0],[1,3],[0]]","10","0","","","","","","6","","","","","","","","",""
"","","","","","single-stim-button","199","224535","0.0-2.0-40.7-0.7","63d461ae668907ea6006f43f","D2","batch4","","1992","tol_tohand","","","","tol_peg_3","1992","1992","0","[[0,0,0],[2,3],[0]]","8","[[2,0,0],[1,3],[0]]","10","0","","","","","","6","","","","","","","","",""
"","","","","","single-stim-button","200","225095","0.0-2.0-40.7-1.7","63d461ae668907ea6006f43f","D2","batch4","","560","tol_toboard","","","","tol_peg_1","560","560","0","[[1,0,0],[2,3],[0]]","8","[[2,0,0],[1,3],[0]]","10","0","","","","","","6","","","","","","","","",""
"","","","","","single-stim-button","201","225974","0.0-2.0-40.8-0.8","63d461ae668907ea6006f43f","D2","batch4","","879","tol_tohand","","","","tol_peg_2","879","879","0","[[1,0,0],[2,0],[0]]","9","[[2,0,0],[1,3],[0]]","10","0","","","","","","6","","","","","","","","",""
"","","","","","single-stim-button","202","226446","0.0-2.0-40.8-1.8","63d461ae668907ea6006f43f","D2","batch4","","472","tol_toboard","","","","tol_peg_3","472","472","0","[[1,0,0],[2,0],[3]]","9","[[2,0,0],[1,3],[0]]","10","0","","","","","","6","","","","","","","","",""
"","","","","","single-stim-button","203","226974","0.0-2.0-40.9-0.9","63d461ae668907ea6006f43f","D2","batch4","","527","tol_tohand","","","","tol_peg_2","527","527","0","[[1,0,0],[0,0],[3]]","10","[[2,0,0],[1,3],[0]]","10","0","","","","","","6","","","","","","","","",""
"","","","","","single-stim-button","204","228838","0.0-2.0-40.9-1.9","63d461ae668907ea6006f43f","D2","batch4","","1863","tol_toboard","","","","tol_peg_2","1863","1863","0","[[1,0,0],[2,0],[3]]","10","[[2,0,0],[1,3],[0]]","10","0","","","","","","6","","","","","","","","",""
"","","","","","single-stim-button","205","229246","0.0-2.0-40.10-0.10","63d461ae668907ea6006f43f","D2","batch4","","408","tol_tohand","","","","tol_peg_1","408","408","0","[[0,0,0],[2,0],[3]]","11","[[2,0,0],[1,3],[0]]","10","0","","","","","","6","","","","","","","","",""
"","","","","","single-stim-button","206","230910","0.0-2.0-40.10-1.10","63d461ae668907ea6006f43f","D2","batch4","","1664","tol_toboard","","","","tol_peg_2","1664","1664","0","[[0,0,0],[2,1],[3]]","11","[[2,0,0],[1,3],[0]]","10","0","","","","","","6","","","","","","","","",""
"","","","","","single-stim-button","207","231398","0.0-2.0-40.11-0.11","63d461ae668907ea6006f43f","D2","batch4","","488","tol_tohand","","","","tol_peg_3","488","488","0","[[0,0,0],[2,1],[0]]","12","[[2,0,0],[1,3],[0]]","10","0","","","","","","6","","","","","","","","",""
"","","","","","single-stim-button","208","232302","0.0-2.0-40.11-1.11","63d461ae668907ea6006f43f","D2","batch4","","904","tol_toboard","","","","tol_peg_1","904","904","0","[[3,0,0],[2,1],[0]]","12","[[2,0,0],[1,3],[0]]","10","0","","","","","","6","","","","","","","","",""
"","","","","","single-stim-button","209","232800","0.0-2.0-40.12-0.12","63d461ae668907ea6006f43f","D2","batch4","","496","tol_tohand","","","","tol_peg_2","496","496","0","[[3,0,0],[2,0],[0]]","13","[[2,0,0],[1,3],[0]]","10","0","","","","","","6","","","","","","","","",""
"","","","","","single-stim-button","210","233159","0.0-2.0-40.12-1.12","63d461ae668907ea6006f43f","D2","batch4","","359","tol_toboard","","","","tol_peg_3","359","359","0","[[3,0,0],[2,0],[1]]","13","[[2,0,0],[1,3],[0]]","10","0","","","","","","6","","","","","","","","",""
"","","","","","single-stim-button","211","233742","0.0-2.0-40.13-0.13","63d461ae668907ea6006f43f","D2","batch4","","583","tol_tohand","","","","tol_peg_2","583","583","0","[[3,0,0],[0,0],[1]]","14","[[2,0,0],[1,3],[0]]","10","0","","","","","","6","","","","","","","","",""
"","","","","","single-stim-button","212","236607","0.0-2.0-40.13-1.13","63d461ae668907ea6006f43f","D2","batch4","","2864","tol_toboard","","","","tol_peg_1","2864","2864","0","[[3,2,0],[0,0],[1]]","14","[[2,0,0],[1,3],[0]]","10","0","","","","","","6","","","","","","","","",""
"","","","","","single-stim-button","213","237174","0.0-2.0-40.14-0.14","63d461ae668907ea6006f43f","D2","batch4","","567","tol_tohand","","","","tol_peg_3","567","567","0","[[3,2,0],[0,0],[0]]","15","[[2,0,0],[1,3],[0]]","10","0","","","","","","6","","","","","","","","",""
"","","","","","single-stim-button","214","237487","0.0-2.0-40.14-1.14","63d461ae668907ea6006f43f","D2","batch4","","312","tol_toboard","","","","tol_peg_2","312","312","0","[[3,2,0],[1,0],[0]]","15","[[2,0,0],[1,3],[0]]","10","0","","","","","","6","","","","","","","","",""
"","","","","","single-stim-button","215","237887","0.0-2.0-40.15-0.15","63d461ae668907ea6006f43f","D2","batch4","","400","tol_tohand","","","","tol_peg_1","400","400","0","[[3,0,0],[1,0],[0]]","16","[[2,0,0],[1,3],[0]]","10","0","","","","","","6","","","","","","","","",""
"","","","","","single-stim-button","216","238230","0.0-2.0-40.15-1.15","63d461ae668907ea6006f43f","D2","batch4","","343","tol_toboard","","","","tol_peg_3","343","343","0","[[3,0,0],[1,0],[2]]","16","[[2,0,0],[1,3],[0]]","10","0","","","","","","6","","","","","","","","",""
"","","","","","single-stim-button","217","238630","0.0-2.0-40.16-0.16","63d461ae668907ea6006f43f","D2","batch4","","400","tol_tohand","","","","tol_peg_1","400","400","0","[[0,0,0],[1,0],[2]]","17","[[2,0,0],[1,3],[0]]","10","0","","","","","","6","","","","","","","","",""
"","","","","","single-stim-button","218","238934","0.0-2.0-40.16-1.16","63d461ae668907ea6006f43f","D2","batch4","","304","tol_toboard","","","","tol_peg_2","304","304","0","[[0,0,0],[1,3],[2]]","17","[[2,0,0],[1,3],[0]]","10","0","","","","","","6","","","","","","","","",""
"","","","","","single-stim-button","219","239246","0.0-2.0-40.17-0.17","63d461ae668907ea6006f43f","D2","batch4","","312","tol_tohand","","","","tol_peg_3","312","312","0","[[0,0,0],[1,3],[0]]","18","[[2,0,0],[1,3],[0]]","10","0","","","","","","6","","","","","","","","",""
"","","","","","single-stim-button","220","239662","0.0-2.0-40.17-1.17","63d461ae668907ea6006f43f","D2","batch4","","416","tol_toboard","","","","tol_peg_1","416","416","0","[[2,0,0],[1,3],[0]]","18","[[2,0,0],[1,3],[0]]","10","0","","","","","","6","","","","","","","","",""
"","","","","","poldrack-single-stim","221","240663","0.0-2.0-41.0","63d461ae668907ea6006f43f","D2","batch4","","-1","tol_feedback","","","true","","1000","1000","500","","","","","","-1","none","true","1672","12474","","","","","","","","","",""
"","","","","","html-button-response","222","241630","0.0-2.0-42.0","63d461ae668907ea6006f43f","D2","batch4","","966.3999999761581","tol_trial_num","<div class = centerbox><p class = center-block-text>problem <strong>12</strong> out of 25 problems</p></div>","0","","","","","","","","","","","","","","","","","","","","","","","","",""
"","","","","","single-stim-button","223","243822","0.0-2.0-43.0-0.0","63d461ae668907ea6006f43f","D2","batch4","","2192","tol_tohand","","","","tol_peg_1","2192","2192","0","[[1,0,0],[3,0],[0]]","1","[[2,3,0],[0,0],[1]]","11","0","","","","","","4","","","","","","","","",""
"","","","","","single-stim-button","224","244173","0.0-2.0-43.0-1.0","63d461ae668907ea6006f43f","D2","batch4","","351","tol_toboard","","","","tol_peg_2","351","351","0","[[1,0,0],[3,2],[0]]","1","[[2,3,0],[0,0],[1]]","11","0","","","","","","4","","","","","","","","",""
"","","","","","single-stim-button","225","244550","0.0-2.0-43.1-0.1","63d461ae668907ea6006f43f","D2","batch4","","376","tol_tohand","","","","tol_peg_1","376","376","0","[[0,0,0],[3,2],[0]]","2","[[2,3,0],[0,0],[1]]","11","0","","","","","","4","","","","","","","","",""
"","","","","","single-stim-button","226","244998","0.0-2.0-43.1-1.1","63d461ae668907ea6006f43f","D2","batch4","","447","tol_toboard","","","","tol_peg_3","447","447","0","[[0,0,0],[3,2],[1]]","2","[[2,3,0],[0,0],[1]]","11","0","","","","","","4","","","","","","","","",""
"","","","","","single-stim-button","227","245495","0.0-2.0-43.2-0.2","63d461ae668907ea6006f43f","D2","batch4","","497","tol_tohand","","","","tol_peg_2","497","497","0","[[0,0,0],[3,0],[1]]","3","[[2,3,0],[0,0],[1]]","11","0","","","","","","4","","","","","","","","",""
"","","","","","single-stim-button","228","245814","0.0-2.0-43.2-1.2","63d461ae668907ea6006f43f","D2","batch4","","319","tol_toboard","","","","tol_peg_1","319","319","0","[[2,0,0],[3,0],[1]]","3","[[2,3,0],[0,0],[1]]","11","0","","","","","","4","","","","","","","","",""
"","","","","","single-stim-button","229","246237","0.0-2.0-43.3-0.3","63d461ae668907ea6006f43f","D2","batch4","","423","tol_tohand","","","","tol_peg_2","423","423","0","[[2,0,0],[0,0],[1]]","4","[[2,3,0],[0,0],[1]]","11","0","","","","","","4","","","","","","","","",""
"","","","","","single-stim-button","230","246566","0.0-2.0-43.3-1.3","63d461ae668907ea6006f43f","D2","batch4","","328","tol_toboard","","","","tol_peg_1","328","328","0","[[2,3,0],[0,0],[1]]","4","[[2,3,0],[0,0],[1]]","11","0","","","","","","4","","","","","","","","",""
"","","","","","poldrack-single-stim","231","247567","0.0-2.0-44.0","63d461ae668907ea6006f43f","D2","batch4","","-1","tol_feedback","","","true","","1000","1000","500","","","","","","-1","none","true","2192","3488","","","","","","","","","",""
"","","","","","html-button-response","232","248750","0.0-2.0-45.0","63d461ae668907ea6006f43f","D2","batch4","","1182.5","tol_trial_num","<div class = centerbox><p class = center-block-text>problem <strong>13</strong> out of 25 problems</p></div>","0","","","","","","","","","","","","","","","","","","","","","","","","",""
"","","","","","single-stim-button","233","250295","0.0-2.0-46.0-0.0","63d461ae668907ea6006f43f","D2","batch4","","1544","tol_tohand","","","","tol_peg_1","1544","1544","0","[[1,0,0],[3,0],[0]]","1","[[0,0,0],[2,3],[1]]","12","0","","","","","","4","","","","","","","","",""
"","","","","","single-stim-button","234","250638","0.0-2.0-46.0-1.0","63d461ae668907ea6006f43f","D2","batch4","","342","tol_toboard","","","","tol_peg_2","342","342","0","[[1,0,0],[3,2],[0]]","1","[[0,0,0],[2,3],[1]]","12","0","","","","","","4","","","","","","","","",""
"","","","","","single-stim-button","235","251038","0.0-2.0-46.1-0.1","63d461ae668907ea6006f43f","D2","batch4","","400","tol_tohand","","","","tol_peg_1","400","400","0","[[0,0,0],[3,2],[0]]","2","[[0,0,0],[2,3],[1]]","12","0","","","","","","4","","","","","","","","",""
"","","","","","single-stim-button","236","251598","0.0-2.0-46.1-1.1","63d461ae668907ea6006f43f","D2","batch4","","560","tol_toboard","","","","tol_peg_3","560","560","0","[[0,0,0],[3,2],[1]]","2","[[0,0,0],[2,3],[1]]","12","0","","","","","","4","","","","","","","","",""
"","","","","","single-stim-button","237","252254","0.0-2.0-46.2-0.2","63d461ae668907ea6006f43f","D2","batch4","","656","tol_tohand","","","","tol_peg_2","656","656","0","[[0,0,0],[3,0],[1]]","3","[[0,0,0],[2,3],[1]]","12","0","","","","","","4","","","","","","","","",""
"","","","","","single-stim-button","238","252589","0.0-2.0-46.2-1.2","63d461ae668907ea6006f43f","D2","batch4","","335","tol_toboard","","","","tol_peg_1","335","335","0","[[2,0,0],[3,0],[1]]","3","[[0,0,0],[2,3],[1]]","12","0","","","","","","4","","","","","","","","",""
"","","","","","single-stim-button","239","252925","0.0-2.0-46.3-0.3","63d461ae668907ea6006f43f","D2","batch4","","335","tol_tohand","","","","tol_peg_2","335","335","0","[[2,0,0],[0,0],[1]]","4","[[0,0,0],[2,3],[1]]","12","0","","","","","","4","","","","","","","","",""
"","","","","","single-stim-button","240","253254","0.0-2.0-46.3-1.3","63d461ae668907ea6006f43f","D2","batch4","","328","tol_toboard","","","","tol_peg_1","328","328","0","[[2,3,0],[0,0],[1]]","4","[[0,0,0],[2,3],[1]]","12","0","","","","","","4","","","","","","","","",""
"","","","","","single-stim-button","241","260166","0.0-2.0-46.4-0.4","63d461ae668907ea6006f43f","D2","batch4","","6911","tol_tohand","","","","tol_peg_3","6911","6911","0","[[2,3,0],[0,0],[0]]","5","[[0,0,0],[2,3],[1]]","12","0","","","","","","4","","","","","","","","",""
"","","","","","single-stim-button","242","260710","0.0-2.0-46.4-1.4","63d461ae668907ea6006f43f","D2","batch4","","543","tol_toboard","","","","tol_peg_2","543","543","0","[[2,3,0],[1,0],[0]]","5","[[0,0,0],[2,3],[1]]","12","0","","","","","","4","","","","","","","","",""
"","","","","","single-stim-button","243","262294","0.0-2.0-46.5-0.5","63d461ae668907ea6006f43f","D2","batch4","","1584","tol_tohand","","","","tol_peg_1","1584","1584","0","[[2,0,0],[1,0],[0]]","6","[[0,0,0],[2,3],[1]]","12","0","","","","","","4","","","","","","","","",""
"","","","","","single-stim-button","244","262637","0.0-2.0-46.5-1.5","63d461ae668907ea6006f43f","D2","batch4","","342","tol_toboard","","","","tol_peg_2","342","342","0","[[2,0,0],[1,3],[0]]","6","[[0,0,0],[2,3],[1]]","12","0","","","","","","4","","","","","","","","",""
"","","","","","single-stim-button","245","263183","0.0-2.0-46.6-0.6","63d461ae668907ea6006f43f","D2","batch4","","545","tol_tohand","","","","tol_peg_1","545","545","0","[[0,0,0],[1,3],[0]]","7","[[0,0,0],[2,3],[1]]","12","0","","","","","","4","","","","","","","","",""
"","","","","","single-stim-button","246","263751","0.0-2.0-46.6-1.6","63d461ae668907ea6006f43f","D2","batch4","","568","tol_toboard","","","","tol_peg_3","568","568","0","[[0,0,0],[1,3],[2]]","7","[[0,0,0],[2,3],[1]]","12","0","","","","","","4","","","","","","","","",""
"","","","","","single-stim-button","247","264870","0.0-2.0-46.7-0.7","63d461ae668907ea6006f43f","D2","batch4","","1118","tol_tohand","","","","tol_peg_2","1118","1118","0","[[0,0,0],[1,0],[2]]","8","[[0,0,0],[2,3],[1]]","12","0","","","","","","4","","","","","","","","",""
"","","","","","single-stim-button","248","265237","0.0-2.0-46.7-1.7","63d461ae668907ea6006f43f","D2","batch4","","367","tol_toboard","","","","tol_peg_1","367","367","0","[[3,0,0],[1,0],[2]]","8","[[0,0,0],[2,3],[1]]","12","0","","","","","","4","","","","","","","","",""
"","","","","","single-stim-button","249","266237","0.0-2.0-46.8-0.8","63d461ae668907ea6006f43f","D2","batch4","","1000","tol_tohand","","","","tol_peg_3","1000","1000","0","[[3,0,0],[1,0],[0]]","9","[[0,0,0],[2,3],[1]]","12","0","","","","","","4","","","","","","","","",""
"","","","","","single-stim-button","250","266813","0.0-2.0-46.8-1.8","63d461ae668907ea6006f43f","D2","batch4","","575","tol_toboard","","","","tol_peg_1","575","575","0","[[3,2,0],[1,0],[0]]","9","[[0,0,0],[2,3],[1]]","12","0","","","","","","4","","","","","","","","",""
"","","","","","single-stim-button","251","267966","0.0-2.0-46.9-0.9","63d461ae668907ea6006f43f","D2","batch4","","1152","tol_tohand","","","","tol_peg_2","1152","1152","0","[[3,2,0],[0,0],[0]]","10","[[0,0,0],[2,3],[1]]","12","0","","","","","","4","","","","","","","","",""
"","","","","","single-stim-button","252","268334","0.0-2.0-46.9-1.9","63d461ae668907ea6006f43f","D2","batch4","","368","tol_toboard","","","","tol_peg_3","368","368","0","[[3,2,0],[0,0],[1]]","10","[[0,0,0],[2,3],[1]]","12","0","","","","","","4","","","","","","","","",""
"","","","","","single-stim-button","253","268862","0.0-2.0-46.10-0.10","63d461ae668907ea6006f43f","D2","batch4","","528","tol_tohand","","","","tol_peg_1","528","528","0","[[3,0,0],[0,0],[1]]","11","[[0,0,0],[2,3],[1]]","12","0","","","","","","4","","","","","","","","",""
"","","","","","single-stim-button","254","269166","0.0-2.0-46.10-1.10","63d461ae668907ea6006f43f","D2","batch4","","303","tol_toboard","","","","tol_peg_2","303","303","0","[[3,0,0],[2,0],[1]]","11","[[0,0,0],[2,3],[1]]","12","0","","","","","","4","","","","","","","","",""
"","","","","","single-stim-button","255","269558","0.0-2.0-46.11-0.11","63d461ae668907ea6006f43f","D2","batch4","","391","tol_tohand","","","","tol_peg_1","391","391","0","[[0,0,0],[2,0],[1]]","12","[[0,0,0],[2,3],[1]]","12","0","","","","","","4","","","","","","","","",""
"","","","","","single-stim-button","256","269894","0.0-2.0-46.11-1.11","63d461ae668907ea6006f43f","D2","batch4","","336","tol_toboard","","","","tol_peg_2","336","336","0","[[0,0,0],[2,3],[1]]","12","[[0,0,0],[2,3],[1]]","12","0","","","","","","4","","","","","","","","",""
"","","","","","poldrack-single-stim","257","270909","0.0-2.0-47.0","63d461ae668907ea6006f43f","D2","batch4","","-1","tol_feedback","","","true","","1000","1000","500","","","","","","-1","none","true","1544","16164","","","","","","","","","",""
"","","","","","html-button-response","258","273005","0.0-2.0-48.0","63d461ae668907ea6006f43f","D2","batch4","","2096.100000023842","attention_check","<p class = block-text>How many balls are in your board<br></p>","1","true","","","","","","","","","","","","","","","","","","","","","","","",""
"","","","","","html-button-response","259","273614","0.0-2.0-49.0","63d461ae668907ea6006f43f","D2","batch4","","607.4000000953674","tol_trial_num","<div class = centerbox><p class = center-block-text>problem <strong>14</strong> out of 25 problems</p></div>","0","","","","","","","","","","","","","","","","","","","","","","","","",""
"","","","","","single-stim-button","260","275726","0.0-2.0-50.0-0.0","63d461ae668907ea6006f43f","D2","batch4","","2112","tol_tohand","","","","tol_peg_1","2112","2112","0","[[2,0,0],[3,0],[0]]","1","[[1,2,0],[3,0],[0]]","13","0","","","","","","4","","","","","","","","",""
"","","","","","single-stim-button","261","276806","0.0-2.0-50.0-1.0","63d461ae668907ea6006f43f","D2","batch4","","1080","tol_toboard","","","","tol_peg_3","1080","1080","0","[[2,0,0],[3,0],[1]]","1","[[1,2,0],[3,0],[0]]","13","0","","","","","","4","","","","","","","","",""
"","","","","","single-stim-button","262","277357","0.0-2.0-50.1-0.1","63d461ae668907ea6006f43f","D2","batch4","","551","tol_tohand","","","","tol_peg_1","551","551","0","[[0,0,0],[3,0],[1]]","2","[[1,2,0],[3,0],[0]]","13","0","","","","","","4","","","","","","","","",""
"","","","","","single-stim-button","263","277654","0.0-2.0-50.1-1.1","63d461ae668907ea6006f43f","D2","batch4","","296","tol_toboard","","","","tol_peg_2","296","296","0","[[0,0,0],[3,2],[1]]","2","[[1,2,0],[3,0],[0]]","13","0","","","","","","4","","","","","","","","",""
"","","","","","single-stim-button","264","277982","0.0-2.0-50.2-0.2","63d461ae668907ea6006f43f","D2","batch4","","328","tol_tohand","","","","tol_peg_3","328","328","0","[[0,0,0],[3,2],[0]]","3","[[1,2,0],[3,0],[0]]","13","0","","","","","","4","","","","","","","","",""
"","","","","","single-stim-button","265","278422","0.0-2.0-50.2-1.2","63d461ae668907ea6006f43f","D2","batch4","","439","tol_toboard","","","","tol_peg_1","439","439","0","[[1,0,0],[3,2],[0]]","3","[[1,2,0],[3,0],[0]]","13","0","","","","","","4","","","","","","","","",""
"","","","","","single-stim-button","266","278757","0.0-2.0-50.3-0.3","63d461ae668907ea6006f43f","D2","batch4","","335","tol_tohand","","","","tol_peg_2","335","335","0","[[1,0,0],[3,0],[0]]","4","[[1,2,0],[3,0],[0]]","13","0","","","","","","4","","","","","","","","",""
"","","","","","single-stim-button","267","279078","0.0-2.0-50.3-1.3","63d461ae668907ea6006f43f","D2","batch4","","320","tol_toboard","","","","tol_peg_1","320","320","0","[[1,2,0],[3,0],[0]]","4","[[1,2,0],[3,0],[0]]","13","0","","","","","","4","","","","","","","","",""
"","","","","","poldrack-single-stim","268","280080","0.0-2.0-51.0","63d461ae668907ea6006f43f","D2","batch4","","-1","tol_feedback","","","true","","1000","1000","500","","","","","","-1","none","true","2112","3326","","","","","","","","","",""
"","","","","","html-button-response","269","280726","0.0-2.0-52.0","63d461ae668907ea6006f43f","D2","batch4","","645.6000000238419","tol_trial_num","<div class = centerbox><p class = center-block-text>problem <strong>15</strong> out of 25 problems</p></div>","0","","","","","","","","","","","","","","","","","","","","","","","","",""
"","","","","","single-stim-button","270","282678","0.0-2.0-53.0-0.0","63d461ae668907ea6006f43f","D2","batch4","","1952","tol_tohand","","","","tol_peg_1","1952","1952","0","[[1,0,0],[3,0],[0]]","1","[[2,0,0],[3,0],[1]]","14","0","","","","","","3","","","","","","","","",""
"","","","","","single-stim-button","271","283053","0.0-2.0-53.0-1.0","63d461ae668907ea6006f43f","D2","batch4","","375","tol_toboard","","","","tol_peg_2","375","375","0","[[1,0,0],[3,2],[0]]","1","[[2,0,0],[3,0],[1]]","14","0","","","","","","3","","","","","","","","",""
"","","","","","single-stim-button","272","283430","0.0-2.0-53.1-0.1","63d461ae668907ea6006f43f","D2","batch4","","376","tol_tohand","","","","tol_peg_1","376","376","0","[[0,0,0],[3,2],[0]]","2","[[2,0,0],[3,0],[1]]","14","0","","","","","","3","","","","","","","","",""
"","","","","","single-stim-button","273","283821","0.0-2.0-53.1-1.1","63d461ae668907ea6006f43f","D2","batch4","","390","tol_toboard","","","","tol_peg_3","390","390","0","[[0,0,0],[3,2],[1]]","2","[[2,0,0],[3,0],[1]]","14","0","","","","","","3","","","","","","","","",""
"","","","","","single-stim-button","274","284214","0.0-2.0-53.2-0.2","63d461ae668907ea6006f43f","D2","batch4","","392","tol_tohand","","","","tol_peg_2","392","392","0","[[0,0,0],[3,0],[1]]","3","[[2,0,0],[3,0],[1]]","14","0","","","","","","3","","","","","","","","",""
"","","","","","single-stim-button","275","284549","0.0-2.0-53.2-1.2","63d461ae668907ea6006f43f","D2","batch4","","335","tol_toboard","","","","tol_peg_1","335","335","0","[[2,0,0],[3,0],[1]]","3","[[2,0,0],[3,0],[1]]","14","0","","","","","","3","","","","","","","","",""
"","","","","","poldrack-single-stim","276","285550","0.0-2.0-54.0","63d461ae668907ea6006f43f","D2","batch4","","-1","tol_feedback","","","true","","1000","1000","500","","","","","","-1","none","true","1952","2720","","","","","","","","","",""
"","","","","","html-button-response","277","286349","0.0-2.0-55.0","63d461ae668907ea6006f43f","D2","batch4","","798.4000000953674","tol_trial_num","<div class = centerbox><p class = center-block-text>problem <strong>16</strong> out of 25 problems</p></div>","0","","","","","","","","","","","","","","","","","","","","","","","","",""
"","","","","","single-stim-button","278","290102","0.0-2.0-56.0-0.0","63d461ae668907ea6006f43f","D2","batch4","","3752","tol_tohand","","","","tol_peg_3","3752","3752","0","[[0,0,0],[2,3],[0]]","1","[[2,3,0],[1,0],[0]]","15","0","","","","","","7","","","","","","","","",""
"","","","","","single-stim-button","279","290534","0.0-2.0-56.0-1.0","63d461ae668907ea6006f43f","D2","batch4","","432","tol_toboard","","","","tol_peg_1","432","432","0","[[1,0,0],[2,3],[0]]","1","[[2,3,0],[1,0],[0]]","15","0","","","","","","7","","","","","","","","",""
"","","","","","single-stim-button","280","291142","0.0-2.0-56.1-0.1","63d461ae668907ea6006f43f","D2","batch4","","606","tol_tohand","","","","tol_peg_2","606","606","0","[[1,0,0],[2,0],[0]]","2","[[2,3,0],[1,0],[0]]","15","0","","","","","","7","","","","","","","","",""
"","","","","","single-stim-button","281","291462","0.0-2.0-56.1-1.1","63d461ae668907ea6006f43f","D2","batch4","","320","tol_toboard","","","","tol_peg_3","320","320","0","[[1,0,0],[2,0],[3]]","2","[[2,3,0],[1,0],[0]]","15","0","","","","","","7","","","","","","","","",""
"","","","","","single-stim-button","282","292053","0.0-2.0-56.2-0.2","63d461ae668907ea6006f43f","D2","batch4","","591","tol_tohand","","","","tol_peg_1","591","591","0","[[0,0,0],[2,0],[3]]","3","[[2,3,0],[1,0],[0]]","15","0","","","","","","7","","","","","","","","",""
"","","","","","single-stim-button","283","292389","0.0-2.0-56.2-1.2","63d461ae668907ea6006f43f","D2","batch4","","335","tol_toboard","","","","tol_peg_2","335","335","0","[[0,0,0],[2,1],[3]]","3","[[2,3,0],[1,0],[0]]","15","0","","","","","","7","","","","","","","","",""
"","","","","","single-stim-button","284","294469","0.0-2.0-56.3-0.3","63d461ae668907ea6006f43f","D2","batch4","","2079","tol_tohand","","","","tol_peg_2","2079","2079","0","[[0,0,0],[2,0],[3]]","4","[[2,3,0],[1,0],[0]]","15","0","","","","","","7","","","","","","","","",""
"","","","","","single-stim-button","285","294821","0.0-2.0-56.3-1.3","63d461ae668907ea6006f43f","D2","batch4","","351","tol_toboard","","","","tol_peg_1","351","351","0","[[1,0,0],[2,0],[3]]","4","[[2,3,0],[1,0],[0]]","15","0","","","","","","7","","","","","","","","",""
"","","","","","single-stim-button","286","295342","0.0-2.0-56.4-0.4","63d461ae668907ea6006f43f","D2","batch4","","520","tol_tohand","","","","tol_peg_2","520","520","0","[[1,0,0],[0,0],[3]]","5","[[2,3,0],[1,0],[0]]","15","0","","","","","","7","","","","","","","","",""
"","","","","","single-stim-button","287","295678","0.0-2.0-56.4-1.4","63d461ae668907ea6006f43f","D2","batch4","","335","tol_toboard","","","","tol_peg_1","335","335","0","[[1,2,0],[0,0],[3]]","5","[[2,3,0],[1,0],[0]]","15","0","","","","","","7","","","","","","","","",""
"","","","","","single-stim-button","288","296654","0.0-2.0-56.5-0.5","63d461ae668907ea6006f43f","D2","batch4","","975","tol_tohand","","","","tol_peg_3","975","975","0","[[1,2,0],[0,0],[0]]","6","[[2,3,0],[1,0],[0]]","15","0","","","","","","7","","","","","","","","",""
"","","","","","single-stim-button","289","297006","0.0-2.0-56.5-1.5","63d461ae668907ea6006f43f","D2","batch4","","352","tol_toboard","","","","tol_peg_2","352","352","0","[[1,2,0],[3,0],[0]]","6","[[2,3,0],[1,0],[0]]","15","0","","","","","","7","","","","","","","","",""
"","","","","","single-stim-button","290","297478","0.0-2.0-56.6-0.6","63d461ae668907ea6006f43f","D2","batch4","","472","tol_tohand","","","","tol_peg_1","472","472","0","[[1,0,0],[3,0],[0]]","7","[[2,3,0],[1,0],[0]]","15","0","","","","","","7","","","","","","","","",""
"","","","","","single-stim-button","291","297902","0.0-2.0-56.6-1.6","63d461ae668907ea6006f43f","D2","batch4","","423","tol_toboard","","","","tol_peg_3","423","423","0","[[1,0,0],[3,0],[2]]","7","[[2,3,0],[1,0],[0]]","15","0","","","","","","7","","","","","","","","",""
"","","","","","single-stim-button","292","298694","0.0-2.0-56.7-0.7","63d461ae668907ea6006f43f","D2","batch4","","792","tol_tohand","","","","tol_peg_3","792","792","0","[[1,0,0],[3,0],[0]]","8","[[2,3,0],[1,0],[0]]","15","0","","","","","","7","","","","","","","","",""
"","","","","","single-stim-button","293","299678","0.0-2.0-56.7-1.7","63d461ae668907ea6006f43f","D2","batch4","","984","tol_toboard","","","","tol_peg_3","984","984","0","[[1,0,0],[3,0],[2]]","8","[[2,3,0],[1,0],[0]]","15","0","","","","","","7","","","","","","","","",""
"","","","","","single-stim-button","294","302310","0.0-2.0-56.8-0.8","63d461ae668907ea6006f43f","D2","batch4","","2632","tol_tohand","","","","tol_peg_1","2632","2632","0","[[0,0,0],[3,0],[2]]","9","[[2,3,0],[1,0],[0]]","15","0","","","","","","7","","","","","","","","",""
"","","","","","single-stim-button","295","302662","0.0-2.0-56.8-1.8","63d461ae668907ea6006f43f","D2","batch4","","351","tol_toboard","","","","tol_peg_2","351","351","0","[[0,0,0],[3,1],[2]]","9","[[2,3,0],[1,0],[0]]","15","0","","","","","","7","","","","","","","","",""
"","","","","","single-stim-button","296","303015","0.0-2.0-56.9-0.9","63d461ae668907ea6006f43f","D2","batch4","","353","tol_tohand","","","","tol_peg_3","353","353","0","[[0,0,0],[3,1],[0]]","10","[[2,3,0],[1,0],[0]]","15","0","","","","","","7","","","","","","","","",""
"","","","","","single-stim-button","297","303462","0.0-2.0-56.9-1.9","63d461ae668907ea6006f43f","D2","batch4","","447","tol_toboard","","","","tol_peg_1","447","447","0","[[2,0,0],[3,1],[0]]","10","[[2,3,0],[1,0],[0]]","15","0","","","","","","7","","","","","","","","",""
"","","","","","single-stim-button","298","303990","0.0-2.0-56.10-0.10","63d461ae668907ea6006f43f","D2","batch4","","528","tol_tohand","","","","tol_peg_2","528","528","0","[[2,0,0],[3,0],[0]]","11","[[2,3,0],[1,0],[0]]","15","0","","","","","","7","","","","","","","","",""
"","","","","","single-stim-button","299","304335","0.0-2.0-56.10-1.10","63d461ae668907ea6006f43f","D2","batch4","","345","tol_toboard","","","","tol_peg_3","345","345","0","[[2,0,0],[3,0],[1]]","11","[[2,3,0],[1,0],[0]]","15","0","","","","","","7","","","","","","","","",""
"","","","","","single-stim-button","300","304718","0.0-2.0-56.11-0.11","63d461ae668907ea6006f43f","D2","batch4","","383","tol_tohand","","","","tol_peg_2","383","383","0","[[2,0,0],[0,0],[1]]","12","[[2,3,0],[1,0],[0]]","15","0","","","","","","7","","","","","","","","",""
"","","","","","single-stim-button","301","305158","0.0-2.0-56.11-1.11","63d461ae668907ea6006f43f","D2","batch4","","440","tol_toboard","","","","tol_peg_1","440","440","0","[[2,3,0],[0,0],[1]]","12","[[2,3,0],[1,0],[0]]","15","0","","","","","","7","","","","","","","","",""
"","","","","","single-stim-button","302","305879","0.0-2.0-56.12-0.12","63d461ae668907ea6006f43f","D2","batch4","","721","tol_tohand","","","","tol_peg_3","721","721","0","[[2,3,0],[0,0],[0]]","13","[[2,3,0],[1,0],[0]]","15","0","","","","","","7","","","","","","","","",""
"","","","","","single-stim-button","303","306222","0.0-2.0-56.12-1.12","63d461ae668907ea6006f43f","D2","batch4","","343","tol_toboard","","","","tol_peg_2","343","343","0","[[2,3,0],[1,0],[0]]","13","[[2,3,0],[1,0],[0]]","15","0","","","","","","7","","","","","","","","",""
"","","","","","poldrack-single-stim","304","307223","0.0-2.0-57.0","63d461ae668907ea6006f43f","D2","batch4","","-1","tol_feedback","","","true","","1000","1000","500","","","","","","-1","none","true","3752","14404","","","","","","","","","",""
"","","","","","html-button-response","305","307869","0.0-2.0-58.0","63d461ae668907ea6006f43f","D2","batch4","","646.4000000953674","tol_trial_num","<div class = centerbox><p class = center-block-text>problem <strong>17</strong> out of 25 problems</p></div>","0","","","","","","","","","","","","","","","","","","","","","","","","",""
"","","","","","single-stim-button","306","311030","0.0-2.0-59.0-0.0","63d461ae668907ea6006f43f","D2","batch4","","3160","tol_tohand","","","","tol_peg_1","3160","3160","0","[[1,0,0],[3,0],[0]]","1","[[3,1,0],[2,0],[0]]","16","0","","","","","","5","","","","","","","","",""
"","","","","","single-stim-button","307","312310","0.0-2.0-59.0-1.0","63d461ae668907ea6006f43f","D2","batch4","","1279","tol_toboard","","","","tol_peg_3","1279","1279","0","[[1,0,0],[3,0],[2]]","1","[[3,1,0],[2,0],[0]]","16","0","","","","","","5","","","","","","","","",""
"","","","","","single-stim-button","308","314735","0.0-2.0-59.1-0.1","63d461ae668907ea6006f43f","D2","batch4","","2424","tol_tohand","","","","tol_peg_2","2424","2424","0","[[1,0,0],[0,0],[2]]","2","[[3,1,0],[2,0],[0]]","16","0","","","","","","5","","","","","","","","",""
"","","","","","single-stim-button","309","315382","0.0-2.0-59.1-1.1","63d461ae668907ea6006f43f","D2","batch4","","647","tol_toboard","","","","tol_peg_1","647","647","0","[[1,3,0],[0,0],[2]]","2","[[3,1,0],[2,0],[0]]","16","0","","","","","","5","","","","","","","","",""
"","","","","","single-stim-button","310","316150","0.0-2.0-59.2-0.2","63d461ae668907ea6006f43f","D2","batch4","","768","tol_tohand","","","","tol_peg_3","768","768","0","[[1,3,0],[0,0],[0]]","3","[[3,1,0],[2,0],[0]]","16","0","","","","","","5","","","","","","","","",""
"","","","","","single-stim-button","311","316510","0.0-2.0-59.2-1.2","63d461ae668907ea6006f43f","D2","batch4","","360","tol_toboard","","","","tol_peg_2","360","360","0","[[1,3,0],[2,0],[0]]","3","[[3,1,0],[2,0],[0]]","16","0","","","","","","5","","","","","","","","",""
"","","","","","single-stim-button","312","316935","0.0-2.0-59.3-0.3","63d461ae668907ea6006f43f","D2","batch4","","423","tol_tohand","","","","tol_peg_1","423","423","0","[[1,0,0],[2,0],[0]]","4","[[3,1,0],[2,0],[0]]","16","0","","","","","","5","","","","","","","","",""
"","","","","","single-stim-button","313","317390","0.0-2.0-59.3-1.3","63d461ae668907ea6006f43f","D2","batch4","","455","tol_toboard","","","","tol_peg_2","455","455","0","[[1,0,0],[2,3],[0]]","4","[[3,1,0],[2,0],[0]]","16","0","","","","","","5","","","","","","","","",""
"","","","","","single-stim-button","314","318206","0.0-2.0-59.4-0.4","63d461ae668907ea6006f43f","D2","batch4","","816","tol_tohand","","","","tol_peg_1","816","816","0","[[0,0,0],[2,3],[0]]","5","[[3,1,0],[2,0],[0]]","16","0","","","","","","5","","","","","","","","",""
"","","","","","single-stim-button","315","318582","0.0-2.0-59.4-1.4","63d461ae668907ea6006f43f","D2","batch4","","376","tol_toboard","","","","tol_peg_3","376","376","0","[[0,0,0],[2,3],[1]]","5","[[3,1,0],[2,0],[0]]","16","0","","","","","","5","","","","","","","","",""
"","","","","","single-stim-button","316","319110","0.0-2.0-59.5-0.5","63d461ae668907ea6006f43f","D2","batch4","","528","tol_tohand","","","","tol_peg_2","528","528","0","[[0,0,0],[2,0],[1]]","6","[[3,1,0],[2,0],[0]]","16","0","","","","","","5","","","","","","","","",""
"","","","","","single-stim-button","317","320174","0.0-2.0-59.5-1.5","63d461ae668907ea6006f43f","D2","batch4","","1063","tol_toboard","","","","tol_peg_1","1063","1063","0","[[3,0,0],[2,0],[1]]","6","[[3,1,0],[2,0],[0]]","16","0","","","","","","5","","","","","","","","",""
"","","","","","single-stim-button","318","320629","0.0-2.0-59.6-0.6","63d461ae668907ea6006f43f","D2","batch4","","455","tol_tohand","","","","tol_peg_3","455","455","0","[[3,0,0],[2,0],[0]]","7","[[3,1,0],[2,0],[0]]","16","0","","","","","","5","","","","","","","","",""
"","","","","","single-stim-button","319","321254","0.0-2.0-59.6-1.6","63d461ae668907ea6006f43f","D2","batch4","","624","tol_toboard","","","","tol_peg_1","624","624","0","[[3,1,0],[2,0],[0]]","7","[[3,1,0],[2,0],[0]]","16","0","","","","","","5","","","","","","","","",""
"","","","","","poldrack-single-stim","320","322255","0.0-2.0-60.0","63d461ae668907ea6006f43f","D2","batch4","","-1","tol_feedback","","","true","","1000","1000","500","","","","","","-1","none","true","3160","8574","","","","","","","","","",""
"","","","","","html-button-response","321","323126","0.0-2.0-61.0","63d461ae668907ea6006f43f","D2","batch4","","870.3999999761581","tol_trial_num","<div class = centerbox><p class = center-block-text>problem <strong>18</strong> out of 25 problems</p></div>","0","","","","","","","","","","","","","","","","","","","","","","","","",""
"","","","","","single-stim-button","322","324670","0.0-2.0-62.0-0.0","63d461ae668907ea6006f43f","D2","batch4","","1543","tol_tohand","","","","tol_peg_1","1543","1543","0","[[1,0,0],[3,0],[0]]","1","[[3,0,0],[2,0],[1]]","17","0","","","","","","5","","","","","","","","",""
"","","","","","single-stim-button","323","326030","0.0-2.0-62.0-1.0","63d461ae668907ea6006f43f","D2","batch4","","1360","tol_toboard","","","","tol_peg_2","1360","1360","0","[[1,0,0],[3,2],[0]]","1","[[3,0,0],[2,0],[1]]","17","0","","","","","","5","","","","","","","","",""
"","","","","","single-stim-button","324","326462","0.0-2.0-62.1-0.1","63d461ae668907ea6006f43f","D2","batch4","","432","tol_tohand","","","","tol_peg_1","432","432","0","[[0,0,0],[3,2],[0]]","2","[[3,0,0],[2,0],[1]]","17","0","","","","","","5","","","","","","","","",""
"","","","","","single-stim-button","325","327190","0.0-2.0-62.1-1.1","63d461ae668907ea6006f43f","D2","batch4","","728","tol_toboard","","","","tol_peg_3","728","728","0","[[0,0,0],[3,2],[1]]","2","[[3,0,0],[2,0],[1]]","17","0","","","","","","5","","","","","","","","",""
"","","","","","single-stim-button","326","327694","0.0-2.0-62.2-0.2","63d461ae668907ea6006f43f","D2","batch4","","504","tol_tohand","","","","tol_peg_2","504","504","0","[[0,0,0],[3,0],[1]]","3","[[3,0,0],[2,0],[1]]","17","0","","","","","","5","","","","","","","","",""
"","","","","","single-stim-button","327","329046","0.0-2.0-62.2-1.2","63d461ae668907ea6006f43f","D2","batch4","","1352","tol_toboard","","","","tol_peg_1","1352","1352","0","[[2,0,0],[3,0],[1]]","3","[[3,0,0],[2,0],[1]]","17","0","","","","","","5","","","","","","","","",""
"","","","","","single-stim-button","328","330591","0.0-2.0-62.3-0.3","63d461ae668907ea6006f43f","D2","batch4","","1545","tol_tohand","","","","tol_peg_2","1545","1545","0","[[2,0,0],[0,0],[1]]","4","[[3,0,0],[2,0],[1]]","17","0","","","","","","5","","","","","","","","",""
"","","","","","single-stim-button","329","330950","0.0-2.0-62.3-1.3","63d461ae668907ea6006f43f","D2","batch4","","359","tol_toboard","","","","tol_peg_1","359","359","0","[[2,3,0],[0,0],[1]]","4","[[3,0,0],[2,0],[1]]","17","0","","","","","","5","","","","","","","","",""
"","","","","","single-stim-button","330","332110","0.0-2.0-62.4-0.4","63d461ae668907ea6006f43f","D2","batch4","","1160","tol_tohand","","","","tol_peg_3","1160","1160","0","[[2,3,0],[0,0],[0]]","5","[[3,0,0],[2,0],[1]]","17","0","","","","","","5","","","","","","","","",""
"","","","","","single-stim-button","331","332414","0.0-2.0-62.4-1.4","63d461ae668907ea6006f43f","D2","batch4","","304","tol_toboard","","","","tol_peg_2","304","304","0","[[2,3,0],[1,0],[0]]","5","[[3,0,0],[2,0],[1]]","17","0","","","","","","5","","","","","","","","",""
"","","","","","single-stim-button","332","335126","0.0-2.0-62.5-0.5","63d461ae668907ea6006f43f","D2","batch4","","2712","tol_tohand","","","","tol_peg_1","2712","2712","0","[[2,0,0],[1,0],[0]]","6","[[3,0,0],[2,0],[1]]","17","0","","","","","","5","","","","","","","","",""
"","","","","","single-stim-button","333","337990","0.0-2.0-62.5-1.5","63d461ae668907ea6006f43f","D2","batch4","","2864","tol_toboard","","","","tol_peg_2","2864","2864","0","[[2,0,0],[1,3],[0]]","6","[[3,0,0],[2,0],[1]]","17","0","","","","","","5","","","","","","","","",""
"","","","","","single-stim-button","334","338710","0.0-2.0-62.6-0.6","63d461ae668907ea6006f43f","D2","batch4","","720","tol_tohand","","","","tol_peg_1","720","720","0","[[0,0,0],[1,3],[0]]","7","[[3,0,0],[2,0],[1]]","17","0","","","","","","5","","","","","","","","",""
"","","","","","single-stim-button","335","339494","0.0-2.0-62.6-1.6","63d461ae668907ea6006f43f","D2","batch4","","783","tol_toboard","","","","tol_peg_3","783","783","0","[[0,0,0],[1,3],[2]]","7","[[3,0,0],[2,0],[1]]","17","0","","","","","","5","","","","","","","","",""
"","","","","","single-stim-button","336","339910","0.0-2.0-62.7-0.7","63d461ae668907ea6006f43f","D2","batch4","","416","tol_tohand","","","","tol_peg_2","416","416","0","[[0,0,0],[1,0],[2]]","8","[[3,0,0],[2,0],[1]]","17","0","","","","","","5","","","","","","","","",""
"","","","","","single-stim-button","337","340342","0.0-2.0-62.7-1.7","63d461ae668907ea6006f43f","D2","batch4","","432","tol_toboard","","","","tol_peg_1","432","432","0","[[3,0,0],[1,0],[2]]","8","[[3,0,0],[2,0],[1]]","17","0","","","","","","5","","","","","","","","",""
"","","","","","single-stim-button","338","340846","0.0-2.0-62.8-0.8","63d461ae668907ea6006f43f","D2","batch4","","504","tol_tohand","","","","tol_peg_2","504","504","0","[[3,0,0],[0,0],[2]]","9","[[3,0,0],[2,0],[1]]","17","0","","","","","","5","","","","","","","","",""
"","","","","","single-stim-button","339","341150","0.0-2.0-62.8-1.8","63d461ae668907ea6006f43f","D2","batch4","","303","tol_toboard","","","","tol_peg_1","303","303","0","[[3,1,0],[0,0],[2]]","9","[[3,0,0],[2,0],[1]]","17","0","","","","","","5","","","","","","","","",""
"","","","","","single-stim-button","340","341574","0.0-2.0-62.9-0.9","63d461ae668907ea6006f43f","D2","batch4","","423","tol_tohand","","","","tol_peg_3","423","423","0","[[3,1,0],[0,0],[0]]","10","[[3,0,0],[2,0],[1]]","17","0","","","","","","5","","","","","","","","",""
"","","","","","single-stim-button","341","342054","0.0-2.0-62.9-1.9","63d461ae668907ea6006f43f","D2","batch4","","480","tol_toboard","","","","tol_peg_2","480","480","0","[[3,1,0],[2,0],[0]]","10","[[3,0,0],[2,0],[1]]","17","0","","","","","","5","","","","","","","","",""
"","","","","","single-stim-button","342","342414","0.0-2.0-62.10-0.10","63d461ae668907ea6006f43f","D2","batch4","","360","tol_tohand","","","","tol_peg_1","360","360","0","[[3,0,0],[2,0],[0]]","11","[[3,0,0],[2,0],[1]]","17","0","","","","","","5","","","","","","","","",""
"","","","","","single-stim-button","343","342806","0.0-2.0-62.10-1.10","63d461ae668907ea6006f43f","D2","batch4","","392","tol_toboard","","","","tol_peg_3","392","392","0","[[3,0,0],[2,0],[1]]","11","[[3,0,0],[2,0],[1]]","17","0","","","","","","5","","","","","","","","",""
"","","","","","poldrack-single-stim","344","343811","0.0-2.0-63.0","63d461ae668907ea6006f43f","D2","batch4","","-1","tol_feedback","","","true","","1000","1000","500","","","","","","-1","none","true","1543","10319","","","","","","","","","",""
"","","","","","html-button-response","345","344806","0.0-2.0-64.0","63d461ae668907ea6006f43f","D2","batch4","","994.3999999761581","tol_trial_num","<div class = centerbox><p class = center-block-text>problem <strong>19</strong> out of 25 problems</p></div>","0","","","","","","","","","","","","","","","","","","","","","","","","",""
"","","","","","single-stim-button","346","347998","0.0-2.0-65.0-0.0","63d461ae668907ea6006f43f","D2","batch4","","3192","tol_tohand","","","","tol_peg_1","3192","3192","0","[[1,0,0],[3,0],[0]]","1","[[0,0,0],[1,2],[3]]","18","0","","","","","","7","","","","","","","","",""
"","","","","","single-stim-button","347","348878","0.0-2.0-65.0-1.0","63d461ae668907ea6006f43f","D2","batch4","","879","tol_toboard","","","","tol_peg_2","879","879","0","[[1,0,0],[3,2],[0]]","1","[[0,0,0],[1,2],[3]]","18","0","","","","","","7","","","","","","","","",""
"","","","","","single-stim-button","348","349567","0.0-2.0-65.1-0.1","63d461ae668907ea6006f43f","D2","batch4","","688","tol_tohand","","","","tol_peg_1","688","688","0","[[0,0,0],[3,2],[0]]","2","[[0,0,0],[1,2],[3]]","18","0","","","","","","7","","","","","","","","",""
"","","","","","single-stim-button","349","350198","0.0-2.0-65.1-1.1","63d461ae668907ea6006f43f","D2","batch4","","630","tol_toboard","","","","tol_peg_3","630","630","0","[[0,0,0],[3,2],[1]]","2","[[0,0,0],[1,2],[3]]","18","0","","","","","","7","","","","","","","","",""
"","","","","","single-stim-button","350","351222","0.0-2.0-65.2-0.2","63d461ae668907ea6006f43f","D2","batch4","","1023","tol_tohand","","","","tol_peg_2","1023","1023","0","[[0,0,0],[3,0],[1]]","3","[[0,0,0],[1,2],[3]]","18","0","","","","","","7","","","","","","","","",""
"","","","","","single-stim-button","351","351614","0.0-2.0-65.2-1.2","63d461ae668907ea6006f43f","D2","batch4","","392","tol_toboard","","","","tol_peg_1","392","392","0","[[2,0,0],[3,0],[1]]","3","[[0,0,0],[1,2],[3]]","18","0","","","","","","7","","","","","","","","",""
"","","","","","single-stim-button","352","352406","0.0-2.0-65.3-0.3","63d461ae668907ea6006f43f","D2","batch4","","792","tol_tohand","","","","tol_peg_2","792","792","0","[[2,0,0],[0,0],[1]]","4","[[0,0,0],[1,2],[3]]","18","0","","","","","","7","","","","","","","","",""
"","","","","","single-stim-button","353","352742","0.0-2.0-65.3-1.3","63d461ae668907ea6006f43f","D2","batch4","","336","tol_toboard","","","","tol_peg_1","336","336","0","[[2,3,0],[0,0],[1]]","4","[[0,0,0],[1,2],[3]]","18","0","","","","","","7","","","","","","","","",""
"","","","","","single-stim-button","354","353230","0.0-2.0-65.4-0.4","63d461ae668907ea6006f43f","D2","batch4","","488","tol_tohand","","","","tol_peg_3","488","488","0","[[2,3,0],[0,0],[0]]","5","[[0,0,0],[1,2],[3]]","18","0","","","","","","7","","","","","","","","",""
