"success","timeout","failed_images","failed_audio","failed_video","trial_type","trial_index","time_elapsed","internal_node_id","subject_id","study_id","session_id","view_history","rt","stimulus","response","task","correct","answer","item","fiar_detect_rt","fiar_detect_correct","total_correct_fiar_detect","post_trial_gap","choices","spm_correct","spm_rt","mouse_click","stim_duration","block_duration","timing_post_trial","current_position","tol_num_moves_made","tol_target","tol_problem_id","tol_rt","key_press","possible_responses","tol_correct","preplanning","tol_rt_per_trial","tol_min_moves"
"true","false","[]","[]","[]","preload","0","23483","0.0-0.0","63d5a05179cf91a6e6a652cb","A3","batch1","","","","","","","","","","","","","","","","","","","","","","","","","","","","","",""
"true","","","","","fullscreen","1","44606","0.0-1.0-0.0","63d5a05179cf91a6e6a652cb","A3","batch1","","","","","","","","","","","","","","","","","","","","","","","","","","","","","",""
"true","","","","","fullscreen","2","48777","0.0-2.0-0.0","63d5a05179cf91a6e6a652cb","A3","batch1","","","","","","","","","","","","","","","","","","","","","","","","","","","","","",""
"","","","","","instructions","3","80535","0.0-2.0-1.0-0.0","63d5a05179cf91a6e6a652cb","A3","batch1","[{""page_index"":0,""viewing_time"":14389.200000017881},{""page_index"":1,""viewing_time"":17366.90000000596}]","31756.70000001788","","","","","","","","","","","","","","","","","","","","","","","","","","","",""
"","","","","","html-button-response","4","82636","0.0-2.0-1.0-1.0-0.0","63d5a05179cf91a6e6a652cb","A3","batch1","","2098.4000000059605","<p class=block-text> Let's answer a few questions <br>","0","pattern_enter_quiz","","","","","","","","","","","","","","","","","","","","","","","","",""
"","","","","","html-button-response","5","85702","0.0-2.0-1.0-1.0-1.0","63d5a05179cf91a6e6a652cb","A3","batch1","","3063.600000023842","<p class = block-text>True or False: You will have as much time as you want to make each choice. <br></p>","1","pattern_quiz","true","","","","","","","","","","","","","","","","","","","","","","","",""
"","","","","","html-button-response","6","86619","0.0-2.0-1.0-1.0-2.0","63d5a05179cf91a6e6a652cb","A3","batch1","","914","<p class = block-text>Correct! You should make your choice <strong> as fast as you can</strong>.</p>","0","pattern_quiz_feedback","","","","","","","","","","","","","","","","","","","","","","","","",""
"","","","","","html-button-response","7","91469","0.0-2.0-1.0-1.0-3.0","63d5a05179cf91a6e6a652cb","A3","batch1","","4848.699999988079","<p class = block-text>True or False: You will look for 4 pieces in black or white color connected in a row either horizontally, vertically or diagonally. <br></p>","0","pattern_quiz","true","","","","","","","","","","","","","","","","","","","","","","","",""
"","","","","","html-button-response","8","92368","0.0-2.0-1.0-1.0-4.0","63d5a05179cf91a6e6a652cb","A3","batch1","","897.5","<p class = block-text>Correct! </p>","0","pattern_quiz_feedback","","","","","","","","","","","","","","","","","","","","","","","","",""
"","","","","","html-button-response","9","94035","0.0-2.0-2.0","63d5a05179cf91a6e6a652cb","A3","batch1","","1664.0999999940395","<p class=block-text> Now that you've understood the game, let's do a few practice trials before we start!<br> <br>","0","pattern_enter_practice","","","","","","","","","","","","","","","","","","","","","","","","",""
"","","","","","image-keyboard-response","10","99491","0.0-2.0-3.0-0.0","63d5a05179cf91a6e6a652cb","A3","batch1","","5450.299999982119","stim/prac_yes_20_dia_b1.png","f","pattern_practice","true","f","","","","","","","","","","","","","","","","","","","","","","",""
"","","","","","html-keyboard-response","11","100504","0.0-2.0-3.0-1.0","63d5a05179cf91a6e6a652cb","A3","batch1","","null","<p style=""font-size:30px;color:green;"">Correct!</p>","null","pattern_feedback","","","","","","","","","","","","","","","","","","","","","","","","",""
"","","","","","image-keyboard-response","12","101962","0.0-2.0-3.0-0.1","63d5a05179cf91a6e6a652cb","A3","batch1","","1455.5999999940395","stim/prac_no_18_1.png","j","pattern_practice","true","j","","","","","","","","","","","","","","","","","","","","","","",""
"","","","","","html-keyboard-response","13","102984","0.0-2.0-3.0-1.1","63d5a05179cf91a6e6a652cb","A3","batch1","","null","<p style=""font-size:30px;color:green;"">Correct!</p>","null","pattern_feedback","","","","","","","","","","","","","","","","","","","","","","","","",""
"","","","","","image-keyboard-response","14","104185","0.0-2.0-3.0-0.2","63d5a05179cf91a6e6a652cb","A3","batch1","","1198","stim/prac_yes_18_hor_w1.png","f","pattern_practice","true","f","","","","","","","","","","","","","","","","","","","","","","",""
"","","","","","html-keyboard-response","15","105208","0.0-2.0-3.0-1.2","63d5a05179cf91a6e6a652cb","A3","batch1","","null","<p style=""font-size:30px;color:green;"">Correct!</p>","null","pattern_feedback","","","","","","","","","","","","","","","","","","","","","","","","",""
"","","","","","image-keyboard-response","16","108176","0.0-2.0-3.0-0.3","63d5a05179cf91a6e6a652cb","A3","batch1","","2965.7000000178814","stim/prac_no_16_1.png","j","pattern_practice","true","j","","","","","","","","","","","","","","","","","","","","","","",""
"","","","","","html-keyboard-response","17","109200","0.0-2.0-3.0-1.3","63d5a05179cf91a6e6a652cb","A3","batch1","","null","<p style=""font-size:30px;color:green;"">Correct!</p>","null","pattern_feedback","","","","","","","","","","","","","","","","","","","","","","","","",""
"","","","","","image-keyboard-response","18","110907","0.0-2.0-3.0-0.4","63d5a05179cf91a6e6a652cb","A3","batch1","","1704.0999999940395","stim/prac_yes_16_ver_w1.png","f","pattern_practice","true","f","","","","","","","","","","","","","","","","","","","","","","",""
"","","","","","html-keyboard-response","19","111927","0.0-2.0-3.0-1.4","63d5a05179cf91a6e6a652cb","A3","batch1","","null","<p style=""font-size:30px;color:green;"">Correct!</p>","null","pattern_feedback","","","","","","","","","","","","","","","","","","","","","","","","",""
"","","","","","html-button-response","20","114302","0.0-2.0-4.0","63d5a05179cf91a6e6a652cb","A3","batch1","","2372.7000000178814","<p class=block-text> Good job! You are done with practice trials!<br>
        You responded correctly on 100% of the trials.<br>
        Press the button below to start official trials. Now you won't see any feedback about your response</p>","0","pattern_enter_official_trials","","","","","","","","","","","","","","","","","","","","","","","","",""
"","","","","","html-keyboard-response","21","115111","0.0-2.0-5.0-0.0","63d5a05179cf91a6e6a652cb","A3","batch1","","null","<p class=block-text>Trial 1 out of 78</p>","null","pattern_show_trial_num","","","","","","","","","","","","","","","","","","","","","","","","",""
"","","","","","image-keyboard-response","22","123057","0.0-2.0-5.0-1.0","63d5a05179cf91a6e6a652cb","A3","batch1","","7942.699999988079","stim/no_67_1.png","j","pattern_response","true","j","pattern_39","7942.699999988079","true","1","","","","","","","","","","","","","","","","","","",""
"","","","","","html-keyboard-response","23","124375","0.0-2.0-5.0-0.1","63d5a05179cf91a6e6a652cb","A3","batch1","","null","<p class=block-text>Trial 2 out of 78</p>","null","pattern_show_trial_num","","","","","","","","","","","","","","","","","","","","","","","","",""
"","","","","","image-keyboard-response","24","129074","0.0-2.0-5.0-1.1","63d5a05179cf91a6e6a652cb","A3","batch1","","4696.0999999940395","stim/no_45_1_w.png","j","pattern_response","true","j","pattern_25","4696.0999999940395","true","2","","","","","","","","","","","","","","","","","","",""
"","","","","","html-keyboard-response","25","130391","0.0-2.0-5.0-0.2","63d5a05179cf91a6e6a652cb","A3","batch1","","null","<p class=block-text>Trial 3 out of 78</p>","null","pattern_show_trial_num","","","","","","","","","","","","","","","","","","","","","","","","",""
"","","","","","image-keyboard-response","26","133283","0.0-2.0-5.0-1.2","63d5a05179cf91a6e6a652cb","A3","batch1","","2888.699999988079","stim/no_30_1_b.png","j","pattern_response","true","j","pattern_13","2888.699999988079","true","3","","","","","","","","","","","","","","","","","","",""
"","","","","","html-keyboard-response","27","134599","0.0-2.0-5.0-0.3","63d5a05179cf91a6e6a652cb","A3","batch1","","null","<p class=block-text>Trial 4 out of 78</p>","null","pattern_show_trial_num","","","","","","","","","","","","","","","","","","","","","","","","",""
"","","","","","image-keyboard-response","28","140126","0.0-2.0-5.0-1.3","63d5a05179cf91a6e6a652cb","A3","batch1","","5523.899999976158","stim/no_43_2_b.png","j","pattern_response","true","j","pattern_23","5523.899999976158","true","4","","","","","","","","","","","","","","","","","","",""
"","","","","","html-keyboard-response","29","141439","0.0-2.0-5.0-0.4","63d5a05179cf91a6e6a652cb","A3","batch1","","null","<p class=block-text>Trial 5 out of 78</p>","null","pattern_show_trial_num","","","","","","","","","","","","","","","","","","","","","","","","",""
"","","","","","image-keyboard-response","30","145821","0.0-2.0-5.0-1.4","63d5a05179cf91a6e6a652cb","A3","batch1","","4378.700000017881","stim/no_25_1_b.png","j","pattern_response","true","j","pattern_09","4378.700000017881","true","5","","","","","","","","","","","","","","","","","","",""
"","","","","","html-keyboard-response","31","147134","0.0-2.0-5.0-0.5","63d5a05179cf91a6e6a652cb","A3","batch1","","null","<p class=block-text>Trial 6 out of 78</p>","null","pattern_show_trial_num","","","","","","","","","","","","","","","","","","","","","","","","",""
"","","","","","image-keyboard-response","32","155020","0.0-2.0-5.0-1.5","63d5a05179cf91a6e6a652cb","A3","batch1","","7882.899999976158","stim/yes_49_hor_w1_b.png","f","pattern_response","true","f","pattern_70","7882.899999976158","true","6","","","","","","","","","","","","","","","","","","",""
"","","","","","html-keyboard-response","33","156334","0.0-2.0-5.0-0.6","63d5a05179cf91a6e6a652cb","A3","batch1","","null","<p class=block-text>Trial 7 out of 78</p>","null","pattern_show_trial_num","","","","","","","","","","","","","","","","","","","","","","","","",""
"","","","","","image-keyboard-response","34","167365","0.0-2.0-5.0-1.6","63d5a05179cf91a6e6a652cb","A3","batch1","","11027.700000017881","stim/yes_63_dia_b1.png","j","pattern_response","false","f","pattern_78","11027.700000017881","false","6","","","","","","","","","","","","","","","","","","",""
"","","","","","html-keyboard-response","35","168686","0.0-2.0-5.0-0.7","63d5a05179cf91a6e6a652cb","A3","batch1","","null","<p class=block-text>Trial 8 out of 78</p>","null","pattern_show_trial_num","","","","","","","","","","","","","","","","","","","","","","","","",""
"","","","","","image-keyboard-response","36","176865","0.0-2.0-5.0-1.7","63d5a05179cf91a6e6a652cb","A3","batch1","","8176.0999999940395","stim/no_58_1_w.png","j","pattern_response","true","j","pattern_35","8176.0999999940395","true","7","","","","","","","","","","","","","","","","","","",""
"","","","","","html-keyboard-response","37","178172","0.0-2.0-5.0-0.8","63d5a05179cf91a6e6a652cb","A3","batch1","","null","<p class=block-text>Trial 9 out of 78</p>","null","pattern_show_trial_num","","","","","","","","","","","","","","","","","","","","","","","","",""
"","","","","","image-keyboard-response","38","179679","0.0-2.0-5.0-1.8","63d5a05179cf91a6e6a652cb","A3","batch1","","1504.4000000059605","stim/yes_26_dia_w2_w.png","f","pattern_response","true","f","pattern_50","1504.4000000059605","true","8","","","","","","","","","","","","","","","","","","",""
"","","","","","html-keyboard-response","39","180997","0.0-2.0-5.0-0.9","63d5a05179cf91a6e6a652cb","A3","batch1","","null","<p class=block-text>Trial 10 out of 78</p>","null","pattern_show_trial_num","","","","","","","","","","","","","","","","","","","","","","","","",""
"","","","","","image-keyboard-response","40","182527","0.0-2.0-5.0-1.9","63d5a05179cf91a6e6a652cb","A3","batch1","","1528.0999999940395","stim/yes_17_ver_b1_b.png","f","pattern_response","true","f","pattern_46","1528.0999999940395","true","9","","","","","","","","","","","","","","","","","","",""
"","","","","","html-keyboard-response","41","183845","0.0-2.0-5.0-0.10","63d5a05179cf91a6e6a652cb","A3","batch1","","null","<p class=block-text>Trial 11 out of 78</p>","null","pattern_show_trial_num","","","","","","","","","","","","","","","","","","","","","","","","",""
"","","","","","image-keyboard-response","42","185322","0.0-2.0-5.0-1.10","63d5a05179cf91a6e6a652cb","A3","batch1","","1473.7999999821186","stim/yes_33_dia_w1_w.png","f","pattern_response","true","f","pattern_56","1473.7999999821186","true","10","","","","","","","","","","","","","","","","","","",""
"","","","","","html-keyboard-response","43","186637","0.0-2.0-5.0-0.11","63d5a05179cf91a6e6a652cb","A3","batch1","","null","<p class=block-text>Trial 12 out of 78</p>","null","pattern_show_trial_num","","","","","","","","","","","","","","","","","","","","","","","","",""
"","","","","","image-keyboard-response","44","192413","0.0-2.0-5.0-1.11","63d5a05179cf91a6e6a652cb","A3","batch1","","5773.200000017881","stim/no_37_2_w.png","j","pattern_response","true","j","pattern_19","5773.200000017881","true","11","","","","","","","","","","","","","","","","","","",""
"","","","","","html-keyboard-response","45","193733","0.0-2.0-5.0-0.12","63d5a05179cf91a6e6a652cb","A3","batch1","","null","<p class=block-text>Trial 13 out of 78</p>","null","pattern_show_trial_num","","","","","","","","","","","","","","","","","","","","","","","","",""
"","","","","","image-keyboard-response","46","202055","0.0-2.0-5.0-1.12","63d5a05179cf91a6e6a652cb","A3","batch1","","8319.5","stim/yes_58_dia_w1_w.png","j","pattern_response","false","f","pattern_76","8319.5","false","11","","","","","","","","","","","","","","","","","","",""
"","","","","","html-keyboard-response","47","203373","0.0-2.0-5.0-0.13","63d5a05179cf91a6e6a652cb","A3","batch1","","null","<p class=block-text>Trial 14 out of 78</p>","null","pattern_show_trial_num","","","","","","","","","","","","","","","","","","","","","","","","",""
"","","","","","image-keyboard-response","48","207547","0.0-2.0-5.0-1.13","63d5a05179cf91a6e6a652cb","A3","batch1","","4171.5999999940395","stim/no_39_1_w.png","j","pattern_response","true","j","pattern_21","4171.5999999940395","true","12","","","","","","","","","","","","","","","","","","",""
"","","","","","html-keyboard-response","49","208860","0.0-2.0-5.0-0.14","63d5a05179cf91a6e6a652cb","A3","batch1","","null","<p class=block-text>Trial 15 out of 78</p>","null","pattern_show_trial_num","","","","","","","","","","","","","","","","","","","","","","","","",""
"","","","","","image-keyboard-response","50","211583","0.0-2.0-5.0-1.14","63d5a05179cf91a6e6a652cb","A3","batch1","","2719.800000011921","stim/no_36_1_b.png","j","pattern_response","true","j","pattern_17","2719.800000011921","true","13","","","","","","","","","","","","","","","","","","",""
"","","","","","html-keyboard-response","51","212900","0.0-2.0-5.0-0.15","63d5a05179cf91a6e6a652cb","A3","batch1","","null","<p class=block-text>Trial 16 out of 78</p>","null","pattern_show_trial_num","","","","","","","","","","","","","","","","","","","","","","","","",""
"","","","","","image-keyboard-response","52","215654","0.0-2.0-5.0-1.15","63d5a05179cf91a6e6a652cb","A3","batch1","","2751.2000000178814","stim/yes_23_ver_b1.png","j","pattern_response","false","f","pattern_48","2751.2000000178814","false","13","","","","","","","","","","","","","","","","","","",""
"","","","","","html-keyboard-response","53","216972","0.0-2.0-5.0-0.16","63d5a05179cf91a6e6a652cb","A3","batch1","","null","<p class=block-text>Trial 17 out of 78</p>","null","pattern_show_trial_num","","","","","","","","","","","","","","","","","","","","","","","","",""
"","","","","","image-keyboard-response","54","223746","0.0-2.0-5.0-1.16","63d5a05179cf91a6e6a652cb","A3","batch1","","6770.5999999940395","stim/no_51_1.png","j","pattern_response","true","j","pattern_31","6770.5999999940395","true","14","","","","","","","","","","","","","","","","","","",""
"","","","","","html-keyboard-response","55","225060","0.0-2.0-5.0-0.17","63d5a05179cf91a6e6a652cb","A3","batch1","","null","<p class=block-text>Trial 18 out of 78</p>","null","pattern_show_trial_num","","","","","","","","","","","","","","","","","","","","","","","","",""
"","","","","","image-keyboard-response","56","237002","0.0-2.0-5.0-1.17","63d5a05179cf91a6e6a652cb","A3","batch1","","11939.59999999404","stim/yes_46_ver_b1_b.png","f","pattern_response","true","f","pattern_68","11939.59999999404","true","15","","","","","","","","","","","","","","","","","","",""
"","","","","","html-keyboard-response","57","238315","0.0-2.0-5.0-0.18","63d5a05179cf91a6e6a652cb","A3","batch1","","null","<p class=block-text>Trial 19 out of 78</p>","null","pattern_show_trial_num","","","","","","","","","","","","","","","","","","","","","","","","",""
"","","","","","image-keyboard-response","58","241222","0.0-2.0-5.0-1.18","63d5a05179cf91a6e6a652cb","A3","batch1","","2903.2000000178814","stim/no_22_1_b.png","j","pattern_response","true","j","pattern_07","2903.2000000178814","true","16","","","","","","","","","","","","","","","","","","",""
"","","","","","html-keyboard-response","59","242539","0.0-2.0-5.0-0.19","63d5a05179cf91a6e6a652cb","A3","batch1","","null","<p class=block-text>Trial 20 out of 78</p>","null","pattern_show_trial_num","","","","","","","","","","","","","","","","","","","","","","","","",""
"","","","","","image-keyboard-response","60","248932","0.0-2.0-5.0-1.19","63d5a05179cf91a6e6a652cb","A3","batch1","","6390.200000017881","stim/no_53_1_b.png","j","pattern_response","true","j","pattern_33","6390.200000017881","true","17","","","","","","","","","","","","","","","","","","",""
"","","","","","html-keyboard-response","61","250251","0.0-2.0-5.0-0.20","63d5a05179cf91a6e6a652cb","A3","batch1","","null","<p class=block-text>Trial 21 out of 78</p>","null","pattern_show_trial_num","","","","","","","","","","","","","","","","","","","","","","","","",""
"","","","","","image-keyboard-response","62","251628","0.0-2.0-5.0-1.20","63d5a05179cf91a6e6a652cb","A3","batch1","","1374","stim/yes_12_hor_w1_w.png","f","pattern_response","true","f","pattern_42","1374","true","18","","","","","","","","","","","","","","","","","","",""
"","","","","","html-keyboard-response","63","252947","0.0-2.0-5.0-0.21","63d5a05179cf91a6e6a652cb","A3","batch1","","null","<p class=block-text>Trial 22 out of 78</p>","null","pattern_show_trial_num","","","","","","","","","","","","","","","","","","","","","","","","",""
"","","","","","image-keyboard-response","64","255698","0.0-2.0-5.0-1.21","63d5a05179cf91a6e6a652cb","A3","batch1","","2749.2000000178814","stim/no_18_1_b.png","j","pattern_response","true","j","pattern_05","2749.2000000178814","true","19","","","","","","","","","","","","","","","","","","",""
"","","","","","html-keyboard-response","65","257019","0.0-2.0-5.0-0.22","63d5a05179cf91a6e6a652cb","A3","batch1","","null","<p class=block-text>Trial 23 out of 78</p>","null","pattern_show_trial_num","","","","","","","","","","","","","","","","","","","","","","","","",""
"","","","","","image-keyboard-response","66","258482","0.0-2.0-5.0-1.22","63d5a05179cf91a6e6a652cb","A3","batch1","","1459.6000000238419","stim/yes_39_hor_w1_w.png","f","pattern_response","true","f","pattern_62","1459.6000000238419","true","20","","","","","","","","","","","","","","","","","","",""
"","","","","","html-keyboard-response","67","259795","0.0-2.0-5.0-0.23","63d5a05179cf91a6e6a652cb","A3","batch1","","null","<p class=block-text>Trial 24 out of 78</p>","null","pattern_show_trial_num","","","","","","","","","","","","","","","","","","","","","","","","",""
"","","","","","image-keyboard-response","68","261690","0.0-2.0-5.0-1.23","63d5a05179cf91a6e6a652cb","A3","batch1","","1892.0999999940395","stim/yes_42_dia_w1_w.png","f","pattern_response","true","f","pattern_64","1892.0999999940395","true","21","","","","","","","","","","","","","","","","","","",""
"","","","","","html-keyboard-response","69","262999","0.0-2.0-5.0-0.24","63d5a05179cf91a6e6a652cb","A3","batch1","","null","<p class=block-text>Trial 25 out of 78</p>","null","pattern_show_trial_num","","","","","","","","","","","","","","","","","","","","","","","","",""
"","","","","","image-keyboard-response","70","266754","0.0-2.0-5.0-1.24","63d5a05179cf91a6e6a652cb","A3","batch1","","3753","stim/yes_44_ver_w1_w.png","j","pattern_response","false","f","pattern_66","3753","false","21","","","","","","","","","","","","","","","","","","",""
"","","","","","html-keyboard-response","71","268075","0.0-2.0-5.0-0.25","63d5a05179cf91a6e6a652cb","A3","batch1","","null","<p class=block-text>Trial 26 out of 78</p>","null","pattern_show_trial_num","","","","","","","","","","","","","","","","","","","","","","","","",""
"","","","","","image-keyboard-response","72","269197","0.0-2.0-5.0-1.25","63d5a05179cf91a6e6a652cb","A3","batch1","","1119.300000011921","stim/no_12_1.png","j","pattern_response","true","j","pattern_01","1119.300000011921","true","22","","","","","","","","","","","","","","","","","","",""
"","","","","","html-keyboard-response","73","270512","0.0-2.0-5.0-0.26","63d5a05179cf91a6e6a652cb","A3","batch1","","null","<p class=block-text>Trial 27 out of 78</p>","null","pattern_show_trial_num","","","","","","","","","","","","","","","","","","","","","","","","",""
"","","","","","image-keyboard-response","74","271676","0.0-2.0-5.0-1.26","63d5a05179cf91a6e6a652cb","A3","batch1","","1160.9000000059605","stim/no_15_1_w.png","j","pattern_response","true","j","pattern_03","1160.9000000059605","true","23","","","","","","","","","","","","","","","","","","",""
"","","","","","html-keyboard-response","75","272993","0.0-2.0-5.0-0.27","63d5a05179cf91a6e6a652cb","A3","batch1","","null","<p class=block-text>Trial 28 out of 78</p>","null","pattern_show_trial_num","","","","","","","","","","","","","","","","","","","","","","","","",""
"","","","","","image-keyboard-response","76","274763","0.0-2.0-5.0-1.27","63d5a05179cf91a6e6a652cb","A3","batch1","","1767.5999999940395","stim/yes_51_dia_b1.png","f","pattern_response","true","f","pattern_72","1767.5999999940395","true","24","","","","","","","","","","","","","","","","","","",""
"","","","","","html-keyboard-response","77","276082","0.0-2.0-5.0-0.28","63d5a05179cf91a6e6a652cb","A3","batch1","","null","<p class=block-text>Trial 29 out of 78</p>","null","pattern_show_trial_num","","","","","","","","","","","","","","","","","","","","","","","","",""
"","","","","","image-keyboard-response","78","277063","0.0-2.0-5.0-1.28","63d5a05179cf91a6e6a652cb","A3","batch1","","978","stim/yes_15_dia_b1u_b.png","f","pattern_response","true","f","pattern_44","978","true","25","","","","","","","","","","","","","","","","","","",""
"","","","","","html-keyboard-response","79","278378","0.0-2.0-5.0-0.29","63d5a05179cf91a6e6a652cb","A3","batch1","","null","<p class=block-text>Trial 30 out of 78</p>","null","pattern_show_trial_num","","","","","","","","","","","","","","","","","","","","","","","","",""
"","","","","","image-keyboard-response","80","282905","0.0-2.0-5.0-1.29","63d5a05179cf91a6e6a652cb","A3","batch1","","4524.200000017881","stim/yes_53_ver_b1_b.png","j","pattern_response","false","f","pattern_74","4524.200000017881","false","25","","","","","","","","","","","","","","","","","","",""
"","","","","","html-keyboard-response","81","284218","0.0-2.0-5.0-0.30","63d5a05179cf91a6e6a652cb","A3","batch1","","null","<p class=block-text>Trial 31 out of 78</p>","null","pattern_show_trial_num","","","","","","","","","","","","","","","","","","","","","","","","",""
"","","","","","image-keyboard-response","82","285913","0.0-2.0-5.0-1.30","63d5a05179cf91a6e6a652cb","A3","batch1","","1692.5","stim/yes_36_ver_w1_w.png","j","pattern_response","false","f","pattern_58","1692.5","false","25","","","","","","","","","","","","","","","","","","",""
"","","","","","html-keyboard-response","83","287234","0.0-2.0-5.0-0.31","63d5a05179cf91a6e6a652cb","A3","batch1","","null","<p class=block-text>Trial 32 out of 78</p>","null","pattern_show_trial_num","","","","","","","","","","","","","","","","","","","","","","","","",""
"","","","","","image-keyboard-response","84","289459","0.0-2.0-5.0-1.31","63d5a05179cf91a6e6a652cb","A3","batch1","","2222.800000011921","stim/no_28_2.png","j","pattern_response","true","j","pattern_11","2222.800000011921","true","26","","","","","","","","","","","","","","","","","","",""
"","","","","","html-keyboard-response","85","290777","0.0-2.0-5.0-0.32","63d5a05179cf91a6e6a652cb","A3","batch1","","null","<p class=block-text>Trial 33 out of 78</p>","null","pattern_show_trial_num","","","","","","","","","","","","","","","","","","","","","","","","",""
"","","","","","image-keyboard-response","86","292575","0.0-2.0-5.0-1.32","63d5a05179cf91a6e6a652cb","A3","batch1","","1795","stim/yes_29_hor_b1_b.png","j","pattern_response","false","f","pattern_52","1795","false","26","","","","","","","","","","","","","","","","","","",""
"","","","","","html-keyboard-response","87","293890","0.0-2.0-5.0-0.33","63d5a05179cf91a6e6a652cb","A3","batch1","","null","<p class=block-text>Trial 34 out of 78</p>","null","pattern_show_trial_num","","","","","","","","","","","","","","","","","","","","","","","","",""
"","","","","","image-keyboard-response","88","295153","0.0-2.0-5.0-1.33","63d5a05179cf91a6e6a652cb","A3","batch1","","1261.1000000238419","stim/yes_37_hor_w1_w.png","f","pattern_response","true","f","pattern_60","1261.1000000238419","true","27","","","","","","","","","","","","","","","","","","",""
"","","","","","html-keyboard-response","89","296474","0.0-2.0-5.0-0.34","63d5a05179cf91a6e6a652cb","A3","batch1","","null","<p class=block-text>Trial 35 out of 78</p>","null","pattern_show_trial_num","","","","","","","","","","","","","","","","","","","","","","","","",""
"","","","","","image-keyboard-response","90","302313","0.0-2.0-5.0-1.34","63d5a05179cf91a6e6a652cb","A3","batch1","","5837.5","stim/yes_70_ver_b1.png","f","pattern_response","true","f","pattern_80","5837.5","true","28","","","","","","","","","","","","","","","","","","",""
"","","","","","html-keyboard-response","91","303634","0.0-2.0-5.0-0.35","63d5a05179cf91a6e6a652cb","A3","batch1","","null","<p class=block-text>Trial 36 out of 78</p>","null","pattern_show_trial_num","","","","","","","","","","","","","","","","","","","","","","","","",""
"","","","","","image-keyboard-response","92","308489","0.0-2.0-5.0-1.35","63d5a05179cf91a6e6a652cb","A3","batch1","","4852.299999982119","stim/no_33_1_b.png","j","pattern_response","true","j","pattern_15","4852.299999982119","true","29","","","","","","","","","","","","","","","","","","",""
"","","","","","html-keyboard-response","93","309807","0.0-2.0-5.0-0.36","63d5a05179cf91a6e6a652cb","A3","batch1","","null","<p class=block-text>Trial 37 out of 78</p>","null","pattern_show_trial_num","","","","","","","","","","","","","","","","","","","","","","","","",""
"","","","","","image-keyboard-response","94","311963","0.0-2.0-5.0-1.36","63d5a05179cf91a6e6a652cb","A3","batch1","","2153.199999988079","stim/yes_30_ver_b1_b.png","j","pattern_response","false","f","pattern_54","2153.199999988079","false","29","","","","","","","","","","","","","","","","","","",""
"","","","","","html-keyboard-response","95","313281","0.0-2.0-5.0-0.37","63d5a05179cf91a6e6a652cb","A3","batch1","","null","<p class=block-text>Trial 38 out of 78</p>","null","pattern_show_trial_num","","","","","","","","","","","","","","","","","","","","","","","","",""
"","","","","","image-keyboard-response","96","318474","0.0-2.0-5.0-1.37","63d5a05179cf91a6e6a652cb","A3","batch1","","5190.4000000059605","stim/no_47_1_b.png","j","pattern_response","true","j","pattern_27","5190.4000000059605","true","30","","","","","","","","","","","","","","","","","","",""
"","","","","","html-keyboard-response","97","319793","0.0-2.0-5.0-0.38","63d5a05179cf91a6e6a652cb","A3","batch1","","null","<p class=block-text>Trial 39 out of 78</p>","null","pattern_show_trial_num","","","","","","","","","","","","","","","","","","","","","","","","",""
"","","","","","image-keyboard-response","98","323721","0.0-2.0-5.0-1.38","63d5a05179cf91a6e6a652cb","A3","batch1","","3924.9000000059605","stim/no_49_2_b.png","j","pattern_response","true","j","pattern_29","3924.9000000059605","true","31","","","","","","","","","","","","","","","","","","",""
"","","","","","image-keyboard-response","99","325754","0.0-2.0-6.0","63d5a05179cf91a6e6a652cb","A3","batch1","","1518.5999999940395","stim/empty_board.png","j","attention_check","true","j","","","","","500","[""f"",""j""]","","","","","","","","","","","","","","","","",""
"","","","","","html-keyboard-response","100","326561","0.0-2.0-7.0-0.0","63d5a05179cf91a6e6a652cb","A3","batch1","","null","<p class=block-text>Trial 40 out of 78</p>","null","pattern_show_trial_num","","","","","","","","","","","","","","","","","","","","","","","","",""
"","","","","","image-keyboard-response","101","343526","0.0-2.0-7.0-1.0","63d5a05179cf91a6e6a652cb","A3","batch1","","16962.20000001788","stim/no_46_1_b.png","j","pattern_response","true","j","pattern_26","16962.20000001788","true","32","","","","","","","","","","","","","","","","","","",""
"","","","","","html-keyboard-response","102","344840","0.0-2.0-7.0-0.1","63d5a05179cf91a6e6a652cb","A3","batch1","","null","<p class=block-text>Trial 41 out of 78</p>","null","pattern_show_trial_num","","","","","","","","","","","","","","","","","","","","","","","","",""
"","","","","","image-keyboard-response","103","392324","0.0-2.0-7.0-1.1","63d5a05179cf91a6e6a652cb","A3","batch1","","47481.59999999404","stim/yes_37_dia_w1.png","j","pattern_response","false","f","pattern_59","47481.59999999404","false","32","","","","","","","","","","","","","","","","","","",""
"","","","","","html-keyboard-response","104","393635","0.0-2.0-7.0-0.2","63d5a05179cf91a6e6a652cb","A3","batch1","","null","<p class=block-text>Trial 42 out of 78</p>","null","pattern_show_trial_num","","","","","","","","","","","","","","","","","","","","","","","","",""
"","","","","","image-keyboard-response","105","400641","0.0-2.0-7.0-1.2","63d5a05179cf91a6e6a652cb","A3","batch1","","7005.699999988079","stim/no_23_1.png","j","pattern_response","true","j","pattern_08","7005.699999988079","true","33","","","","","","","","","","","","","","","","","","",""
"","","","","","html-keyboard-response","106","401958","0.0-2.0-7.0-0.3","63d5a05179cf91a6e6a652cb","A3","batch1","","null","<p class=block-text>Trial 43 out of 78</p>","null","pattern_show_trial_num","","","","","","","","","","","","","","","","","","","","","","","","",""
"","","","","","image-keyboard-response","107","405942","0.0-2.0-7.0-1.3","63d5a05179cf91a6e6a652cb","A3","batch1","","3980.699999988079","stim/no_34_1_b.png","j","pattern_response","true","j","pattern_16","3980.699999988079","true","34","","","","","","","","","","","","","","","","","","",""
"","","","","","html-keyboard-response","108","407262","0.0-2.0-7.0-0.4","63d5a05179cf91a6e6a652cb","A3","batch1","","null","<p class=block-text>Trial 44 out of 78</p>","null","pattern_show_trial_num","","","","","","","","","","","","","","","","","","","","","","","","",""
"","","","","","image-keyboard-response","109","413650","0.0-2.0-7.0-1.4","63d5a05179cf91a6e6a652cb","A3","batch1","","6384.700000017881","stim/no_65_1_b.png","j","pattern_response","true","j","pattern_38","6384.700000017881","true","35","","","","","","","","","","","","","","","","","","",""
"","","","","","html-keyboard-response","110","414966","0.0-2.0-7.0-0.5","63d5a05179cf91a6e6a652cb","A3","batch1","","null","<p class=block-text>Trial 45 out of 78</p>","null","pattern_show_trial_num","","","","","","","","","","","","","","","","","","","","","","","","",""
"","","","","","image-keyboard-response","111","417388","0.0-2.0-7.0-1.5","63d5a05179cf91a6e6a652cb","A3","batch1","","2419","stim/yes_31_hor_b1.png","f","pattern_response","true","f","pattern_55","2419","true","36","","","","","","","","","","","","","","","","","","",""
"","","","","","html-keyboard-response","112","418702","0.0-2.0-7.0-0.6","63d5a05179cf91a6e6a652cb","A3","batch1","","null","<p class=block-text>Trial 46 out of 78</p>","null","pattern_show_trial_num","","","","","","","","","","","","","","","","","","","","","","","","",""
"","","","","","image-keyboard-response","113","426947","0.0-2.0-7.0-1.6","63d5a05179cf91a6e6a652cb","A3","batch1","","8242.299999982119","stim/yes_55_hor_w1_w.png","f","pattern_response","true","f","pattern_75","8242.299999982119","true","37","","","","","","","","","","","","","","","","","","",""
"","","","","","html-keyboard-response","114","428262","0.0-2.0-7.0-0.7","63d5a05179cf91a6e6a652cb","A3","batch1","","null","<p class=block-text>Trial 47 out of 78</p>","null","pattern_show_trial_num","","","","","","","","","","","","","","","","","","","","","","","","",""
"","","","","","image-keyboard-response","115","438440","0.0-2.0-7.0-1.7","63d5a05179cf91a6e6a652cb","A3","batch1","","10175.09999999404","stim/no_55_1_w.png","j","pattern_response","true","j","pattern_34","10175.09999999404","true","38","","","","","","","","","","","","","","","","","","",""
"","","","","","html-keyboard-response","116","439757","0.0-2.0-7.0-0.8","63d5a05179cf91a6e6a652cb","A3","batch1","","null","<p class=block-text>Trial 48 out of 78</p>","null","pattern_show_trial_num","","","","","","","","","","","","","","","","","","","","","","","","",""
"","","","","","image-keyboard-response","117","447113","0.0-2.0-7.0-1.8","63d5a05179cf91a6e6a652cb","A3","batch1","","7353.299999982119","stim/no_44_1.png","j","pattern_response","true","j","pattern_24","7353.299999982119","true","39","","","","","","","","","","","","","","","","","","",""
"","","","","","html-keyboard-response","118","448429","0.0-2.0-7.0-0.9","63d5a05179cf91a6e6a652cb","A3","batch1","","null","<p class=block-text>Trial 49 out of 78</p>","null","pattern_show_trial_num","","","","","","","","","","","","","","","","","","","","","","","","",""
"","","","","","image-keyboard-response","119","453989","0.0-2.0-7.0-1.9","63d5a05179cf91a6e6a652cb","A3","batch1","","5556.700000017881","stim/yes_35_dia_b1.png","f","pattern_response","true","f","pattern_57","5556.700000017881","true","40","","","","","","","","","","","","","","","","","","",""
"","","","","","html-keyboard-response","120","455309","0.0-2.0-7.0-0.10","63d5a05179cf91a6e6a652cb","A3","batch1","","null","<p class=block-text>Trial 50 out of 78</p>","null","pattern_show_trial_num","","","","","","","","","","","","","","","","","","","","","","","","",""
"","","","","","image-keyboard-response","121","459249","0.0-2.0-7.0-1.10","63d5a05179cf91a6e6a652cb","A3","batch1","","3931.699999988079","stim/yes_40_dia_b1_b.png","j","pattern_response","false","f","pattern_63","3931.699999988079","false","40","","","","","","","","","","","","","","","","","","",""
"","","","","","html-keyboard-response","122","460565","0.0-2.0-7.0-0.11","63d5a05179cf91a6e6a652cb","A3","batch1","","null","<p class=block-text>Trial 51 out of 78</p>","null","pattern_show_trial_num","","","","","","","","","","","","","","","","","","","","","","","","",""
"","","","","","image-keyboard-response","123","462505","0.0-2.0-7.0-1.11","63d5a05179cf91a6e6a652cb","A3","batch1","","1937.5999999940395","stim/yes_45_hor_b2_b.png","f","pattern_response","true","f","pattern_67","1937.5999999940395","true","41","","","","","","","","","","","","","","","","","","",""
"","","","","","html-keyboard-response","124","463820","0.0-2.0-7.0-0.12","63d5a05179cf91a6e6a652cb","A3","batch1","","null","<p class=block-text>Trial 52 out of 78</p>","null","pattern_show_trial_num","","","","","","","","","","","","","","","","","","","","","","","","",""
"","","","","","image-keyboard-response","125","464914","0.0-2.0-7.0-1.12","63d5a05179cf91a6e6a652cb","A3","batch1","","1090.3999999761581","stim/yes_22_ver_w1.png","f","pattern_response","true","f","pattern_47","1090.3999999761581","true","42","","","","","","","","","","","","","","","","","","",""
"","","","","","html-keyboard-response","126","466228","0.0-2.0-7.0-0.13","63d5a05179cf91a6e6a652cb","A3","batch1","","null","<p class=block-text>Trial 53 out of 78</p>","null","pattern_show_trial_num","","","","","","","","","","","","","","","","","","","","","","","","",""
"","","","","","image-keyboard-response","127","470415","0.0-2.0-7.0-1.13","63d5a05179cf91a6e6a652cb","A3","batch1","","4184.4000000059605","stim/no_52_1.png","j","pattern_response","true","j","pattern_32","4184.4000000059605","true","43","","","","","","","","","","","","","","","","","","",""
"","","","","","html-keyboard-response","128","471730","0.0-2.0-7.0-0.14","63d5a05179cf91a6e6a652cb","A3","batch1","","null","<p class=block-text>Trial 54 out of 78</p>","null","pattern_show_trial_num","","","","","","","","","","","","","","","","","","","","","","","","",""
"","","","","","image-keyboard-response","129","472908","0.0-2.0-7.0-1.14","63d5a05179cf91a6e6a652cb","A3","batch1","","1175.2999999821186","stim/no_26_1_w.png","j","pattern_response","true","j","pattern_10","1175.2999999821186","true","44","","","","","","","","","","","","","","","","","","",""
"","","","","","html-keyboard-response","130","474228","0.0-2.0-7.0-0.15","63d5a05179cf91a6e6a652cb","A3","batch1","","null","<p class=block-text>Trial 55 out of 78</p>","null","pattern_show_trial_num","","","","","","","","","","","","","","","","","","","","","","","","",""
"","","","","","image-keyboard-response","131","476324","0.0-2.0-7.0-1.15","63d5a05179cf91a6e6a652cb","A3","batch1","","2093.5","stim/no_42_1_w.png","j","pattern_response","true","j","pattern_22","2093.5","true","45","","","","","","","","","","","","","","","","","","",""
"","","","","","html-keyboard-response","132","477644","0.0-2.0-7.0-0.16","63d5a05179cf91a6e6a652cb","A3","batch1","","null","<p class=block-text>Trial 56 out of 78</p>","null","pattern_show_trial_num","","","","","","","","","","","","","","","","","","","","","","","","",""
"","","","","","image-keyboard-response","133","483860","0.0-2.0-7.0-1.16","63d5a05179cf91a6e6a652cb","A3","batch1","","6213.4000000059605","stim/yes_67_hor_b1.png","f","pattern_response","true","f","pattern_79","6213.4000000059605","true","46","","","","","","","","","","","","","","","","","","",""
"","","","","","html-keyboard-response","134","485180","0.0-2.0-7.0-0.17","63d5a05179cf91a6e6a652cb","A3","batch1","","null","<p class=block-text>Trial 57 out of 78</p>","null","pattern_show_trial_num","","","","","","","","","","","","","","","","","","","","","","","","",""
"","","","","","image-keyboard-response","135","486989","0.0-2.0-7.0-1.17","63d5a05179cf91a6e6a652cb","A3","batch1","","1805.9000000059605","stim/no_20_1_w.png","j","pattern_response","true","j","pattern_06","1805.9000000059605","true","47","","","","","","","","","","","","","","","","","","",""
"","","","","","html-keyboard-response","136","488308","0.0-2.0-7.0-0.18","63d5a05179cf91a6e6a652cb","A3","batch1","","null","<p class=block-text>Trial 58 out of 78</p>","null","pattern_show_trial_num","","","","","","","","","","","","","","","","","","","","","","","","",""
"","","","","","image-keyboard-response","137","491807","0.0-2.0-7.0-1.18","63d5a05179cf91a6e6a652cb","A3","batch1","","3497","stim/yes_60_ver_b1_b.png","f","pattern_response","true","f","pattern_77","3497","true","48","","","","","","","","","","","","","","","","","","",""
"","","","","","html-keyboard-response","138","493123","0.0-2.0-7.0-0.19","63d5a05179cf91a6e6a652cb","A3","batch1","","null","<p class=block-text>Trial 59 out of 78</p>","null","pattern_show_trial_num","","","","","","","","","","","","","","","","","","","","","","","","",""
"","","","","","image-keyboard-response","139","497759","0.0-2.0-7.0-1.19","63d5a05179cf91a6e6a652cb","A3","batch1","","4633.300000011921","stim/no_70_2.png","j","pattern_response","true","j","pattern_40","4633.300000011921","true","49","","","","","","","","","","","","","","","","","","",""
"","","","","","html-keyboard-response","140","499075","0.0-2.0-7.0-0.20","63d5a05179cf91a6e6a652cb","A3","batch1","","null","<p class=block-text>Trial 60 out of 78</p>","null","pattern_show_trial_num","","","","","","","","","","","","","","","","","","","","","","","","",""
"","","","","","image-keyboard-response","141","500825","0.0-2.0-7.0-1.20","63d5a05179cf91a6e6a652cb","A3","batch1","","1746","stim/no_38_1_b.png","j","pattern_response","true","j","pattern_20","1746","true","50","","","","","","","","","","","","","","","","","","",""
"","","","","","html-keyboard-response","142","502139","0.0-2.0-7.0-0.21","63d5a05179cf91a6e6a652cb","A3","batch1","","null","<p class=block-text>Trial 61 out of 78</p>","null","pattern_show_trial_num","","","","","","","","","","","","","","","","","","","","","","","","",""
"","","","","","image-keyboard-response","143","511244","0.0-2.0-7.0-1.21","63d5a05179cf91a6e6a652cb","A3","batch1","","9102.5","stim/yes_48_dia_w1_w.png","f","pattern_response","true","f","pattern_69","9102.5","true","51","","","","","","","","","","","","","","","","","","",""
"","","","","","html-keyboard-response","144","512562","0.0-2.0-7.0-0.22","63d5a05179cf91a6e6a652cb","A3","batch1","","null","<p class=block-text>Trial 62 out of 78</p>","null","pattern_show_trial_num","","","","","","","","","","","","","","","","","","","","","","","","",""
"","","","","","image-keyboard-response","145","514012","0.0-2.0-7.0-1.22","63d5a05179cf91a6e6a652cb","A3","batch1","","1447","stim/yes_28_ver_b1.png","f","pattern_response","true","f","pattern_51","1447","true","52","","","","","","","","","","","","","","","","","","",""
"","","","","","html-keyboard-response","146","515331","0.0-2.0-7.0-0.23","63d5a05179cf91a6e6a652cb","A3","batch1","","null","<p class=block-text>Trial 63 out of 78</p>","null","pattern_show_trial_num","","","","","","","","","","","","","","","","","","","","","","","","",""
"","","","","","image-keyboard-response","147","516265","0.0-2.0-7.0-1.23","63d5a05179cf91a6e6a652cb","A3","batch1","","931.7000000178814","stim/yes_17_dia_w1.png","f","pattern_response","true","f","pattern_45","931.7000000178814","true","53","","","","","","","","","","","","","","","","","","",""
"","","","","","html-keyboard-response","148","517579","0.0-2.0-7.0-0.24","63d5a05179cf91a6e6a652cb","A3","batch1","","null","<p class=block-text>Trial 64 out of 78</p>","null","pattern_show_trial_num","","","","","","","","","","","","","","","","","","","","","","","","",""
"","","","","","image-keyboard-response","149","522240","0.0-2.0-7.0-1.24","63d5a05179cf91a6e6a652cb","A3","batch1","","4658.9000000059605","stim/no_36_2_w.png","j","pattern_response","true","j","pattern_18","4658.9000000059605","true","54","","","","","","","","","","","","","","","","","","",""
"","","","","","html-keyboard-response","150","523555","0.0-2.0-7.0-0.25","63d5a05179cf91a6e6a652cb","A3","batch1","","null","<p class=block-text>Trial 65 out of 78</p>","null","pattern_show_trial_num","","","","","","","","","","","","","","","","","","","","","","","","",""
"","","","","","image-keyboard-response","151","527393","0.0-2.0-7.0-1.25","63d5a05179cf91a6e6a652cb","A3","batch1","","3835.0999999940395","stim/yes_50_dia_w1.png","f","pattern_response","true","f","pattern_71","3835.0999999940395","true","55","","","","","","","","","","","","","","","","","","",""
"","","","","","html-keyboard-response","152","528707","0.0-2.0-7.0-0.26","63d5a05179cf91a6e6a652cb","A3","batch1","","null","<p class=block-text>Trial 66 out of 78</p>","null","pattern_show_trial_num","","","","","","","","","","","","","","","","","","","","","","","","",""
"","","","","","image-keyboard-response","153","536930","0.0-2.0-7.0-1.26","63d5a05179cf91a6e6a652cb","A3","batch1","","8220.600000023842","stim/yes_38_hor_b1_b.png","f","pattern_response","true","f","pattern_61","8220.600000023842","true","56","","","","","","","","","","","","","","","","","","",""
"","","","","","html-keyboard-response","154","538250","0.0-2.0-7.0-0.27","63d5a05179cf91a6e6a652cb","A3","batch1","","null","<p class=block-text>Trial 67 out of 78</p>","null","pattern_show_trial_num","","","","","","","","","","","","","","","","","","","","","","","","",""
"","","","","","image-keyboard-response","155","541094","0.0-2.0-7.0-1.27","63d5a05179cf91a6e6a652cb","A3","batch1","","2841.0999999940395","stim/yes_29_ver_w1.png","f","pattern_response","true","f","pattern_53","2841.0999999940395","true","57","","","","","","","","","","","","","","","","","","",""
"","","","","","html-keyboard-response","156","542410","0.0-2.0-7.0-0.28","63d5a05179cf91a6e6a652cb","A3","batch1","","null","<p class=block-text>Trial 68 out of 78</p>","null","pattern_show_trial_num","","","","","","","","","","","","","","","","","","","","","","","","",""
"","","","","","image-keyboard-response","157","543536","0.0-2.0-7.0-1.28","63d5a05179cf91a6e6a652cb","A3","batch1","","1122.8999999761581","stim/no_13_2_b.png","j","pattern_response","true","j","pattern_02","1122.8999999761581","true","58","","","","","","","","","","","","","","","","","","",""
"","","","","","html-keyboard-response","158","544850","0.0-2.0-7.0-0.29","63d5a05179cf91a6e6a652cb","A3","batch1","","null","<p class=block-text>Trial 69 out of 78</p>","null","pattern_show_trial_num","","","","","","","","","","","","","","","","","","","","","","","","",""
"","","","","","image-keyboard-response","159","546431","0.0-2.0-7.0-1.29","63d5a05179cf91a6e6a652cb","A3","batch1","","1578.800000011921","stim/no_17_1_w.png","j","pattern_response","true","j","pattern_04","1578.800000011921","true","59","","","","","","","","","","","","","","","","","","",""
"","","","","","html-keyboard-response","160","547746","0.0-2.0-7.0-0.30","63d5a05179cf91a6e6a652cb","A3","batch1","","null","<p class=block-text>Trial 70 out of 78</p>","null","pattern_show_trial_num","","","","","","","","","","","","","","","","","","","","","","","","",""
"","","","","","image-keyboard-response","161","554251","0.0-2.0-7.0-1.30","63d5a05179cf91a6e6a652cb","A3","batch1","","6502.5","stim/no_48_1_w.png","j","pattern_response","true","j","pattern_28","6502.5","true","60","","","","","","","","","","","","","","","","","","",""
"","","","","","html-keyboard-response","162","555570","0.0-2.0-7.0-0.31","63d5a05179cf91a6e6a652cb","A3","batch1","","null","<p class=block-text>Trial 71 out of 78</p>","null","pattern_show_trial_num","","","","","","","","","","","","","","","","","","","","","","","","",""
"","","","","","image-keyboard-response","163","560865","0.0-2.0-7.0-1.31","63d5a05179cf91a6e6a652cb","A3","batch1","","5292.199999988079","stim/no_62_1_w.png","j","pattern_response","true","j","pattern_36","5292.199999988079","true","61","","","","","","","","","","","","","","","","","","",""
"","","","","","html-keyboard-response","164","562185","0.0-2.0-7.0-0.32","63d5a05179cf91a6e6a652cb","A3","batch1","","null","<p class=block-text>Trial 72 out of 78</p>","null","pattern_show_trial_num","","","","","","","","","","","","","","","","","","","","","","","","",""
"","","","","","image-keyboard-response","165","565370","0.0-2.0-7.0-1.32","63d5a05179cf91a6e6a652cb","A3","batch1","","3181.7999999821186","stim/no_29_1_b.png","j","pattern_response","true","j","pattern_12","3181.7999999821186","true","62","","","","","","","","","","","","","","","","","","",""
"","","","","","html-keyboard-response","166","566689","0.0-2.0-7.0-0.33","63d5a05179cf91a6e6a652cb","A3","batch1","","null","<p class=block-text>Trial 73 out of 78</p>","null","pattern_show_trial_num","","","","","","","","","","","","","","","","","","","","","","","","",""
"","","","","","image-keyboard-response","167","567721","0.0-2.0-7.0-1.33","63d5a05179cf91a6e6a652cb","A3","batch1","","1028.4000000059605","stim/yes_52_ver_w1.png","f","pattern_response","true","f","pattern_73","1028.4000000059605","true","63","","","","","","","","","","","","","","","","","","",""
"","","","","","html-keyboard-response","168","569041","0.0-2.0-7.0-0.34","63d5a05179cf91a6e6a652cb","A3","batch1","","null","<p class=block-text>Trial 74 out of 78</p>","null","pattern_show_trial_num","","","","","","","","","","","","","","","","","","","","","","","","",""
"","","","","","image-keyboard-response","169","570287","0.0-2.0-7.0-1.34","63d5a05179cf91a6e6a652cb","A3","batch1","","1243.4000000059605","stim/yes_14_hor_b1_w.png","f","pattern_response","true","f","pattern_43","1243.4000000059605","true","64","","","","","","","","","","","","","","","","","","",""
"","","","","","html-keyboard-response","170","571601","0.0-2.0-7.0-0.35","63d5a05179cf91a6e6a652cb","A3","batch1","","null","<p class=block-text>Trial 75 out of 78</p>","null","pattern_show_trial_num","","","","","","","","","","","","","","","","","","","","","","","","",""
"","","","","","image-keyboard-response","171","572960","0.0-2.0-7.0-1.35","63d5a05179cf91a6e6a652cb","A3","batch1","","1356.0999999940395","stim/yes_25_hor_b1_b.png","f","pattern_response","true","f","pattern_49","1356.0999999940395","true","65","","","","","","","","","","","","","","","","","","",""
"","","","","","html-keyboard-response","172","574273","0.0-2.0-7.0-0.36","63d5a05179cf91a6e6a652cb","A3","batch1","","null","<p class=block-text>Trial 76 out of 78</p>","null","pattern_show_trial_num","","","","","","","","","","","","","","","","","","","","","","","","",""
"","","","","","image-keyboard-response","173","576672","0.0-2.0-7.0-1.36","63d5a05179cf91a6e6a652cb","A3","batch1","","2396.300000011921","stim/no_32_1_w.png","j","pattern_response","true","j","pattern_14","2396.300000011921","true","66","","","","","","","","","","","","","","","","","","",""
"","","","","","html-keyboard-response","174","577981","0.0-2.0-7.0-0.37","63d5a05179cf91a6e6a652cb","A3","batch1","","null","<p class=block-text>Trial 77 out of 78</p>","null","pattern_show_trial_num","","","","","","","","","","","","","","","","","","","","","","","","",""
"","","","","","image-keyboard-response","175","579821","0.0-2.0-7.0-1.37","63d5a05179cf91a6e6a652cb","A3","batch1","","1836.6000000238419","stim/yes_43_ver_w1_w.png","f","pattern_response","true","f","pattern_65","1836.6000000238419","true","67","","","","","","","","","","","","","","","","","","",""
"","","","","","html-keyboard-response","176","581133","0.0-2.0-7.0-0.38","63d5a05179cf91a6e6a652cb","A3","batch1","","null","<p class=block-text>Trial 78 out of 78</p>","null","pattern_show_trial_num","","","","","","","","","","","","","","","","","","","","","","","","",""
"","","","","","image-keyboard-response","177","583701","0.0-2.0-7.0-1.38","63d5a05179cf91a6e6a652cb","A3","batch1","","2565.4000000059605","stim/no_50_1.png","j","pattern_response","true","j","pattern_30","2565.4000000059605","true","68","","","","","","","","","","","","","","","","","","",""
"","","","","","html-button-response","178","602474","0.0-2.0-8.0","63d5a05179cf91a6e6a652cb","A3","batch1","","18263.59999999404","<p class = block-text>This concludes the 4-in-a-row detection game.Thank you for your responses!<br>
            You responded correctly on 87% of the trials.<br>
            When you are ready, press ""Continue"" button to continue </p>","0","","","","","","","","","","","","","","","","","","","","","","","","","",""
"true","","","","","fullscreen","179","606780","0.0-3.0-0.0","63d5a05179cf91a6e6a652cb","A3","batch1","","","","","spm_fullscreen","","","","","","","","","","","","","","","","","","","","","","","","",""
"","","","","","html-button-response","180","687508","0.0-3.0-1.0","63d5a05179cf91a6e6a652cb","A3","batch1","","80728.40000000596","<p class = block-text><b>Instructions</b> <br>This is a widely used intelligence test in research. <br>In this test, a figure with a missing piece will be presented.<br>Below the figure are alternative pieces to complete the figure, only one of which is correct.<br> Different figures might involve different principles for obtaining the missing piece<br>Your job is to select the most logical piece to complete the figure.</p>","0","","","","","","","","","","","","","","","","","","","","","","","","","",""
"","","","","","html-keyboard-response","181","688311","0.0-3.0-2.0-0.0","63d5a05179cf91a6e6a652cb","A3","batch1","","null","<p class=block-text>Trial 1 out of 60</p>","null","spm_show_trial_num","","","","","","","","","","","","","","","","","","","","","","","","",""
"","","","","","image-button-response","182","697926","0.0-3.0-2.0-1.0","63d5a05179cf91a6e6a652cb","A3","batch1","","9609.90000000596","img/question_1_1.jpeg","3","spm_respsonse","1","4","mat_01","","","","","","1","9609.90000000596","","","","","","","","","","","","","","",""
"","","","","","html-keyboard-response","183","698997","0.0-3.0-2.0-0.1","63d5a05179cf91a6e6a652cb","A3","batch1","","null","<p class=block-text>Trial 2 out of 60</p>","null","spm_show_trial_num","","","","","","","","","","","","","","","","","","","","","","","","",""
"","","","","","image-button-response","184","701659","0.0-3.0-2.0-1.1","63d5a05179cf91a6e6a652cb","A3","batch1","","2657.600000023842","img/question_1_2.jpeg","4","spm_respsonse","1","5","mat_02","","","","","","1","2657.600000023842","","","","","","","","","","","","","","",""
"","","","","","html-keyboard-response","185","702725","0.0-3.0-2.0-0.2","63d5a05179cf91a6e6a652cb","A3","batch1","","null","<p class=block-text>Trial 3 out of 60</p>","null","spm_show_trial_num","","","","","","","","","","","","","","","","","","","","","","","","",""
"","","","","","image-button-response","186","706059","0.0-3.0-2.0-1.2","63d5a05179cf91a6e6a652cb","A3","batch1","","3330","img/question_1_3.jpeg","0","spm_respsonse","1","1","mat_03","","","","","","1","3330","","","","","","","","","","","","","","",""
"","","","","","html-keyboard-response","187","707125","0.0-3.0-2.0-0.3","63d5a05179cf91a6e6a652cb","A3","batch1","","null","<p class=block-text>Trial 4 out of 60</p>","null","spm_show_trial_num","","","","","","","","","","","","","","","","","","","","","","","","",""
"","","","","","image-button-response","188","716843","0.0-3.0-2.0-1.3","63d5a05179cf91a6e6a652cb","A3","batch1","","9713.90000000596","img/question_1_4.jpeg","1","spm_respsonse","1","2","mat_04","","","","","","1","9713.90000000596","","","","","","","","","","","","","","",""
"","","","","","html-keyboard-response","189","717901","0.0-3.0-2.0-0.4","63d5a05179cf91a6e6a652cb","A3","batch1","","null","<p class=block-text>Trial 5 out of 60</p>","null","spm_show_trial_num","","","","","","","","","","","","","","","","","","","","","","","","",""
"","","","","","image-button-response","190","729343","0.0-3.0-2.0-1.4","63d5a05179cf91a6e6a652cb","A3","batch1","","11438.59999999404","img/question_1_5.jpeg","5","spm_respsonse","1","6","mat_05","","","","","","1","11438.59999999404","","","","","","","","","","","","","","",""
"","","","","","html-keyboard-response","191","730412","0.0-3.0-2.0-0.5","63d5a05179cf91a6e6a652cb","A3","batch1","","null","<p class=block-text>Trial 6 out of 60</p>","null","spm_show_trial_num","","","","","","","","","","","","","","","","","","","","","","","","",""
"","","","","","image-button-response","192","737809","0.0-3.0-2.0-1.5","63d5a05179cf91a6e6a652cb","A3","batch1","","7393","img/question_1_6.jpeg","2","spm_respsonse","1","3","mat_06","","","","","","1","7393","","","","","","","","","","","","","","",""
"","","","","","html-keyboard-response","193","738876","0.0-3.0-2.0-0.6","63d5a05179cf91a6e6a652cb","A3","batch1","","null","<p class=block-text>Trial 7 out of 60</p>","null","spm_show_trial_num","","","","","","","","","","","","","","","","","","","","","","","","",""
"","","","","","image-button-response","194","749260","0.0-3.0-2.0-1.6","63d5a05179cf91a6e6a652cb","A3","batch1","","10379.799999982119","img/question_1_7.jpeg","5","spm_respsonse","1","6","mat_07","","","","","","1","10379.799999982119","","","","","","","","","","","","","","",""
"","","","","","html-keyboard-response","195","750324","0.0-3.0-2.0-0.7","63d5a05179cf91a6e6a652cb","A3","batch1","","null","<p class=block-text>Trial 8 out of 60</p>","null","spm_show_trial_num","","","","","","","","","","","","","","","","","","","","","","","","",""
"","","","","","image-button-response","196","757759","0.0-3.0-2.0-1.7","63d5a05179cf91a6e6a652cb","A3","batch1","","7431.600000023842","img/question_1_8.jpeg","5","spm_respsonse","0","2","mat_08","","","","","","0","7431.600000023842","","","","","","","","","","","","","","",""
"","","","","","html-keyboard-response","197","758823","0.0-3.0-2.0-0.8","63d5a05179cf91a6e6a652cb","A3","batch1","","null","<p class=block-text>Trial 9 out of 60</p>","null","spm_show_trial_num","","","","","","","","","","","","","","","","","","","","","","","","",""
"","","","","","image-button-response","198","765843","0.0-3.0-2.0-1.8","63d5a05179cf91a6e6a652cb","A3","batch1","","7015.5999999940395","img/question_1_9.jpeg","0","spm_respsonse","1","1","mat_09","","","","","","1","7015.5999999940395","","","","","","","","","","","","","","",""
"","","","","","html-keyboard-response","199","766903","0.0-3.0-2.0-0.9","63d5a05179cf91a6e6a652cb","A3","batch1","","null","<p class=block-text>Trial 10 out of 60</p>","null","spm_show_trial_num","","","","","","","","","","","","","","","","","","","","","","","","",""
"","","","","","image-button-response","200","774143","0.0-3.0-2.0-1.9","63d5a05179cf91a6e6a652cb","A3","batch1","","7237","img/question_1_10.jpeg","2","spm_respsonse","1","3","mat_10","","","","","","1","7237","","","","","","","","","","","","","","",""
"","","","","","html-keyboard-response","201","775211","0.0-3.0-2.0-0.10","63d5a05179cf91a6e6a652cb","A3","batch1","","null","<p class=block-text>Trial 11 out of 60</p>","null","spm_show_trial_num","","","","","","","","","","","","","","","","","","","","","","","","",""
"","","","","","image-button-response","202","811277","0.0-3.0-2.0-1.10","63d5a05179cf91a6e6a652cb","A3","batch1","","36063.20000001788","img/question_1_11.jpeg","1","spm_respsonse","0","4","mat_11","","","","","","0","36063.20000001788","","","","","","","","","","","","","","",""
"","","","","","html-keyboard-response","203","812345","0.0-3.0-2.0-0.11","63d5a05179cf91a6e6a652cb","A3","batch1","","null","<p class=block-text>Trial 12 out of 60</p>","null","spm_show_trial_num","","","","","","","","","","","","","","","","","","","","","","","","",""
"","","","","","image-button-response","204","829243","0.0-3.0-2.0-1.11","63d5a05179cf91a6e6a652cb","A3","batch1","","16894.59999999404","img/question_1_12.jpeg","1","spm_respsonse","0","5","mat_12","","","","","","0","16894.59999999404","","","","","","","","","","","","","","",""
"","","","","","html-keyboard-response","205","830312","0.0-3.0-2.0-0.12","63d5a05179cf91a6e6a652cb","A3","batch1","","null","<p class=block-text>Trial 13 out of 60</p>","null","spm_show_trial_num","","","","","","","","","","","","","","","","","","","","","","","","",""
"","","","","","image-button-response","206","834027","0.0-3.0-2.0-1.12","63d5a05179cf91a6e6a652cb","A3","batch1","","3711.2000000178814","img/question_2_1.jpeg","1","spm_respsonse","1","2","mat_13","","","","","","1","3711.2000000178814","","","","","","","","","","","","","","",""
"","","","","","html-keyboard-response","207","835091","0.0-3.0-2.0-0.13","63d5a05179cf91a6e6a652cb","A3","batch1","","null","<p class=block-text>Trial 14 out of 60</p>","null","spm_show_trial_num","","","","","","","","","","","","","","","","","","","","","","","","",""
"","","","","","image-button-response","208","841661","0.0-3.0-2.0-1.13","63d5a05179cf91a6e6a652cb","A3","batch1","","6565.800000011921","img/question_2_2.jpeg","5","spm_respsonse","1","6","mat_14","","","","","","1","6565.800000011921","","","","","","","","","","","","","","",""
"","","","","","html-keyboard-response","209","842729","0.0-3.0-2.0-0.14","63d5a05179cf91a6e6a652cb","A3","batch1","","null","<p class=block-text>Trial 15 out of 60</p>","null","spm_show_trial_num","","","","","","","","","","","","","","","","","","","","","","","","",""
"","","","","","image-button-response","210","849161","0.0-3.0-2.0-1.14","63d5a05179cf91a6e6a652cb","A3","batch1","","6428.299999982119","img/question_2_3.jpeg","0","spm_respsonse","1","1","mat_15","","","","","","1","6428.299999982119","","","","","","","","","","","","","","",""
"","","","","","html-keyboard-response","211","850221","0.0-3.0-2.0-0.15","63d5a05179cf91a6e6a652cb","A3","batch1","","null","<p class=block-text>Trial 16 out of 60</p>","null","spm_show_trial_num","","","","","","","","","","","","","","","","","","","","","","","","",""
"","","","","","image-button-response","212","858977","0.0-3.0-2.0-1.15","63d5a05179cf91a6e6a652cb","A3","batch1","","8753.200000017881","img/question_2_4.jpeg","1","spm_respsonse","1","2","mat_16","","","","","","1","8753.200000017881","","","","","","","","","","","","","","",""
"","","","","","html-keyboard-response","213","860046","0.0-3.0-2.0-0.16","63d5a05179cf91a6e6a652cb","A3","batch1","","null","<p class=block-text>Trial 17 out of 60</p>","null","spm_show_trial_num","","","","","","","","","","","","","","","","","","","","","","","","",""
"","","","","","image-button-response","214","864460","0.0-3.0-2.0-1.16","63d5a05179cf91a6e6a652cb","A3","batch1","","4410.5","img/question_2_5.jpeg","0","spm_respsonse","1","1","mat_17","","","","","","1","4410.5","","","","","","","","","","","","","","",""
"","","","","","html-keyboard-response","215","865528","0.0-3.0-2.0-0.17","63d5a05179cf91a6e6a652cb","A3","batch1","","null","<p class=block-text>Trial 18 out of 60</p>","null","spm_show_trial_num","","","","","","","","","","","","","","","","","","","","","","","","",""
"","","","","","image-button-response","216","870328","0.0-3.0-2.0-1.17","63d5a05179cf91a6e6a652cb","A3","batch1","","4796.399999976158","img/question_2_6.jpeg","2","spm_respsonse","1","3","mat_18","","","","","","1","4796.399999976158","","","","","","","","","","","","","","",""
"","","","","","html-keyboard-response","217","871392","0.0-3.0-2.0-0.18","63d5a05179cf91a6e6a652cb","A3","batch1","","null","<p class=block-text>Trial 19 out of 60</p>","null","spm_show_trial_num","","","","","","","","","","","","","","","","","","","","","","","","",""
"","","","","","image-button-response","218","876311","0.0-3.0-2.0-1.18","63d5a05179cf91a6e6a652cb","A3","batch1","","4915.0999999940395","img/question_2_7.jpeg","4","spm_respsonse","1","5","mat_19","","","","","","1","4915.0999999940395","","","","","","","","","","","","","","",""
"","","","","","html-keyboard-response","219","877376","0.0-3.0-2.0-0.19","63d5a05179cf91a6e6a652cb","A3","batch1","","null","<p class=block-text>Trial 20 out of 60</p>","null","spm_show_trial_num","","","","","","","","","","","","","","","","","","","","","","","","",""
"","","","","","image-button-response","220","894078","0.0-3.0-2.0-1.19","63d5a05179cf91a6e6a652cb","A3","batch1","","16698.600000023842","img/question_2_8.jpeg","5","spm_respsonse","1","6","mat_20","","","","","","1","16698.600000023842","","","","","","","","","","","","","","",""
"","","","","","html-keyboard-response","221","895139","0.0-3.0-2.0-0.20","63d5a05179cf91a6e6a652cb","A3","batch1","","null","<p class=block-text>Trial 21 out of 60</p>","null","spm_show_trial_num","","","","","","","","","","","","","","","","","","","","","","","","",""
"","","","","","image-button-response","222","903761","0.0-3.0-2.0-1.20","63d5a05179cf91a6e6a652cb","A3","batch1","","8618.5","img/question_2_9.jpeg","3","spm_respsonse","1","4","mat_21","","","","","","1","8618.5","","","","","","","","","","","","","","",""
"","","","","","html-keyboard-response","223","904829","0.0-3.0-2.0-0.21","63d5a05179cf91a6e6a652cb","A3","batch1","","null","<p class=block-text>Trial 22 out of 60</p>","null","spm_show_trial_num","","","","","","","","","","","","","","","","","","","","","","","","",""
"","","","","","image-button-response","224","925461","0.0-3.0-2.0-1.21","63d5a05179cf91a6e6a652cb","A3","batch1","","20628.5","img/question_2_10.jpeg","1","spm_respsonse","0","3","mat_22","","","","","","0","20628.5","","","","","","","","","","","","","","",""
"","","","","","html-keyboard-response","225","926521","0.0-3.0-2.0-0.22","63d5a05179cf91a6e6a652cb","A3","batch1","","null","<p class=block-text>Trial 23 out of 60</p>","null","spm_show_trial_num","","","","","","","","","","","","","","","","","","","","","","","","",""
"","","","","","image-button-response","226","945862","0.0-3.0-2.0-1.22","63d5a05179cf91a6e6a652cb","A3","batch1","","19338.09999999404","img/question_2_11.jpeg","3","spm_respsonse","1","4","mat_23","","","","","","1","19338.09999999404","","","","","","","","","","","","","","",""
"","","","","","html-keyboard-response","227","946930","0.0-3.0-2.0-0.23","63d5a05179cf91a6e6a652cb","A3","batch1","","null","<p class=block-text>Trial 24 out of 60</p>","null","spm_show_trial_num","","","","","","","","","","","","","","","","","","","","","","","","",""
"","","","","","image-button-response","228","973962","0.0-3.0-2.0-1.23","63d5a05179cf91a6e6a652cb","A3","batch1","","27029","img/question_2_12.jpeg","4","spm_respsonse","1","5","mat_24","","","","","","1","27029","","","","","","","","","","","","","","",""
"","","","","","html-button-response","229","976695","0.0-3.0-3.0","63d5a05179cf91a6e6a652cb","A3","batch1","","2472.2000000178814","<p class = block-text>Attention check: Please choose 1<br></p>","0","attention_check","true","","","","","","","","","","","","","","","","","","","","","","","",""
"","","","","","html-keyboard-response","230","977509","0.0-3.0-4.0-0.0","63d5a05179cf91a6e6a652cb","A3","batch1","","null","<p class=block-text>Trial 25 out of 60</p>","null","spm_show_trial_num","","","","","","","","","","","","","","","","","","","","","","","","",""
"","","","","","image-button-response","231","991445","0.0-3.0-4.0-1.0","63d5a05179cf91a6e6a652cb","A3","batch1","","13932.799999982119","img/question_3_1.jpeg","7","spm_respsonse","1","8","mat_25","","","","","","1","13932.799999982119","","","","","","","","","","","","","","",""
"","","","","","html-keyboard-response","232","992512","0.0-3.0-4.0-0.1","63d5a05179cf91a6e6a652cb","A3","batch1","","null","<p class=block-text>Trial 26 out of 60</p>","null","spm_show_trial_num","","","","","","","","","","","","","","","","","","","","","","","","",""
"","","","","","image-button-response","233","1006795","0.0-3.0-4.0-1.1","63d5a05179cf91a6e6a652cb","A3","batch1","","14279.59999999404","img/question_3_2.jpeg","1","spm_respsonse","1","2","mat_26","","","","","","1","14279.59999999404","","","","","","","","","","","","","","",""
"","","","","","html-keyboard-response","234","1007856","0.0-3.0-4.0-0.2","63d5a05179cf91a6e6a652cb","A3","batch1","","null","<p class=block-text>Trial 27 out of 60</p>","null","spm_show_trial_num","","","","","","","","","","","","","","","","","","","","","","","","",""
"","","","","","image-button-response","235","1032096","0.0-3.0-4.0-1.2","63d5a05179cf91a6e6a652cb","A3","batch1","","24237.69999998808","img/question_3_3.jpeg","0","spm_respsonse","0","3","mat_27","","","","","","0","24237.69999998808","","","","","","","","","","","","","","",""
"","","","","","html-keyboard-response","236","1033163","0.0-3.0-4.0-0.3","63d5a05179cf91a6e6a652cb","A3","batch1","","null","<p class=block-text>Trial 28 out of 60</p>","null","spm_show_trial_num","","","","","","","","","","","","","","","","","","","","","","","","",""
"","","","","","image-button-response","237","1045996","0.0-3.0-4.0-1.3","63d5a05179cf91a6e6a652cb","A3","batch1","","12829","img/question_3_4.jpeg","7","spm_respsonse","1","8","mat_28","","","","","","1","12829","","","","","","","","","","","","","","",""
"","","","","","html-keyboard-response","238","1047065","0.0-3.0-4.0-0.4","63d5a05179cf91a6e6a652cb","A3","batch1","","null","<p class=block-text>Trial 29 out of 60</p>","null","spm_show_trial_num","","","","","","","","","","","","","","","","","","","","","","","","",""
"","","","","","image-button-response","239","1059929","0.0-3.0-4.0-1.4","63d5a05179cf91a6e6a652cb","A3","batch1","","12860.90000000596","img/question_3_5.jpeg","6","spm_respsonse","1","7","mat_29","","","","","","1","12860.90000000596","","","","","","","","","","","","","","",""
"","","","","","html-keyboard-response","240","1060990","0.0-3.0-4.0-0.5","63d5a05179cf91a6e6a652cb","A3","batch1","","null","<p class=block-text>Trial 30 out of 60</p>","null","spm_show_trial_num","","","","","","","","","","","","","","","","","","","","","","","","",""
"","","","","","image-button-response","241","1104681","0.0-3.0-4.0-1.5","63d5a05179cf91a6e6a652cb","A3","batch1","","43689.40000000596","img/question_3_6.jpeg","3","spm_respsonse","1","4","mat_30","","","","","","1","43689.40000000596","","","","","","","","","","","","","","",""
"","","","","","html-keyboard-response","242","1105740","0.0-3.0-4.0-0.6","63d5a05179cf91a6e6a652cb","A3","batch1","","null","<p class=block-text>Trial 31 out of 60</p>","null","spm_show_trial_num","","","","","","","","","","","","","","","","","","","","","","","","",""
"","","","","","image-button-response","243","1126797","0.0-3.0-4.0-1.6","63d5a05179cf91a6e6a652cb","A3","batch1","","21053.69999998808","img/question_3_7.jpeg","4","spm_respsonse","1","5","mat_31","","","","","","1","21053.69999998808","","","","","","","","","","","","","","",""
"","","","","","html-keyboard-response","244","1127860","0.0-3.0-4.0-0.7","63d5a05179cf91a6e6a652cb","A3","batch1","","null","<p class=block-text>Trial 32 out of 60</p>","null","spm_show_trial_num","","","","","","","","","","","","","","","","","","","","","","","","",""
"","","","","","image-button-response","245","1133347","0.0-3.0-4.0-1.7","63d5a05179cf91a6e6a652cb","A3","batch1","","5483.0999999940395","img/question_3_8.jpeg","0","spm_respsonse","1","1","mat_32","","","","","","1","5483.0999999940395","","","","","","","","","","","","","","",""
"","","","","","html-keyboard-response","246","1134415","0.0-3.0-4.0-0.8","63d5a05179cf91a6e6a652cb","A3","batch1","","null","<p class=block-text>Trial 33 out of 60</p>","null","spm_show_trial_num","","","","","","","","","","","","","","","","","","","","","","","","",""
"","","","","","image-button-response","247","1164664","0.0-3.0-4.0-1.8","63d5a05179cf91a6e6a652cb","A3","batch1","","30246.09999999404","img/question_3_9.jpeg","0","spm_respsonse","0","7","mat_33","","","","","","0","30246.09999999404","","","","","","","","","","","","","","",""
"","","","","","html-keyboard-response","248","1165733","0.0-3.0-4.0-0.9","63d5a05179cf91a6e6a652cb","A3","batch1","","null","<p class=block-text>Trial 34 out of 60</p>","null","spm_show_trial_num","","","","","","","","","","","","","","","","","","","","","","","","",""
"","","","","","image-button-response","249","1202081","0.0-3.0-4.0-1.9","63d5a05179cf91a6e6a652cb","A3","batch1","","36345.5","img/question_3_10.jpeg","3","spm_respsonse","0","6","mat_34","","","","","","0","36345.5","","","","","","","","","","","","","","",""
"","","","","","html-keyboard-response","250","1203150","0.0-3.0-4.0-0.10","63d5a05179cf91a6e6a652cb","A3","batch1","","null","<p class=block-text>Trial 35 out of 60</p>","null","spm_show_trial_num","","","","","","","","","","","","","","","","","","","","","","","","",""
"","","","","","image-button-response","251","1231975","0.0-3.0-4.0-1.10","63d5a05179cf91a6e6a652cb","A3","batch1","","28812","img/question_3_11.jpeg","3","spm_respsonse","0","1","mat_35","","","","","","0","28812","","","","","","","","","","","","","","",""
"","","","","","html-keyboard-response","252","1233043","0.0-3.0-4.0-0.11","63d5a05179cf91a6e6a652cb","A3","batch1","","null","<p class=block-text>Trial 36 out of 60</p>","null","spm_show_trial_num","","","","","","","","","","","","","","","","","","","","","","","","",""
"","","","","","image-button-response","253","1283613","0.0-3.0-4.0-1.11","63d5a05179cf91a6e6a652cb","A3","batch1","","50563.40000000596","img/question_3_12.jpeg","3","spm_respsonse","0","2","mat_36","","","","","","0","50563.40000000596","","","","","","","","","","","","","","",""
"","","","","","html-keyboard-response","254","1284681","0.0-3.0-4.0-0.12","63d5a05179cf91a6e6a652cb","A3","batch1","","null","<p class=block-text>Trial 37 out of 60</p>","null","spm_show_trial_num","","","","","","","","","","","","","","","","","","","","","","","","",""
"","","","","","image-button-response","255","1292079","0.0-3.0-4.0-1.12","63d5a05179cf91a6e6a652cb","A3","batch1","","7394.4000000059605","img/question_4_1.jpeg","2","spm_respsonse","1","3","mat_37","","","","","","1","7394.4000000059605","","","","","","","","","","","","","","",""
"","","","","","html-keyboard-response","256","1293145","0.0-3.0-4.0-0.13","63d5a05179cf91a6e6a652cb","A3","batch1","","null","<p class=block-text>Trial 38 out of 60</p>","null","spm_show_trial_num","","","","","","","","","","","","","","","","","","","","","","","","",""
"","","","","","image-button-response","257","1311130","0.0-3.0-4.0-1.13","63d5a05179cf91a6e6a652cb","A3","batch1","","17981.40000000596","img/question_4_2.jpeg","5","spm_respsonse","0","4","mat_38","","","","","","0","17981.40000000596","","","","","","","","","","","","","","",""
"","","","","","html-keyboard-response","258","1312196","0.0-3.0-4.0-0.14","63d5a05179cf91a6e6a652cb","A3","batch1","","null","<p class=block-text>Trial 39 out of 60</p>","null","spm_show_trial_num","","","","","","","","","","","","","","","","","","","","","","","","",""
"","","","","","image-button-response","259","1317747","0.0-3.0-4.0-1.14","63d5a05179cf91a6e6a652cb","A3","batch1","","5546.600000023842","img/question_4_3.jpeg","1","spm_respsonse","0","3","mat_39","","","","","","0","5546.600000023842","","","","","","","","","","","","","","",""
"","","","","","html-keyboard-response","260","1318810","0.0-3.0-4.0-0.15","63d5a05179cf91a6e6a652cb","A3","batch1","","null","<p class=block-text>Trial 40 out of 60</p>","null","spm_show_trial_num","","","","","","","","","","","","","","","","","","","","","","","","",""
"","","","","","image-button-response","261","1339280","0.0-3.0-4.0-1.15","63d5a05179cf91a6e6a652cb","A3","batch1","","20467.09999999404","img/question_4_4.jpeg","6","spm_respsonse","1","7","mat_40","","","","","","1","20467.09999999404","","","","","","","","","","","","","","",""
"","","","","","html-keyboard-response","262","1340340","0.0-3.0-4.0-0.16","63d5a05179cf91a6e6a652cb","A3","batch1","","null","<p class=block-text>Trial 41 out of 60</p>","null","spm_show_trial_num","","","","","","","","","","","","","","","","","","","","","","","","",""
"","","","","","image-button-response","263","1359931","0.0-3.0-4.0-1.16","63d5a05179cf91a6e6a652cb","A3","batch1","","19586.70000001788","img/question_4_5.jpeg","7","spm_respsonse","1","8","mat_41","","","","","","1","19586.70000001788","","","","","","","","","","","","","","",""
"","","","","","html-keyboard-response","264","1360999","0.0-3.0-4.0-0.17","63d5a05179cf91a6e6a652cb","A3","batch1","","null","<p class=block-text>Trial 42 out of 60</p>","null","spm_show_trial_num","","","","","","","","","","","","","","","","","","","","","","","","",""
"","","","","","image-button-response","265","1417331","0.0-3.0-4.0-1.17","63d5a05179cf91a6e6a652cb","A3","batch1","","56329.59999999404","img/question_4_6.jpeg","5","spm_respsonse","1","6","mat_42","","","","","","1","56329.59999999404","","","","","","","","","","","","","","",""
"","","","","","html-keyboard-response","266","1418398","0.0-3.0-4.0-0.18","63d5a05179cf91a6e6a652cb","A3","batch1","","null","<p class=block-text>Trial 43 out of 60</p>","null","spm_show_trial_num","","","","","","","","","","","","","","","","","","","","","","","","",""
"","","","","","image-button-response","267","1539351","0.0-3.0-4.0-1.18","63d5a05179cf91a6e6a652cb","A3","batch1","","120952.30000001192","img/question_4_7.jpeg","7","spm_respsonse","0","5","mat_43","","","","","","0","120952.30000001192","","","","","","","","","","","","","","",""
"","","","","","html-keyboard-response","268","1540419","0.0-3.0-4.0-0.19","63d5a05179cf91a6e6a652cb","A3","batch1","","null","<p class=block-text>Trial 44 out of 60</p>","null","spm_show_trial_num","","","","","","","","","","","","","","","","","","","","","","","","",""
"","","","","","image-button-response","269","1578051","0.0-3.0-4.0-1.19","63d5a05179cf91a6e6a652cb","A3","batch1","","37629.40000000596","img/question_4_8.jpeg","3","spm_respsonse","1","4","mat_44","","","","","","1","37629.40000000596","","","","","","","","","","","","","","",""
"","","","","","html-keyboard-response","270","1579119","0.0-3.0-4.0-0.20","63d5a05179cf91a6e6a652cb","A3","batch1","","null","<p class=block-text>Trial 45 out of 60</p>","null","spm_show_trial_num","","","","","","","","","","","","","","","","","","","","","","","","",""
"","","","","","image-button-response","271","1601685","0.0-3.0-4.0-1.20","63d5a05179cf91a6e6a652cb","A3","batch1","","22562","img/question_4_9.jpeg","7","spm_respsonse","0","1","mat_45","","","","","","0","22562","","","","","","","","","","","","","","",""
"","","","","","html-keyboard-response","272","1602745","0.0-3.0-4.0-0.21","63d5a05179cf91a6e6a652cb","A3","batch1","","null","<p class=block-text>Trial 46 out of 60</p>","null","spm_show_trial_num","","","","","","","","","","","","","","","","","","","","","","","","",""
"","","","","","image-button-response","273","1649319","0.0-3.0-4.0-1.21","63d5a05179cf91a6e6a652cb","A3","batch1","","46572.10000002384","img/question_4_10.jpeg","4","spm_respsonse","0","2","mat_46","","","","","","0","46572.10000002384","","","","","","","","","","","","","","",""
"","","","","","html-keyboard-response","274","1650382","0.0-3.0-4.0-0.22","63d5a05179cf91a6e6a652cb","A3","batch1","","null","<p class=block-text>Trial 47 out of 60</p>","null","spm_show_trial_num","","","","","","","","","","","","","","","","","","","","","","","","",""
"","","","","","image-button-response","275","1687086","0.0-3.0-4.0-1.22","63d5a05179cf91a6e6a652cb","A3","batch1","","36701.5","img/question_4_11.jpeg","6","spm_respsonse","0","5","mat_47","","","","","","0","36701.5","","","","","","","","","","","","","","",""
"","","","","","html-keyboard-response","276","1688146","0.0-3.0-4.0-0.23","63d5a05179cf91a6e6a652cb","A3","batch1","","null","<p class=block-text>Trial 48 out of 60</p>","null","spm_show_trial_num","","","","","","","","","","","","","","","","","","","","","","","","",""
"","","","","","image-button-response","277","1699669","0.0-3.0-4.0-1.23","63d5a05179cf91a6e6a652cb","A3","batch1","","11519.40000000596","img/question_4_12.jpeg","5","spm_respsonse","1","6","mat_48","","","","","","1","11519.40000000596","","","","","","","","","","","","","","",""
"","","","","","html-keyboard-response","278","1700730","0.0-3.0-4.0-0.24","63d5a05179cf91a6e6a652cb","A3","batch1","","null","<p class=block-text>Trial 49 out of 60</p>","null","spm_show_trial_num","","","","","","","","","","","","","","","","","","","","","","","","",""
"","","","","","image-button-response","279","1708003","0.0-3.0-4.0-1.24","63d5a05179cf91a6e6a652cb","A3","batch1","","7269.200000017881","img/question_5_1.jpeg","6","spm_respsonse","1","7","mat_49","","","","","","1","7269.200000017881","","","","","","","","","","","","","","",""
"","","","","","html-keyboard-response","280","1709070","0.0-3.0-4.0-0.25","63d5a05179cf91a6e6a652cb","A3","batch1","","null","<p class=block-text>Trial 50 out of 60</p>","null","spm_show_trial_num","","","","","","","","","","","","","","","","","","","","","","","","",""
"","","","","","image-button-response","281","1765020","0.0-3.0-4.0-1.25","63d5a05179cf91a6e6a652cb","A3","batch1","","55947.30000001192","img/question_5_2.jpeg","5","spm_respsonse","1","6","mat_50","","","","","","1","55947.30000001192","","","","","","","","","","","","","","",""
"","","","","","html-keyboard-response","282","1766081","0.0-3.0-4.0-0.26","63d5a05179cf91a6e6a652cb","A3","batch1","","null","<p class=block-text>Trial 51 out of 60</p>","null","spm_show_trial_num","","","","","","","","","","","","","","","","","","","","","","","","",""
"","","","","","image-button-response","283","1772154","0.0-3.0-4.0-1.26","63d5a05179cf91a6e6a652cb","A3","batch1","","6070.0999999940395","img/question_5_3.jpeg","5","spm_respsonse","0","8","mat_51","","","","","","0","6070.0999999940395","","","","","","","","","","","","","","",""
"","","","","","html-keyboard-response","284","1773220","0.0-3.0-4.0-0.27","63d5a05179cf91a6e6a652cb","A3","batch1","","null","<p class=block-text>Trial 52 out of 60</p>","null","spm_show_trial_num","","","","","","","","","","","","","","","","","","","","","","","","",""
"","","","","","image-button-response","285","1785054","0.0-3.0-4.0-1.27","63d5a05179cf91a6e6a652cb","A3","batch1","","11830","img/question_5_4.jpeg","1","spm_respsonse","1","2","mat_52","","","","","","1","11830","","","","","","","","","","","","","","",""
"","","","","","html-keyboard-response","286","1786124","0.0-3.0-4.0-0.28","63d5a05179cf91a6e6a652cb","A3","batch1","","null","<p class=block-text>Trial 53 out of 60</p>","null","spm_show_trial_num","","","","","","","","","","","","","","","","","","","","","","","","",""
"","","","","","image-button-response","287","1818388","0.0-3.0-4.0-1.28","63d5a05179cf91a6e6a652cb","A3","batch1","","32260.90000000596","img/question_5_5.jpeg","5","spm_respsonse","0","1","mat_53","","","","","","0","32260.90000000596","","","","","","","","","","","","","","",""
"","","","","","html-keyboard-response","288","1819459","0.0-3.0-4.0-0.29","63d5a05179cf91a6e6a652cb","A3","batch1","","null","<p class=block-text>Trial 54 out of 60</p>","null","spm_show_trial_num","","","","","","","","","","","","","","","","","","","","","","","","",""
"","","","","","image-button-response","289","1833955","0.0-3.0-4.0-1.29","63d5a05179cf91a6e6a652cb","A3","batch1","","14491.90000000596","img/question_5_6.jpeg","6","spm_respsonse","0","5","mat_54","","","","","","0","14491.90000000596","","","","","","","","","","","","","","",""
"","","","","","html-keyboard-response","290","1835023","0.0-3.0-4.0-0.30","63d5a05179cf91a6e6a652cb","A3","batch1","","null","<p class=block-text>Trial 55 out of 60</p>","null","spm_show_trial_num","","","","","","","","","","","","","","","","","","","","","","","","",""
"","","","","","image-button-response","291","1846922","0.0-3.0-4.0-1.30","63d5a05179cf91a6e6a652cb","A3","batch1","","11894.90000000596","img/question_5_7.jpeg","2","spm_respsonse","0","1","mat_55","","","","","","0","11894.90000000596","","","","","","","","","","","","","","",""
"","","","","","html-keyboard-response","292","1847986","0.0-3.0-4.0-0.31","63d5a05179cf91a6e6a652cb","A3","batch1","","null","<p class=block-text>Trial 56 out of 60</p>","null","spm_show_trial_num","","","","","","","","","","","","","","","","","","","","","","","","",""
"","","","","","image-button-response","293","1904322","0.0-3.0-4.0-1.31","63d5a05179cf91a6e6a652cb","A3","batch1","","56333.29999998212","img/question_5_8.jpeg","1","spm_respsonse","0","6","mat_56","","","","","","0","56333.29999998212","","","","","","","","","","","","","","",""
"","","","","","html-keyboard-response","294","1905387","0.0-3.0-4.0-0.32","63d5a05179cf91a6e6a652cb","A3","batch1","","null","<p class=block-text>Trial 57 out of 60</p>","null","spm_show_trial_num","","","","","","","","","","","","","","","","","","","","","","","","",""
"","","","","","image-button-response","295","1912823","0.0-3.0-4.0-1.32","63d5a05179cf91a6e6a652cb","A3","batch1","","7432.600000023842","img/question_5_9.jpeg","7","spm_respsonse","0","3","mat_57","","","","","","0","7432.600000023842","","","","","","","","","","","","","","",""
"","","","","","html-keyboard-response","296","1913887","0.0-3.0-4.0-0.33","63d5a05179cf91a6e6a652cb","A3","batch1","","null","<p class=block-text>Trial 58 out of 60</p>","null","spm_show_trial_num","","","","","","","","","","","","","","","","","","","","","","","","",""
"","","","","","image-button-response","297","1921590","0.0-3.0-4.0-1.33","63d5a05179cf91a6e6a652cb","A3","batch1","","7699.399999976158","img/question_5_10.jpeg","6","spm_respsonse","0","2","mat_58","","","","","","0","7699.399999976158","","","","","","","","","","","","","","",""
"","","","","","html-keyboard-response","298","1922654","0.0-3.0-4.0-0.34","63d5a05179cf91a6e6a652cb","A3","batch1","","null","<p class=block-text>Trial 59 out of 60</p>","null","spm_show_trial_num","","","","","","","","","","","","","","","","","","","","","","","","",""
"","","","","","image-button-response","299","1928023","0.0-3.0-4.0-1.34","63d5a05179cf91a6e6a652cb","A3","batch1","","5365","img/question_5_11.jpeg","0","spm_respsonse","0","4","mat_59","","","","","","0","5365","","","","","","","","","","","","","","",""
"","","","","","html-keyboard-response","300","1929084","0.0-3.0-4.0-0.35","63d5a05179cf91a6e6a652cb","A3","batch1","","null","<p class=block-text>Trial 60 out of 60</p>","null","spm_show_trial_num","","","","","","","","","","","","","","","","","","","","","","","","",""
"","","","","","image-button-response","301","1941656","0.0-3.0-4.0-1.35","63d5a05179cf91a6e6a652cb","A3","batch1","","12568.299999982119","img/question_5_12.jpeg","2","spm_respsonse","0","5","mat_60","","","","","","0","12568.299999982119","","","","","","","","","","","","","","",""
"","","","","","html-button-response","302","1945572","0.0-3.0-5.0","63d5a05179cf91a6e6a652cb","A3","batch1","","3659.2000000178814","<p class= block-text>This concludes the Standard Progressive Matrix game. Thank you for your responses!<br> When you are ready, click the button continue</p>","0","spm_goodbye","","","","","","","","","","","","","","","","","","","","","","","","",""
"true","","","","","fullscreen","303","1949664","0.0-4.0-0.0","63d5a05179cf91a6e6a652cb","A3","batch1","","","","","","","","","","","","","","","","","","","","","","","","","","","","","",""
"","","","","","instructions","304","2039141","0.0-4.0-1.0-0.0-0.0","63d5a05179cf91a6e6a652cb","A3","batch1","[{""page_index"":0,""viewing_time"":32308.90000000596},{""page_index"":1,""viewing_time"":9266.40000000596},{""page_index"":2,""viewing_time"":5834},{""page_index"":3,""viewing_time"":9750.59999999404},{""page_index"":4,""viewing_time"":9616.5},{""page_index"":5,""viewing_time"":15534.300000011921},{""page_index"":6,""viewing_time"":7167}]","89478.20000001788","","","tol-instructions","","","","","","","","","","","","","","","","","","","","","","","","",""
"","","","","","html-button-response","305","2040758","0.0-4.0-1.0-1.0-0.0","63d5a05179cf91a6e6a652cb","A3","batch1","","1615","<p class=block-text> Let's answer a few questions <br>","0","tol_enter_quiz","","","","","","","","","","","","","","","","","","","","","","","","",""
"","","","","","html-button-response","306","2045308","0.0-4.0-1.0-1.0-1.0","63d5a05179cf91a6e6a652cb","A3","batch1","","4547.200000017881","<p class = block-text>True or False: You can only move the ball on top of a peg. <br></p>","0","tol_quiz","true","","","","","","","","","","","","","","","","","","","","","","","",""
"","","","","","html-button-response","307","2047841","0.0-4.0-1.0-1.0-2.0","63d5a05179cf91a6e6a652cb","A3","batch1","","2530.2000000178814","<p class = block-text>Correct! You can only move the ball on top of a peg.</p>","0","tol_quiz_feedback","","","","","","","","","","","","","","","","","","","","","","","","",""
"","","","","","html-button-response","308","2053808","0.0-4.0-1.0-1.0-3.0","63d5a05179cf91a6e6a652cb","A3","batch1","","5965.4000000059605","<p class = block-text>True or False: You should try to match your board with the target board with fewest moves possible. <br></p>","0","tol_quiz","true","","","","","","","","","","","","","","","","","","","","","","","",""
"","","","","","html-button-response","309","2054675","0.0-4.0-1.0-1.0-4.0","63d5a05179cf91a6e6a652cb","A3","batch1","","864.4000000059605","<p class = block-text>Correct! </p>","0","tol_quiz_feedback","","","","","","","","","","","","","","","","","","","","","","","","",""
"","","","","","html-button-response","310","2056242","0.0-4.0-2.0","63d5a05179cf91a6e6a652cb","A3","batch1","","1563.6000000238419","<p class=block-text> Now that you've understood the game, let's practice a few easier examples before we start!<br> <br>","0","","","","","","","","","","","","","","","","","","","","","","","","","",""
"","","","","","single-stim-button","311","2071862","0.0-4.0-3.0-0.0","63d5a05179cf91a6e6a652cb","A3","batch1","","15618","","","tol_practice","","","","","","","","","","","tol_peg_1","15618","15618","0","[[1,0,0],[3,0],[0]]","1","[[1,2,0],[0,0],[3]]","practice","15618","","","","","",""
"","","","","","single-stim-button","312","2076359","0.0-4.0-3.0-1.0","63d5a05179cf91a6e6a652cb","A3","batch1","","4495","","","tol_practice","","","","","","","","","","","tol_peg_3","4495","4495","0","[[1,0,0],[3,0],[2]]","1","[[1,2,0],[0,0],[3]]","practice","4495","","","","","",""
"","","","","","single-stim-button","313","2079959","0.0-4.0-3.1-0.1","63d5a05179cf91a6e6a652cb","A3","batch1","","3598","","","tol_practice","","","","","","","","","","","tol_peg_1","3598","3598","0","[[0,0,0],[3,0],[2]]","2","[[1,2,0],[0,0],[3]]","practice","3598","","","","","",""
"","","","","","single-stim-button","314","2081776","0.0-4.0-3.1-1.1","63d5a05179cf91a6e6a652cb","A3","batch1","","1815","","","tol_practice","","","","","","","","","","","tol_peg_2","1815","1815","0","[[0,0,0],[3,1],[2]]","2","[[1,2,0],[0,0],[3]]","practice","1815","","","","","",""
"","","","","","single-stim-button","315","2086659","0.0-4.0-3.2-0.2","63d5a05179cf91a6e6a652cb","A3","batch1","","4882","","","tol_practice","","","","","","","","","","","tol_peg_2","4882","4882","0","[[0,0,0],[3,0],[2]]","3","[[1,2,0],[0,0],[3]]","practice","4882","","","","","",""
"","","","","","single-stim-button","316","2088309","0.0-4.0-3.2-1.2","63d5a05179cf91a6e6a652cb","A3","batch1","","1649","","","tol_practice","","","","","","","","","","","tol_peg_1","1649","1649","0","[[1,0,0],[3,0],[2]]","3","[[1,2,0],[0,0],[3]]","practice","1649","","","","","",""
"","","","","","single-stim-button","317","2093943","0.0-4.0-3.3-0.3","63d5a05179cf91a6e6a652cb","A3","batch1","","5632","","","tol_practice","","","","","","","","","","","tol_peg_3","5632","5632","0","[[1,0,0],[3,0],[0]]","4","[[1,2,0],[0,0],[3]]","practice","5632","","","","","",""
"","","","","","single-stim-button","318","2094909","0.0-4.0-3.3-1.3","63d5a05179cf91a6e6a652cb","A3","batch1","","966","","","tol_practice","","","","","","","","","","","tol_peg_1","966","966","0","[[1,2,0],[3,0],[0]]","4","[[1,2,0],[0,0],[3]]","practice","966","","","","","",""
"","","","","","single-stim-button","319","2097709","0.0-4.0-3.4-0.4","63d5a05179cf91a6e6a652cb","A3","batch1","","2798","","","tol_practice","","","","","","","","","","","tol_peg_2","2798","2798","0","[[1,2,0],[0,0],[0]]","5","[[1,2,0],[0,0],[3]]","practice","2798","","","","","",""
"","","","","","single-stim-button","320","2098793","0.0-4.0-3.4-1.4","63d5a05179cf91a6e6a652cb","A3","batch1","","1083","","","tol_practice","","","","","","","","","","","tol_peg_3","1083","1083","0","[[1,2,0],[0,0],[3]]","5","[[1,2,0],[0,0],[3]]","practice","1083","","","","","",""
"","","","","","poldrack-single-stim","321","2099804","0.0-4.0-4.0","63d5a05179cf91a6e6a652cb","A3","batch1","","-1","","","tol_feedback","true","","","","","","","","","","","1000","1000","500","","","","","","-1","none","true","","0",""
"","","","","","single-stim-button","322","2105809","0.0-4.0-5.0-0.0","63d5a05179cf91a6e6a652cb","A3","batch1","","6003","","","tol_practice","","","","","","","","","","","tol_peg_1","6003","6003","0","[[1,0,0],[3,0],[0]]","6","[[0,0,0],[3,1],[2]]","practice","6003","","","","","",""
"","","","","","single-stim-button","323","2107326","0.0-4.0-5.0-1.0","63d5a05179cf91a6e6a652cb","A3","batch1","","1514","","","tol_practice","","","","","","","","","","","tol_peg_3","1514","1514","0","[[1,0,0],[3,0],[2]]","6","[[0,0,0],[3,1],[2]]","practice","1514","","","","","",""
"","","","","","single-stim-button","324","2109359","0.0-4.0-5.1-0.1","63d5a05179cf91a6e6a652cb","A3","batch1","","2032","","","tol_practice","","","","","","","","","","","tol_peg_1","2032","2032","0","[[0,0,0],[3,0],[2]]","7","[[0,0,0],[3,1],[2]]","practice","2032","","","","","",""
"","","","","","single-stim-button","325","2110392","0.0-4.0-5.1-1.1","63d5a05179cf91a6e6a652cb","A3","batch1","","1031","","","tol_practice","","","","","","","","","","","tol_peg_2","1031","1031","0","[[0,0,0],[3,1],[2]]","7","[[0,0,0],[3,1],[2]]","practice","1031","","","","","",""
"","","","","","poldrack-single-stim","326","2111393","0.0-4.0-6.0","63d5a05179cf91a6e6a652cb","A3","batch1","","-1","","","tol_feedback","true","","","","","","","","","","","1000","1000","500","","","","","","-1","none","true","","0",""
"","","","","","single-stim-button","327","2117593","0.0-4.0-7.0-0.0","63d5a05179cf91a6e6a652cb","A3","batch1","","6198","","","tol_practice","","","","","","","","","","","tol_peg_2","6198","6198","0","[[1,2,0],[0,0],[0]]","8","[[1,0,0],[2,0],[3]]","practice","6198","","","","","",""
"","","","","","single-stim-button","328","2118893","0.0-4.0-7.0-1.0","63d5a05179cf91a6e6a652cb","A3","batch1","","1298","","","tol_practice","","","","","","","","","","","tol_peg_3","1298","1298","0","[[1,2,0],[0,0],[3]]","8","[[1,0,0],[2,0],[3]]","practice","1298","","","","","",""
"","","","","","single-stim-button","329","2119709","0.0-4.0-7.1-0.1","63d5a05179cf91a6e6a652cb","A3","batch1","","814","","","tol_practice","","","","","","","","","","","tol_peg_1","814","814","0","[[1,0,0],[0,0],[3]]","9","[[1,0,0],[2,0],[3]]","practice","814","","","","","",""
"","","","","","single-stim-button","330","2120426","0.0-4.0-7.1-1.1","63d5a05179cf91a6e6a652cb","A3","batch1","","715","","","tol_practice","","","","","","","","","","","tol_peg_2","715","715","0","[[1,0,0],[2,0],[3]]","9","[[1,0,0],[2,0],[3]]","practice","715","","","","","",""
"","","","","","poldrack-single-stim","331","2121434","0.0-4.0-8.0","63d5a05179cf91a6e6a652cb","A3","batch1","","-1","","","tol_feedback","true","","","","","","","","","","","1000","1000","500","","","","","","-1","none","true","","0",""
"","","","","","html-button-response","332","2124276","0.0-4.0-9.0","63d5a05179cf91a6e6a652cb","A3","batch1","","2840.800000011921","<div class = centerbox><p class = center-block-text>Great job! You are done with practice trials<br>You are about to start official trials.<br> <br> Problem <strong>1</strong> out of 25 problems</p></div>","0","tol_instruction","","","","","","","","","","","","","","","","","","","","","","","","",""
"","","","","","single-stim-button","333","2128343","0.0-4.0-10.0-0.0","63d5a05179cf91a6e6a652cb","A3","batch1","","3062","","","tol_tohand","","","","","","","","","","","tol_peg_2","3062","3062","0","[[1,2,0],[0,0],[0]]","1","[[1,3,0],[2,0],[0]]","0","0","","","","","","3"
"","","","","","single-stim-button","334","2130843","0.0-4.0-10.0-1.0","63d5a05179cf91a6e6a652cb","A3","batch1","","2498","","","tol_toboard","","","","","","","","","","","tol_peg_1","2498","2498","0","[[1,2,3],[0,0],[0]]","1","[[1,3,0],[2,0],[0]]","0","0","","","","","","3"
"","","","","","single-stim-button","335","2133577","0.0-4.0-10.1-0.1","63d5a05179cf91a6e6a652cb","A3","batch1","","2732","","","tol_tohand","","","","","","","","","","","tol_peg_1","2732","2732","0","[[1,2,0],[0,0],[0]]","2","[[1,3,0],[2,0],[0]]","0","0","","","","","","3"
"","","","","","single-stim-button","336","2134243","0.0-4.0-10.1-1.1","63d5a05179cf91a6e6a652cb","A3","batch1","","666","","","tol_toboard","","","","","","","","","","","tol_peg_1","666","666","0","[[1,2,3],[0,0],[0]]","2","[[1,3,0],[2,0],[0]]","0","0","","","","","","3"
"","","","","","single-stim-button","337","2135093","0.0-4.0-10.2-0.2","63d5a05179cf91a6e6a652cb","A3","batch1","","848","","","tol_tohand","","","","","","","","","","","tol_peg_1","848","848","0","[[1,2,0],[0,0],[0]]","3","[[1,3,0],[2,0],[0]]","0","0","","","","","","3"
"","","","","","single-stim-button","338","2136743","0.0-4.0-10.2-1.2","63d5a05179cf91a6e6a652cb","A3","batch1","","1648","","","tol_toboard","","","","","","","","","","","tol_peg_2","1648","1648","0","[[1,2,0],[3,0],[0]]","3","[[1,3,0],[2,0],[0]]","0","0","","","","","","3"
"","","","","","single-stim-button","339","2137410","0.0-4.0-10.3-0.3","63d5a05179cf91a6e6a652cb","A3","batch1","","665","","","tol_tohand","","","","","","","","","","","tol_peg_1","665","665","0","[[1,0,0],[3,0],[0]]","4","[[1,3,0],[2,0],[0]]","0","0","","","","","","3"
"","","","","","single-stim-button","340","2143393","0.0-4.0-10.3-1.3","63d5a05179cf91a6e6a652cb","A3","batch1","","5983","","","tol_toboard","","","","","","","","","","","tol_peg_3","5983","5983","0","[[1,0,0],[3,0],[2]]","4","[[1,3,0],[2,0],[0]]","0","0","","","","","","3"
"","","","","","single-stim-button","341","2145660","0.0-4.0-10.4-0.4","63d5a05179cf91a6e6a652cb","A3","batch1","","2264","","","tol_tohand","","","","","","","","","","","tol_peg_2","2264","2264","0","[[1,0,0],[0,0],[2]]","5","[[1,3,0],[2,0],[0]]","0","0","","","","","","3"
"","","","","","single-stim-button","342","2146493","0.0-4.0-10.4-1.4","63d5a05179cf91a6e6a652cb","A3","batch1","","831","","","tol_toboard","","","","","","","","","","","tol_peg_1","831","831","0","[[1,3,0],[0,0],[2]]","5","[[1,3,0],[2,0],[0]]","0","0","","","","","","3"
"","","","","","single-stim-button","343","2148477","0.0-4.0-10.5-0.5","63d5a05179cf91a6e6a652cb","A3","batch1","","1982","","","tol_tohand","","","","","","","","","","","tol_peg_3","1982","1982","0","[[1,3,0],[0,0],[0]]","6","[[1,3,0],[2,0],[0]]","0","0","","","","","","3"
"","","","","","single-stim-button","344","2149160","0.0-4.0-10.5-1.5","63d5a05179cf91a6e6a652cb","A3","batch1","","681","","","tol_toboard","","","","","","","","","","","tol_peg_2","681","681","0","[[1,3,0],[2,0],[0]]","6","[[1,3,0],[2,0],[0]]","0","0","","","","","","3"
"","","","","","poldrack-single-stim","345","2150170","0.0-4.0-11.0","63d5a05179cf91a6e6a652cb","A3","batch1","","-1","","","tol_feedback","true","","","","","","","","","","","1000","1000","500","","","","","","-1","none","true","3062","11553",""
"","","","","","html-button-response","346","2151010","0.0-4.0-12.0","63d5a05179cf91a6e6a652cb","A3","batch1","","837.5","<div class = centerbox><p class = center-block-text>problem <strong>2</strong> out of 25 problems</p></div>","0","tol_trial_num","","","","","","","","","","","","","","","","","","","","","","","","",""
"","","","","","single-stim-button","347","2155309","0.0-4.0-13.0-0.0","63d5a05179cf91a6e6a652cb","A3","batch1","","4298","","","tol_tohand","","","","","","","","","","","tol_peg_2","4298","4298","0","[[1,2,0],[0,0],[0]]","1","[[2,1,3],[0,0],[0]]","1","0","","","","","","5"
