"success","timeout","failed_images","failed_audio","failed_video","trial_type","trial_index","time_elapsed","internal_node_id","subject_id","study_id","session_id","view_history","rt","task","stimulus","response","correct","mouse_click","stim_duration","block_duration","timing_post_trial","current_position","tol_num_moves_made","tol_target","tol_problem_id","tol_rt","key_press","possible_responses","tol_correct","preplanning","tol_rt_per_trial","tol_min_moves","item","answer","spm_correct","spm_rt","fiar_detect_rt","fiar_detect_correct","total_correct_fiar_detect","post_trial_gap","choices"
"true","false","[]","[]","[]","preload","0","1465","0.0-0.0","63d6b8b3cc8e5c3debfd9676","E1","batch5","","","","","","","","","","","","","","","","","","","","","","","","","","","","","",""
"true","","","","","fullscreen","1","29751","0.0-1.0-0.0","63d6b8b3cc8e5c3debfd9676","E1","batch5","","","","","","","","","","","","","","","","","","","","","","","","","","","","","",""
"true","","","","","fullscreen","2","34099","0.0-2.0-0.0","63d6b8b3cc8e5c3debfd9676","E1","batch5","","","","","","","","","","","","","","","","","","","","","","","","","","","","","",""
"","","","","","instructions","3","125065","0.0-2.0-1.0-0.0-0.0","63d6b8b3cc8e5c3debfd9676","E1","batch5","[{""page_index"":0,""viewing_time"":17909.399999976158},{""page_index"":1,""viewing_time"":8270.899999976158},{""page_index"":2,""viewing_time"":7157.300000071526},{""page_index"":3,""viewing_time"":10782},{""page_index"":4,""viewing_time"":14298.899999976158},{""page_index"":5,""viewing_time"":26450.100000023842},{""page_index"":6,""viewing_time"":6095.699999928474}]","90964.5","tol-instructions","","","","","","","","","","","","","","","","","","","","","","","","","","",""
"","","","","","html-button-response","4","127132","0.0-2.0-1.0-1.0-0.0","63d6b8b3cc8e5c3debfd9676","E1","batch5","","2065.100000023842","tol_enter_quiz","<p class=block-text> Let's answer a few questions <br>","0","","","","","","","","","","","","","","","","","","","","","","","","",""
"","","","","","html-button-response","5","130341","0.0-2.0-1.0-1.0-1.0","63d6b8b3cc8e5c3debfd9676","E1","batch5","","3207.2999999523163","tol_quiz","<p class = block-text>True or False: You can only move the ball on top of a peg. <br></p>","1","false","","","","","","","","","","","","","","","","","","","","","","","",""
"","","","","","html-button-response","6","135488","0.0-2.0-1.0-1.0-2.0","63d6b8b3cc8e5c3debfd9676","E1","batch5","","5145.5","tol_quiz_feedback","<p class = block-text>Incorrect. Remember, you can only move the ball on top of a peg.</p>","0","","","","","","","","","","","","","","","","","","","","","","","","",""
"","","","","","html-button-response","7","139013","0.0-2.0-1.0-1.0-3.0","63d6b8b3cc8e5c3debfd9676","E1","batch5","","3524.2999999523163","tol_quiz","<p class = block-text>True or False: You should try to match your board with the target board with fewest moves possible. <br></p>","0","true","","","","","","","","","","","","","","","","","","","","","","","",""
"","","","","","html-button-response","8","140304","0.0-2.0-1.0-1.0-4.0","63d6b8b3cc8e5c3debfd9676","E1","batch5","","1289.8999999761581","tol_quiz_feedback","<p class = block-text>Correct! </p>","0","","","","","","","","","","","","","","","","","","","","","","","","",""
"","","","","","html-button-response","9","144877","0.0-2.0-1.0-2.0-0.0","63d6b8b3cc8e5c3debfd9676","E1","batch5","","4571.100000023842","","<p class = block-text>You made too many incorrect choices.</p><p class = block-text>You will now repeat the instructions and quiz</p>","0","","","","","","","","","","","","","","","","","","","","","","","","",""
"","","","","","instructions","10","156549","0.0-2.0-1.1-0.1-0.1","63d6b8b3cc8e5c3debfd9676","E1","batch5","[{""page_index"":0,""viewing_time"":2292},{""page_index"":1,""viewing_time"":1067.3999999761581},{""page_index"":2,""viewing_time"":579.7999999523163},{""page_index"":3,""viewing_time"":1234.4000000953674},{""page_index"":4,""viewing_time"":1073.2999999523163},{""page_index"":5,""viewing_time"":863},{""page_index"":6,""viewing_time"":4561.299999952316}]","11671.600000023842","tol-instructions","","","","","","","","","","","","","","","","","","","","","","","","","","",""
"","","","","","html-button-response","11","158078","0.0-2.0-1.1-1.1-0.1","63d6b8b3cc8e5c3debfd9676","E1","batch5","","1527.6000000238419","tol_enter_quiz","<p class=block-text> Let's answer a few questions <br>","0","","","","","","","","","","","","","","","","","","","","","","","","",""
"","","","","","html-button-response","12","161078","0.0-2.0-1.1-1.1-1.1","63d6b8b3cc8e5c3debfd9676","E1","batch5","","2999.2000000476837","tol_quiz","<p class = block-text>True or False: You can only move the ball on top of a peg. <br></p>","0","true","","","","","","","","","","","","","","","","","","","","","","","",""
"","","","","","html-button-response","13","163438","0.0-2.0-1.1-1.1-2.1","63d6b8b3cc8e5c3debfd9676","E1","batch5","","2358.8000000715256","tol_quiz_feedback","<p class = block-text>Correct! You can only move the ball on top of a peg.</p>","0","","","","","","","","","","","","","","","","","","","","","","","","",""
"","","","","","html-button-response","14","170737","0.0-2.0-1.1-1.1-3.1","63d6b8b3cc8e5c3debfd9676","E1","batch5","","7298.100000023842","tol_quiz","<p class = block-text>True or False: You should try to match your board with the target board with fewest moves possible. <br></p>","0","true","","","","","","","","","","","","","","","","","","","","","","","",""
"","","","","","html-button-response","15","176268","0.0-2.0-1.1-1.1-4.1","63d6b8b3cc8e5c3debfd9676","E1","batch5","","5529.5","tol_quiz_feedback","<p class = block-text>Correct! </p>","0","","","","","","","","","","","","","","","","","","","","","","","","",""
"","","","","","html-button-response","16","182945","0.0-2.0-2.0","63d6b8b3cc8e5c3debfd9676","E1","batch5","","6676.5","","<p class=block-text> Now that you've understood the game, let's practice a few easier examples before we start!<br> <br>","0","","","","","","","","","","","","","","","","","","","","","","","","",""
"","","","","","single-stim-button","17","185762","0.0-2.0-3.0-0.0","63d6b8b3cc8e5c3debfd9676","E1","batch5","","2815","tol_practice","","","","tol_peg_2","2815","2815","0","[[1,2,0],[0,0],[0]]","1","[[1,2,0],[0,0],[3]]","practice","2815","","","","","","","","","","","","","","",""
"","","","","","single-stim-button","18","187557","0.0-2.0-3.0-1.0","63d6b8b3cc8e5c3debfd9676","E1","batch5","","1794","tol_practice","","","","tol_peg_3","1794","1794","0","[[1,2,0],[0,0],[3]]","1","[[1,2,0],[0,0],[3]]","practice","1794","","","","","","","","","","","","","","",""
"","","","","","poldrack-single-stim","19","188571","0.0-2.0-4.0","63d6b8b3cc8e5c3debfd9676","E1","batch5","","-1","tol_feedback","","","true","","1000","1000","500","","","","","","-1","none","true","","0","","","","","","","","","",""
"","","","","","single-stim-button","20","193725","0.0-2.0-5.0-0.0","63d6b8b3cc8e5c3debfd9676","E1","batch5","","5152","tol_practice","","","","tol_peg_1","5152","5152","0","[[1,0,0],[3,0],[0]]","2","[[0,0,0],[3,1],[2]]","practice","5152","","","","","","","","","","","","","","",""
"","","","","","single-stim-button","21","195171","0.0-2.0-5.0-1.0","63d6b8b3cc8e5c3debfd9676","E1","batch5","","1446","tol_practice","","","","tol_peg_3","1446","1446","0","[[1,0,0],[3,0],[2]]","2","[[0,0,0],[3,1],[2]]","practice","1446","","","","","","","","","","","","","","",""
"","","","","","single-stim-button","22","196362","0.0-2.0-5.1-0.1","63d6b8b3cc8e5c3debfd9676","E1","batch5","","1189","tol_practice","","","","tol_peg_1","1189","1189","0","[[0,0,0],[3,0],[2]]","3","[[0,0,0],[3,1],[2]]","practice","1189","","","","","","","","","","","","","","",""
"","","","","","single-stim-button","23","197742","0.0-2.0-5.1-1.1","63d6b8b3cc8e5c3debfd9676","E1","batch5","","1379","tol_practice","","","","tol_peg_2","1379","1379","0","[[0,0,0],[3,1],[2]]","3","[[0,0,0],[3,1],[2]]","practice","1379","","","","","","","","","","","","","","",""
"","","","","","poldrack-single-stim","24","198750","0.0-2.0-6.0","63d6b8b3cc8e5c3debfd9676","E1","batch5","","-1","tol_feedback","","","true","","1000","1000","500","","","","","","-1","none","true","","0","","","","","","","","","",""
"","","","","","single-stim-button","25","202412","0.0-2.0-7.0-0.0","63d6b8b3cc8e5c3debfd9676","E1","batch5","","3660","tol_practice","","","","tol_peg_2","3660","3660","0","[[1,2,0],[0,0],[0]]","4","[[1,0,0],[2,0],[3]]","practice","3660","","","","","","","","","","","","","","",""
"","","","","","single-stim-button","26","203507","0.0-2.0-7.0-1.0","63d6b8b3cc8e5c3debfd9676","E1","batch5","","1094","tol_practice","","","","tol_peg_3","1094","1094","0","[[1,2,0],[0,0],[3]]","4","[[1,0,0],[2,0],[3]]","practice","1094","","","","","","","","","","","","","","",""
"","","","","","single-stim-button","27","205605","0.0-2.0-7.1-0.1","63d6b8b3cc8e5c3debfd9676","E1","batch5","","2097","tol_practice","","","","tol_peg_1","2097","2097","0","[[1,0,0],[0,0],[3]]","5","[[1,0,0],[2,0],[3]]","practice","2097","","","","","","","","","","","","","","",""
"","","","","","single-stim-button","28","206996","0.0-2.0-7.1-1.1","63d6b8b3cc8e5c3debfd9676","E1","batch5","","1389","tol_practice","","","","tol_peg_2","1389","1389","0","[[1,0,0],[2,0],[3]]","5","[[1,0,0],[2,0],[3]]","practice","1389","","","","","","","","","","","","","","",""
"","","","","","poldrack-single-stim","29","208000","0.0-2.0-8.0","63d6b8b3cc8e5c3debfd9676","E1","batch5","","-1","tol_feedback","","","true","","1000","1000","500","","","","","","-1","none","true","","0","","","","","","","","","",""
"","","","","","html-button-response","30","215979","0.0-2.0-9.0","63d6b8b3cc8e5c3debfd9676","E1","batch5","","7978.100000023842","tol_instruction","<div class = centerbox><p class = center-block-text>Great job! You are done with practice trials<br>You are about to start official trials.<br> <br> Problem <strong>1</strong> out of 25 problems</p></div>","0","","","","","","","","","","","","","","","","","","","","","","","","",""
"","","","","","single-stim-button","31","220924","0.0-2.0-10.0-0.0","63d6b8b3cc8e5c3debfd9676","E1","batch5","","3930","tol_tohand","","","","tol_peg_2","3930","3930","0","[[1,2,0],[0,0],[0]]","1","[[1,3,0],[2,0],[0]]","0","0","","","","","","3","","","","","","","","",""
"","","","","","single-stim-button","32","222267","0.0-2.0-10.0-1.0","63d6b8b3cc8e5c3debfd9676","E1","batch5","","1341","tol_toboard","","","","tol_peg_3","1341","1341","0","[[1,2,0],[0,0],[3]]","1","[[1,3,0],[2,0],[0]]","0","0","","","","","","3","","","","","","","","",""
"","","","","","single-stim-button","33","223562","0.0-2.0-10.1-0.1","63d6b8b3cc8e5c3debfd9676","E1","batch5","","1293","tol_tohand","","","","tol_peg_1","1293","1293","0","[[1,0,0],[0,0],[3]]","2","[[1,3,0],[2,0],[0]]","0","0","","","","","","3","","","","","","","","",""
"","","","","","single-stim-button","34","224545","0.0-2.0-10.1-1.1","63d6b8b3cc8e5c3debfd9676","E1","batch5","","982","tol_toboard","","","","tol_peg_2","982","982","0","[[1,0,0],[2,0],[3]]","2","[[1,3,0],[2,0],[0]]","0","0","","","","","","3","","","","","","","","",""
"","","","","","single-stim-button","35","225339","0.0-2.0-10.2-0.2","63d6b8b3cc8e5c3debfd9676","E1","batch5","","793","tol_tohand","","","","tol_peg_3","793","793","0","[[1,0,0],[2,0],[0]]","3","[[1,3,0],[2,0],[0]]","0","0","","","","","","3","","","","","","","","",""
"","","","","","single-stim-button","36","226399","0.0-2.0-10.2-1.2","63d6b8b3cc8e5c3debfd9676","E1","batch5","","1060","tol_toboard","","","","tol_peg_1","1060","1060","0","[[1,3,0],[2,0],[0]]","3","[[1,3,0],[2,0],[0]]","0","0","","","","","","3","","","","","","","","",""
"","","","","","poldrack-single-stim","37","227401","0.0-2.0-11.0","63d6b8b3cc8e5c3debfd9676","E1","batch5","","-1","tol_feedback","","","true","","1000","1000","500","","","","","","-1","none","true","3930","6016","","","","","","","","","",""
"","","","","","html-button-response","38","235938","0.0-2.0-12.0","63d6b8b3cc8e5c3debfd9676","E1","batch5","","8535.799999952316","tol_trial_num","<div class = centerbox><p class = center-block-text>problem <strong>2</strong> out of 25 problems</p></div>","0","","","","","","","","","","","","","","","","","","","","","","","","",""
"","","","","","single-stim-button","39","239400","0.0-2.0-13.0-0.0","63d6b8b3cc8e5c3debfd9676","E1","batch5","","3461","tol_tohand","","","","tol_peg_1","3461","3461","0","[[1,0,0],[3,0],[0]]","1","[[2,1,3],[0,0],[0]]","1","0","","","","","","5","","","","","","","","",""
"","","","","","single-stim-button","40","247414","0.0-2.0-13.0-1.0","63d6b8b3cc8e5c3debfd9676","E1","batch5","","8013","tol_toboard","","","","tol_peg_2","8013","8013","0","[[1,0,0],[3,2],[0]]","1","[[2,1,3],[0,0],[0]]","1","0","","","","","","5","","","","","","","","",""
"","","","","","single-stim-button","41","248269","0.0-2.0-13.1-0.1","63d6b8b3cc8e5c3debfd9676","E1","batch5","","854","tol_tohand","","","","tol_peg_1","854","854","0","[[0,0,0],[3,2],[0]]","2","[[2,1,3],[0,0],[0]]","1","0","","","","","","5","","","","","","","","",""
"","","","","","single-stim-button","42","249882","0.0-2.0-13.1-1.1","63d6b8b3cc8e5c3debfd9676","E1","batch5","","1613","tol_toboard","","","","tol_peg_3","1613","1613","0","[[0,0,0],[3,2],[1]]","2","[[2,1,3],[0,0],[0]]","1","0","","","","","","5","","","","","","","","",""
"","","","","","single-stim-button","43","251111","0.0-2.0-13.2-0.2","63d6b8b3cc8e5c3debfd9676","E1","batch5","","1227","tol_tohand","","","","tol_peg_2","1227","1227","0","[[0,0,0],[3,0],[1]]","3","[[2,1,3],[0,0],[0]]","1","0","","","","","","5","","","","","","","","",""
"","","","","","single-stim-button","44","252007","0.0-2.0-13.2-1.2","63d6b8b3cc8e5c3debfd9676","E1","batch5","","895","tol_toboard","","","","tol_peg_1","895","895","0","[[2,0,0],[3,0],[1]]","3","[[2,1,3],[0,0],[0]]","1","0","","","","","","5","","","","","","","","",""
"","","","","","single-stim-button","45","253038","0.0-2.0-13.3-0.3","63d6b8b3cc8e5c3debfd9676","E1","batch5","","1029","tol_tohand","","","","tol_peg_3","1029","1029","0","[[2,0,0],[3,0],[0]]","4","[[2,1,3],[0,0],[0]]","1","0","","","","","","5","","","","","","","","",""
"","","","","","single-stim-button","46","254072","0.0-2.0-13.3-1.3","63d6b8b3cc8e5c3debfd9676","E1","batch5","","1033","tol_toboard","","","","tol_peg_1","1033","1033","0","[[2,1,0],[3,0],[0]]","4","[[2,1,3],[0,0],[0]]","1","0","","","","","","5","","","","","","","","",""
"","","","","","single-stim-button","47","255064","0.0-2.0-13.4-0.4","63d6b8b3cc8e5c3debfd9676","E1","batch5","","990","tol_tohand","","","","tol_peg_2","990","990","0","[[2,1,0],[0,0],[0]]","5","[[2,1,3],[0,0],[0]]","1","0","","","","","","5","","","","","","","","",""
"","","","","","single-stim-button","48","256766","0.0-2.0-13.4-1.4","63d6b8b3cc8e5c3debfd9676","E1","batch5","","1702","tol_toboard","","","","tol_peg_1","1702","1702","0","[[2,1,3],[0,0],[0]]","5","[[2,1,3],[0,0],[0]]","1","0","","","","","","5","","","","","","","","",""
"","","","","","poldrack-single-stim","49","257778","0.0-2.0-14.0","63d6b8b3cc8e5c3debfd9676","E1","batch5","","-1","tol_feedback","","","true","","1000","1000","500","","","","","","-1","none","true","3461","7561","","","","","","","","","",""
"","","","","","html-button-response","50","261870","0.0-2.0-15.0","63d6b8b3cc8e5c3debfd9676","E1","batch5","","4091.399999976158","tol_trial_num","<div class = centerbox><p class = center-block-text>problem <strong>3</strong> out of 25 problems</p></div>","0","","","","","","","","","","","","","","","","","","","","","","","","",""
"","","","","","single-stim-button","51","272154","0.0-2.0-16.0-0.0","63d6b8b3cc8e5c3debfd9676","E1","batch5","","10282","tol_tohand","","","","tol_peg_1","10282","10282","0","[[2,0,0],[0,0],[1]]","1","[[1,2,0],[3,0],[0]]","2","0","","","","","","4","","","","","","","","",""
"","","","","","single-stim-button","52","273747","0.0-2.0-16.0-1.0","63d6b8b3cc8e5c3debfd9676","E1","batch5","","1592","tol_toboard","","","","tol_peg_2","1592","1592","0","[[2,0,0],[3,0],[1]]","1","[[1,2,0],[3,0],[0]]","2","0","","","","","","4","","","","","","","","",""
"","","","","","single-stim-button","53","274594","0.0-2.0-16.1-0.1","63d6b8b3cc8e5c3debfd9676","E1","batch5","","845","tol_tohand","","","","tol_peg_1","845","845","0","[[0,0,0],[3,0],[1]]","2","[[1,2,0],[3,0],[0]]","2","0","","","","","","4","","","","","","","","",""
"","","","","","single-stim-button","54","275296","0.0-2.0-16.1-1.1","63d6b8b3cc8e5c3debfd9676","E1","batch5","","700","tol_toboard","","","","tol_peg_2","700","700","0","[[0,0,0],[3,2],[1]]","2","[[1,2,0],[3,0],[0]]","2","0","","","","","","4","","","","","","","","",""
"","","","","","single-stim-button","55","276179","0.0-2.0-16.2-0.2","63d6b8b3cc8e5c3debfd9676","E1","batch5","","883","tol_tohand","","","","tol_peg_3","883","883","0","[[0,0,0],[3,2],[0]]","3","[[1,2,0],[3,0],[0]]","2","0","","","","","","4","","","","","","","","",""
"","","","","","single-stim-button","56","277144","0.0-2.0-16.2-1.2","63d6b8b3cc8e5c3debfd9676","E1","batch5","","963","tol_toboard","","","","tol_peg_1","963","963","0","[[1,0,0],[3,2],[0]]","3","[[1,2,0],[3,0],[0]]","2","0","","","","","","4","","","","","","","","",""
"","","","","","single-stim-button","57","277974","0.0-2.0-16.3-0.3","63d6b8b3cc8e5c3debfd9676","E1","batch5","","828","tol_tohand","","","","tol_peg_2","828","828","0","[[1,0,0],[3,0],[0]]","4","[[1,2,0],[3,0],[0]]","2","0","","","","","","4","","","","","","","","",""
"","","","","","single-stim-button","58","278789","0.0-2.0-16.3-1.3","63d6b8b3cc8e5c3debfd9676","E1","batch5","","815","tol_toboard","","","","tol_peg_1","815","815","0","[[1,2,0],[3,0],[0]]","4","[[1,2,0],[3,0],[0]]","2","0","","","","","","4","","","","","","","","",""
"","","","","","poldrack-single-stim","59","279804","0.0-2.0-17.0","63d6b8b3cc8e5c3debfd9676","E1","batch5","","-1","tol_feedback","","","true","","1000","1000","500","","","","","","-1","none","true","10282","12838","","","","","","","","","",""
"","","","","","html-button-response","60","284068","0.0-2.0-18.0","63d6b8b3cc8e5c3debfd9676","E1","batch5","","4263","tol_trial_num","<div class = centerbox><p class = center-block-text>problem <strong>4</strong> out of 25 problems</p></div>","0","","","","","","","","","","","","","","","","","","","","","","","","",""
"","","","","","single-stim-button","61","289062","0.0-2.0-19.0-0.0","63d6b8b3cc8e5c3debfd9676","E1","batch5","","4994","tol_tohand","","","","tol_peg_2","4994","4994","0","[[3,0,0],[2,0],[0]]","1","[[3,0,0],[1,0],[2]]","3","0","","","","","","3","","","","","","","","",""
"","","","","","single-stim-button","62","290389","0.0-2.0-19.0-1.0","63d6b8b3cc8e5c3debfd9676","E1","batch5","","1325","tol_toboard","","","","tol_peg_1","1325","1325","0","[[3,1,0],[2,0],[0]]","1","[[3,0,0],[1,0],[2]]","3","0","","","","","","3","","","","","","","","",""
"","","","","","single-stim-button","63","291145","0.0-2.0-19.1-0.1","63d6b8b3cc8e5c3debfd9676","E1","batch5","","756","tol_tohand","","","","tol_peg_2","756","756","0","[[3,1,0],[0,0],[0]]","2","[[3,0,0],[1,0],[2]]","3","0","","","","","","3","","","","","","","","",""
"","","","","","single-stim-button","64","291800","0.0-2.0-19.1-1.1","63d6b8b3cc8e5c3debfd9676","E1","batch5","","653","tol_toboard","","","","tol_peg_3","653","653","0","[[3,1,0],[0,0],[2]]","2","[[3,0,0],[1,0],[2]]","3","0","","","","","","3","","","","","","","","",""
"","","","","","single-stim-button","65","292761","0.0-2.0-19.2-0.2","63d6b8b3cc8e5c3debfd9676","E1","batch5","","961","tol_tohand","","","","tol_peg_1","961","961","0","[[3,0,0],[0,0],[2]]","3","[[3,0,0],[1,0],[2]]","3","0","","","","","","3","","","","","","","","",""
"","","","","","single-stim-button","66","293489","0.0-2.0-19.2-1.2","63d6b8b3cc8e5c3debfd9676","E1","batch5","","728","tol_toboard","","","","tol_peg_2","728","728","0","[[3,0,0],[1,0],[2]]","3","[[3,0,0],[1,0],[2]]","3","0","","","","","","3","","","","","","","","",""
"","","","","","poldrack-single-stim","67","294495","0.0-2.0-20.0","63d6b8b3cc8e5c3debfd9676","E1","batch5","","-1","tol_feedback","","","true","","1000","1000","500","","","","","","-1","none","true","4994","6711","","","","","","","","","",""
"","","","","","html-button-response","68","298455","0.0-2.0-21.0","63d6b8b3cc8e5c3debfd9676","E1","batch5","","3958.8000000715256","tol_trial_num","<div class = centerbox><p class = center-block-text>problem <strong>5</strong> out of 25 problems</p></div>","0","","","","","","","","","","","","","","","","","","","","","","","","",""
"","","","","","single-stim-button","69","307967","0.0-2.0-22.0-0.0","63d6b8b3cc8e5c3debfd9676","E1","batch5","","9512","tol_tohand","","","","tol_peg_3","9512","9512","0","[[1,0,0],[2,0],[0]]","1","[[0,0,0],[1,2],[3]]","4","0","","","","","","7","","","","","","","","",""
"","","","","","single-stim-button","70","308705","0.0-2.0-22.0-1.0","63d6b8b3cc8e5c3debfd9676","E1","batch5","","736","tol_toboard","","","","tol_peg_1","736","736","0","[[1,3,0],[2,0],[0]]","1","[[0,0,0],[1,2],[3]]","4","0","","","","","","7","","","","","","","","",""
"","","","","","single-stim-button","71","309532","0.0-2.0-22.1-0.1","63d6b8b3cc8e5c3debfd9676","E1","batch5","","826","tol_tohand","","","","tol_peg_2","826","826","0","[[1,3,0],[0,0],[0]]","2","[[0,0,0],[1,2],[3]]","4","0","","","","","","7","","","","","","","","",""
"","","","","","single-stim-button","72","321628","0.0-2.0-22.1-1.1","63d6b8b3cc8e5c3debfd9676","E1","batch5","","12096","tol_toboard","","","","tol_peg_2","12096","12096","0","[[1,3,0],[2,0],[0]]","2","[[0,0,0],[1,2],[3]]","4","0","","","","","","7","","","","","","","","",""
"","","","","","single-stim-button","73","335990","0.0-2.0-22.2-0.2","63d6b8b3cc8e5c3debfd9676","E1","batch5","","14361","tol_tohand","","","","tol_peg_2","14361","14361","0","[[1,3,0],[0,0],[0]]","3","[[0,0,0],[1,2],[3]]","4","0","","","","","","7","","","","","","","","",""
"","","","","","single-stim-button","74","337745","0.0-2.0-22.2-1.2","63d6b8b3cc8e5c3debfd9676","E1","batch5","","1754","tol_toboard","","","","tol_peg_2","1754","1754","0","[[1,3,0],[2,0],[0]]","3","[[0,0,0],[1,2],[3]]","4","0","","","","","","7","","","","","","","","",""
"","","","","","single-stim-button","75","343153","0.0-2.0-22.3-0.3","63d6b8b3cc8e5c3debfd9676","E1","batch5","","5407","tol_tohand","","","","tol_peg_1","5407","5407","0","[[1,0,0],[2,0],[0]]","4","[[0,0,0],[1,2],[3]]","4","0","","","","","","7","","","","","","","","",""
"","","","","","single-stim-button","76","347413","0.0-2.0-22.3-1.3","63d6b8b3cc8e5c3debfd9676","E1","batch5","","4259","tol_toboard","","","","tol_peg_3","4259","4259","0","[[1,0,0],[2,0],[3]]","4","[[0,0,0],[1,2],[3]]","4","0","","","","","","7","","","","","","","","",""
"","","","","","single-stim-button","77","348439","0.0-2.0-22.4-0.4","63d6b8b3cc8e5c3debfd9676","E1","batch5","","1025","tol_tohand","","","","tol_peg_1","1025","1025","0","[[0,0,0],[2,0],[3]]","5","[[0,0,0],[1,2],[3]]","4","0","","","","","","7","","","","","","","","",""
"","","","","","single-stim-button","78","349195","0.0-2.0-22.4-1.4","63d6b8b3cc8e5c3debfd9676","E1","batch5","","755","tol_toboard","","","","tol_peg_2","755","755","0","[[0,0,0],[2,1],[3]]","5","[[0,0,0],[1,2],[3]]","4","0","","","","","","7","","","","","","","","",""
"","","","","","single-stim-button","79","349962","0.0-2.0-22.5-0.5","63d6b8b3cc8e5c3debfd9676","E1","batch5","","766","tol_tohand","","","","tol_peg_3","766","766","0","[[0,0,0],[2,1],[0]]","6","[[0,0,0],[1,2],[3]]","4","0","","","","","","7","","","","","","","","",""
"","","","","","single-stim-button","80","355010","0.0-2.0-22.5-1.5","63d6b8b3cc8e5c3debfd9676","E1","batch5","","5047","tol_toboard","","","","tol_peg_1","5047","5047","0","[[3,0,0],[2,1],[0]]","6","[[0,0,0],[1,2],[3]]","4","0","","","","","","7","","","","","","","","",""
"","","","","","single-stim-button","81","356653","0.0-2.0-22.6-0.6","63d6b8b3cc8e5c3debfd9676","E1","batch5","","1642","tol_tohand","","","","tol_peg_2","1642","1642","0","[[3,0,0],[2,0],[0]]","7","[[0,0,0],[1,2],[3]]","4","0","","","","","","7","","","","","","","","",""
"","","","","","single-stim-button","82","359772","0.0-2.0-22.6-1.6","63d6b8b3cc8e5c3debfd9676","E1","batch5","","3118","tol_toboard","","","","tol_peg_1","3118","3118","0","[[3,1,0],[2,0],[0]]","7","[[0,0,0],[1,2],[3]]","4","0","","","","","","7","","","","","","","","",""
"","","","","","single-stim-button","83","360893","0.0-2.0-22.7-0.7","63d6b8b3cc8e5c3debfd9676","E1","batch5","","1121","tol_tohand","","","","tol_peg_2","1121","1121","0","[[3,1,0],[0,0],[0]]","8","[[0,0,0],[1,2],[3]]","4","0","","","","","","7","","","","","","","","",""
"","","","","","single-stim-button","84","361738","0.0-2.0-22.7-1.7","63d6b8b3cc8e5c3debfd9676","E1","batch5","","845","tol_toboard","","","","tol_peg_3","845","845","0","[[3,1,0],[0,0],[2]]","8","[[0,0,0],[1,2],[3]]","4","0","","","","","","7","","","","","","","","",""
"","","","","","single-stim-button","85","362496","0.0-2.0-22.8-0.8","63d6b8b3cc8e5c3debfd9676","E1","batch5","","756","tol_tohand","","","","tol_peg_1","756","756","0","[[3,0,0],[0,0],[2]]","9","[[0,0,0],[1,2],[3]]","4","0","","","","","","7","","","","","","","","",""
"","","","","","single-stim-button","86","363449","0.0-2.0-22.8-1.8","63d6b8b3cc8e5c3debfd9676","E1","batch5","","953","tol_toboard","","","","tol_peg_2","953","953","0","[[3,0,0],[1,0],[2]]","9","[[0,0,0],[1,2],[3]]","4","0","","","","","","7","","","","","","","","",""
"","","","","","single-stim-button","87","368629","0.0-2.0-22.9-0.9","63d6b8b3cc8e5c3debfd9676","E1","batch5","","5179","tol_tohand","","","","tol_peg_3","5179","5179","0","[[3,0,0],[1,0],[0]]","10","[[0,0,0],[1,2],[3]]","4","0","","","","","","7","","","","","","","","",""
"","","","","","single-stim-button","88","369227","0.0-2.0-22.9-1.9","63d6b8b3cc8e5c3debfd9676","E1","batch5","","597","tol_toboard","","","","tol_peg_2","597","597","0","[[3,0,0],[1,2],[0]]","10","[[0,0,0],[1,2],[3]]","4","0","","","","","","7","","","","","","","","",""
"","","","","","single-stim-button","89","370220","0.0-2.0-22.10-0.10","63d6b8b3cc8e5c3debfd9676","E1","batch5","","991","tol_tohand","","","","tol_peg_1","991","991","0","[[0,0,0],[1,2],[0]]","11","[[0,0,0],[1,2],[3]]","4","0","","","","","","7","","","","","","","","",""
"","","","","","single-stim-button","90","371386","0.0-2.0-22.10-1.10","63d6b8b3cc8e5c3debfd9676","E1","batch5","","1165","tol_toboard","","","","tol_peg_3","1165","1165","0","[[0,0,0],[1,2],[3]]","11","[[0,0,0],[1,2],[3]]","4","0","","","","","","7","","","","","","","","",""
"","","","","","poldrack-single-stim","91","372395","0.0-2.0-23.0","63d6b8b3cc8e5c3debfd9676","E1","batch5","","-1","tol_feedback","","","true","","1000","1000","500","","","","","","-1","none","true","9512","41586","","","","","","","","","",""
"","","","","","html-button-response","92","401615","0.0-2.0-24.0","63d6b8b3cc8e5c3debfd9676","E1","batch5","","29219.399999976158","tol_trial_num","<div class = centerbox><p class = center-block-text>problem <strong>6</strong> out of 25 problems</p></div>","0","","","","","","","","","","","","","","","","","","","","","","","","",""
"","","","","","single-stim-button","93","425724","0.0-2.0-25.0-0.0","63d6b8b3cc8e5c3debfd9676","E1","batch5","","24107","tol_tohand","","","","tol_peg_3","24107","24107","0","[[0,0,0],[1,2],[0]]","1","[[1,0,0],[2,3],[0]]","5","0","","","","","","6","","","","","","","","",""
"","","","","","single-stim-button","94","427024","0.0-2.0-25.0-1.0","63d6b8b3cc8e5c3debfd9676","E1","batch5","","1300","tol_toboard","","","","tol_peg_1","1300","1300","0","[[3,0,0],[1,2],[0]]","1","[[1,0,0],[2,3],[0]]","5","0","","","","","","6","","","","","","","","",""
"","","","","","single-stim-button","95","428130","0.0-2.0-25.1-0.1","63d6b8b3cc8e5c3debfd9676","E1","batch5","","1105","tol_tohand","","","","tol_peg_2","1105","1105","0","[[3,0,0],[1,0],[0]]","2","[[1,0,0],[2,3],[0]]","5","0","","","","","","6","","","","","","","","",""
"","","","","","single-stim-button","96","428576","0.0-2.0-25.1-1.1","63d6b8b3cc8e5c3debfd9676","E1","batch5","","445","tol_toboard","","","","tol_peg_2","445","445","0","[[3,0,0],[1,2],[0]]","2","[[1,0,0],[2,3],[0]]","5","0","","","","","","6","","","","","","","","",""
"","","","","","single-stim-button","97","429269","0.0-2.0-25.2-0.2","63d6b8b3cc8e5c3debfd9676","E1","batch5","","692","tol_tohand","","","","tol_peg_2","692","692","0","[[3,0,0],[1,0],[0]]","3","[[1,0,0],[2,3],[0]]","5","0","","","","","","6","","","","","","","","",""
"","","","","","single-stim-button","98","429972","0.0-2.0-25.2-1.2","63d6b8b3cc8e5c3debfd9676","E1","batch5","","703","tol_toboard","","","","tol_peg_1","703","703","0","[[3,2,0],[1,0],[0]]","3","[[1,0,0],[2,3],[0]]","5","0","","","","","","6","","","","","","","","",""
"","","","","","single-stim-button","99","431393","0.0-2.0-25.3-0.3","63d6b8b3cc8e5c3debfd9676","E1","batch5","","1419","tol_tohand","","","","tol_peg_2","1419","1419","0","[[3,2,0],[0,0],[0]]","4","[[1,0,0],[2,3],[0]]","5","0","","","","","","6","","","","","","","","",""
"","","","","","single-stim-button","100","432202","0.0-2.0-25.3-1.3","63d6b8b3cc8e5c3debfd9676","E1","batch5","","809","tol_toboard","","","","tol_peg_3","809","809","0","[[3,2,0],[0,0],[1]]","4","[[1,0,0],[2,3],[0]]","5","0","","","","","","6","","","","","","","","",""
"","","","","","single-stim-button","101","433150","0.0-2.0-25.4-0.4","63d6b8b3cc8e5c3debfd9676","E1","batch5","","946","tol_tohand","","","","tol_peg_1","946","946","0","[[3,0,0],[0,0],[1]]","5","[[1,0,0],[2,3],[0]]","5","0","","","","","","6","","","","","","","","",""
"","","","","","single-stim-button","102","433862","0.0-2.0-25.4-1.4","63d6b8b3cc8e5c3debfd9676","E1","batch5","","712","tol_toboard","","","","tol_peg_2","712","712","0","[[3,0,0],[2,0],[1]]","5","[[1,0,0],[2,3],[0]]","5","0","","","","","","6","","","","","","","","",""
"","","","","","single-stim-button","103","434510","0.0-2.0-25.5-0.5","63d6b8b3cc8e5c3debfd9676","E1","batch5","","646","tol_tohand","","","","tol_peg_1","646","646","0","[[0,0,0],[2,0],[1]]","6","[[1,0,0],[2,3],[0]]","5","0","","","","","","6","","","","","","","","",""
"","","","","","single-stim-button","104","435148","0.0-2.0-25.5-1.5","63d6b8b3cc8e5c3debfd9676","E1","batch5","","637","tol_toboard","","","","tol_peg_2","637","637","0","[[0,0,0],[2,3],[1]]","6","[[1,0,0],[2,3],[0]]","5","0","","","","","","6","","","","","","","","",""
"","","","","","single-stim-button","105","435869","0.0-2.0-25.6-0.6","63d6b8b3cc8e5c3debfd9676","E1","batch5","","721","tol_tohand","","","","tol_peg_3","721","721","0","[[0,0,0],[2,3],[0]]","7","[[1,0,0],[2,3],[0]]","5","0","","","","","","6","","","","","","","","",""
"","","","","","single-stim-button","106","436630","0.0-2.0-25.6-1.6","63d6b8b3cc8e5c3debfd9676","E1","batch5","","761","tol_toboard","","","","tol_peg_1","761","761","0","[[1,0,0],[2,3],[0]]","7","[[1,0,0],[2,3],[0]]","5","0","","","","","","6","","","","","","","","",""
"","","","","","poldrack-single-stim","107","437637","0.0-2.0-26.0","63d6b8b3cc8e5c3debfd9676","E1","batch5","","-1","tol_feedback","","","true","","1000","1000","500","","","","","","-1","none","true","24107","29636","","","","","","","","","",""
"","","","","","html-button-response","108","438955","0.0-2.0-27.0","63d6b8b3cc8e5c3debfd9676","E1","batch5","","1317.1000000238419","tol_trial_num","<div class = centerbox><p class = center-block-text>problem <strong>7</strong> out of 25 problems</p></div>","0","","","","","","","","","","","","","","","","","","","","","","","","",""
"","","","","","single-stim-button","109","447063","0.0-2.0-28.0-0.0","63d6b8b3cc8e5c3debfd9676","E1","batch5","","8107","tol_tohand","","","","tol_peg_3","8107","8107","0","[[2,1,0],[0,0],[0]]","1","[[1,2,0],[3,0],[0]]","6","0","","","","","","5","","","","","","","","",""
"","","","","","single-stim-button","110","448035","0.0-2.0-28.0-1.0","63d6b8b3cc8e5c3debfd9676","E1","batch5","","971","tol_toboard","","","","tol_peg_2","971","971","0","[[2,1,0],[3,0],[0]]","1","[[1,2,0],[3,0],[0]]","6","0","","","","","","5","","","","","","","","",""
"","","","","","single-stim-button","111","450990","0.0-2.0-28.1-0.1","63d6b8b3cc8e5c3debfd9676","E1","batch5","","2954","tol_tohand","","","","tol_peg_1","2954","2954","0","[[2,0,0],[3,0],[0]]","2","[[1,2,0],[3,0],[0]]","6","0","","","","","","5","","","","","","","","",""
"","","","","","single-stim-button","112","452180","0.0-2.0-28.1-1.1","63d6b8b3cc8e5c3debfd9676","E1","batch5","","1189","tol_toboard","","","","tol_peg_2","1189","1189","0","[[2,0,0],[3,1],[0]]","2","[[1,2,0],[3,0],[0]]","6","0","","","","","","5","","","","","","","","",""
"","","","","","single-stim-button","113","453411","0.0-2.0-28.2-0.2","63d6b8b3cc8e5c3debfd9676","E1","batch5","","1229","tol_tohand","","","","tol_peg_1","1229","1229","0","[[0,0,0],[3,1],[0]]","3","[[1,2,0],[3,0],[0]]","6","0","","","","","","5","","","","","","","","",""
"","","","","","single-stim-button","114","454316","0.0-2.0-28.2-1.2","63d6b8b3cc8e5c3debfd9676","E1","batch5","","905","tol_toboard","","","","tol_peg_3","905","905","0","[[0,0,0],[3,1],[2]]","3","[[1,2,0],[3,0],[0]]","6","0","","","","","","5","","","","","","","","",""
"","","","","","single-stim-button","115","455255","0.0-2.0-28.3-0.3","63d6b8b3cc8e5c3debfd9676","E1","batch5","","939","tol_tohand","","","","tol_peg_2","939","939","0","[[0,0,0],[3,0],[2]]","4","[[1,2,0],[3,0],[0]]","6","0","","","","","","5","","","","","","","","",""
"","","","","","single-stim-button","116","456056","0.0-2.0-28.3-1.3","63d6b8b3cc8e5c3debfd9676","E1","batch5","","800","tol_toboard","","","","tol_peg_1","800","800","0","[[1,0,0],[3,0],[2]]","4","[[1,2,0],[3,0],[0]]","6","0","","","","","","5","","","","","","","","",""
"","","","","","single-stim-button","117","456825","0.0-2.0-28.4-0.4","63d6b8b3cc8e5c3debfd9676","E1","batch5","","769","tol_tohand","","","","tol_peg_3","769","769","0","[[1,0,0],[3,0],[0]]","5","[[1,2,0],[3,0],[0]]","6","0","","","","","","5","","","","","","","","",""
"","","","","","single-stim-button","118","457969","0.0-2.0-28.4-1.4","63d6b8b3cc8e5c3debfd9676","E1","batch5","","1143","tol_toboard","","","","tol_peg_1","1143","1143","0","[[1,2,0],[3,0],[0]]","5","[[1,2,0],[3,0],[0]]","6","0","","","","","","5","","","","","","","","",""
"","","","","","poldrack-single-stim","119","458974","0.0-2.0-29.0","63d6b8b3cc8e5c3debfd9676","E1","batch5","","-1","tol_feedback","","","true","","1000","1000","500","","","","","","-1","none","true","8107","13998","","","","","","","","","",""
"","","","","","html-button-response","120","462349","0.0-2.0-30.0","63d6b8b3cc8e5c3debfd9676","E1","batch5","","3373.399999976158","tol_trial_num","<div class = centerbox><p class = center-block-text>problem <strong>8</strong> out of 25 problems</p></div>","0","","","","","","","","","","","","","","","","","","","","","","","","",""
"","","","","","single-stim-button","121","467250","0.0-2.0-31.0-0.0","63d6b8b3cc8e5c3debfd9676","E1","batch5","","4900","tol_tohand","","","","tol_peg_3","4900","4900","0","[[0,0,0],[2,3],[0]]","1","[[1,2,0],[3,0],[0]]","7","0","","","","","","4","","","","","","","","",""
"","","","","","single-stim-button","122","468650","0.0-2.0-31.0-1.0","63d6b8b3cc8e5c3debfd9676","E1","batch5","","1399","tol_toboard","","","","tol_peg_1","1399","1399","0","[[1,0,0],[2,3],[0]]","1","[[1,2,0],[3,0],[0]]","7","0","","","","","","4","","","","","","","","",""
"","","","","","single-stim-button","123","469576","0.0-2.0-31.1-0.1","63d6b8b3cc8e5c3debfd9676","E1","batch5","","924","tol_tohand","","","","tol_peg_2","924","924","0","[[1,0,0],[2,0],[0]]","2","[[1,2,0],[3,0],[0]]","7","0","","","","","","4","","","","","","","","",""
"","","","","","single-stim-button","124","470383","0.0-2.0-31.1-1.1","63d6b8b3cc8e5c3debfd9676","E1","batch5","","806","tol_toboard","","","","tol_peg_3","806","806","0","[[1,0,0],[2,0],[3]]","2","[[1,2,0],[3,0],[0]]","7","0","","","","","","4","","","","","","","","",""
"","","","","","single-stim-button","125","471169","0.0-2.0-31.2-0.2","63d6b8b3cc8e5c3debfd9676","E1","batch5","","785","tol_tohand","","","","tol_peg_2","785","785","0","[[1,0,0],[0,0],[3]]","3","[[1,2,0],[3,0],[0]]","7","0","","","","","","4","","","","","","","","",""
"","","","","","single-stim-button","126","471762","0.0-2.0-31.2-1.2","63d6b8b3cc8e5c3debfd9676","E1","batch5","","592","tol_toboard","","","","tol_peg_1","592","592","0","[[1,2,0],[0,0],[3]]","3","[[1,2,0],[3,0],[0]]","7","0","","","","","","4","","","","","","","","",""
"","","","","","single-stim-button","127","472964","0.0-2.0-31.3-0.3","63d6b8b3cc8e5c3debfd9676","E1","batch5","","1201","tol_tohand","","","","tol_peg_3","1201","1201","0","[[1,2,0],[0,0],[0]]","4","[[1,2,0],[3,0],[0]]","7","0","","","","","","4","","","","","","","","",""
"","","","","","single-stim-button","128","474028","0.0-2.0-31.3-1.3","63d6b8b3cc8e5c3debfd9676","E1","batch5","","1064","tol_toboard","","","","tol_peg_2","1064","1064","0","[[1,2,0],[3,0],[0]]","4","[[1,2,0],[3,0],[0]]","7","0","","","","","","4","","","","","","","","",""
"","","","","","poldrack-single-stim","129","475043","0.0-2.0-32.0","63d6b8b3cc8e5c3debfd9676","E1","batch5","","-1","tol_feedback","","","true","","1000","1000","500","","","","","","-1","none","true","4900","7810","","","","","","","","","",""
"","","","","","html-button-response","130","476482","0.0-2.0-33.0","63d6b8b3cc8e5c3debfd9676","E1","batch5","","1438.8000000715256","tol_trial_num","<div class = centerbox><p class = center-block-text>problem <strong>9</strong> out of 25 problems</p></div>","0","","","","","","","","","","","","","","","","","","","","","","","","",""
"","","","","","single-stim-button","131","491703","0.0-2.0-34.0-0.0","63d6b8b3cc8e5c3debfd9676","E1","batch5","","15219","tol_tohand","","","","tol_peg_3","15219","15219","0","[[3,2,0],[0,0],[0]]","1","[[2,1,0],[3,0],[0]]","8","0","","","","","","6","","","","","","","","",""
"","","","","","single-stim-button","132","492603","0.0-2.0-34.0-1.0","63d6b8b3cc8e5c3debfd9676","E1","batch5","","900","tol_toboard","","","","tol_peg_2","900","900","0","[[3,2,0],[1,0],[0]]","1","[[2,1,0],[3,0],[0]]","8","0","","","","","","6","","","","","","","","",""
"","","","","","single-stim-button","133","493520","0.0-2.0-34.1-0.1","63d6b8b3cc8e5c3debfd9676","E1","batch5","","916","tol_tohand","","","","tol_peg_1","916","916","0","[[3,0,0],[1,0],[0]]","2","[[2,1,0],[3,0],[0]]","8","0","","","","","","6","","","","","","","","",""
"","","","","","single-stim-button","134","494482","0.0-2.0-34.1-1.1","63d6b8b3cc8e5c3debfd9676","E1","batch5","","961","tol_toboard","","","","tol_peg_2","961","961","0","[[3,0,0],[1,2],[0]]","2","[[2,1,0],[3,0],[0]]","8","0","","","","","","6","","","","","","","","",""
"","","","","","single-stim-button","135","495250","0.0-2.0-34.2-0.2","63d6b8b3cc8e5c3debfd9676","E1","batch5","","768","tol_tohand","","","","tol_peg_1","768","768","0","[[0,0,0],[1,2],[0]]","3","[[2,1,0],[3,0],[0]]","8","0","","","","","","6","","","","","","","","",""
"","","","","","single-stim-button","136","496291","0.0-2.0-34.2-1.2","63d6b8b3cc8e5c3debfd9676","E1","batch5","","1041","tol_toboard","","","","tol_peg_3","1041","1041","0","[[0,0,0],[1,2],[3]]","3","[[2,1,0],[3,0],[0]]","8","0","","","","","","6","","","","","","","","",""
"","","","","","single-stim-button","137","497069","0.0-2.0-34.3-0.3","63d6b8b3cc8e5c3debfd9676","E1","batch5","","777","tol_tohand","","","","tol_peg_2","777","777","0","[[0,0,0],[1,0],[3]]","4","[[2,1,0],[3,0],[0]]","8","0","","","","","","6","","","","","","","","",""
"","","","","","single-stim-button","138","497803","0.0-2.0-34.3-1.3","63d6b8b3cc8e5c3debfd9676","E1","batch5","","733","tol_toboard","","","","tol_peg_1","733","733","0","[[2,0,0],[1,0],[3]]","4","[[2,1,0],[3,0],[0]]","8","0","","","","","","6","","","","","","","","",""
"","","","","","single-stim-button","139","498618","0.0-2.0-34.4-0.4","63d6b8b3cc8e5c3debfd9676","E1","batch5","","815","tol_tohand","","","","tol_peg_2","815","815","0","[[2,0,0],[0,0],[3]]","5","[[2,1,0],[3,0],[0]]","8","0","","","","","","6","","","","","","","","",""
"","","","","","single-stim-button","140","499252","0.0-2.0-34.4-1.4","63d6b8b3cc8e5c3debfd9676","E1","batch5","","632","tol_toboard","","","","tol_peg_1","632","632","0","[[2,1,0],[0,0],[3]]","5","[[2,1,0],[3,0],[0]]","8","0","","","","","","6","","","","","","","","",""
"","","","","","single-stim-button","141","500429","0.0-2.0-34.5-0.5","63d6b8b3cc8e5c3debfd9676","E1","batch5","","1175","tol_tohand","","","","tol_peg_3","1175","1175","0","[[2,1,0],[0,0],[0]]","6","[[2,1,0],[3,0],[0]]","8","0","","","","","","6","","","","","","","","",""
"","","","","","single-stim-button","142","501279","0.0-2.0-34.5-1.5","63d6b8b3cc8e5c3debfd9676","E1","batch5","","850","tol_toboard","","","","tol_peg_2","850","850","0","[[2,1,0],[3,0],[0]]","6","[[2,1,0],[3,0],[0]]","8","0","","","","","","6","","","","","","","","",""
"","","","","","poldrack-single-stim","143","502282","0.0-2.0-35.0","63d6b8b3cc8e5c3debfd9676","E1","batch5","","-1","tol_feedback","","","true","","1000","1000","500","","","","","","-1","none","true","15219","19670","","","","","","","","","",""
"","","","","","html-button-response","144","504218","0.0-2.0-36.0","63d6b8b3cc8e5c3debfd9676","E1","batch5","","1934.6000000238419","tol_trial_num","<div class = centerbox><p class = center-block-text>problem <strong>10</strong> out of 25 problems</p></div>","0","","","","","","","","","","","","","","","","","","","","","","","","",""
"","","","","","single-stim-button","145","515581","0.0-2.0-37.0-0.0","63d6b8b3cc8e5c3debfd9676","E1","batch5","","11363","tol_tohand","","","","tol_peg_2","11363","11363","0","[[3,0,0],[0,0],[2]]","1","[[3,0,0],[2,1],[0]]","9","0","","","","","","3","","","","","","","","",""
"","","","","","single-stim-button","146","517815","0.0-2.0-37.0-1.0","63d6b8b3cc8e5c3debfd9676","E1","batch5","","2234","tol_toboard","","","","tol_peg_1","2234","2234","0","[[3,1,0],[0,0],[2]]","1","[[3,0,0],[2,1],[0]]","9","0","","","","","","3","","","","","","","","",""
"","","","","","single-stim-button","147","518913","0.0-2.0-37.1-0.1","63d6b8b3cc8e5c3debfd9676","E1","batch5","","1096","tol_tohand","","","","tol_peg_3","1096","1096","0","[[3,1,0],[0,0],[0]]","2","[[3,0,0],[2,1],[0]]","9","0","","","","","","3","","","","","","","","",""
"","","","","","single-stim-button","148","519643","0.0-2.0-37.1-1.1","63d6b8b3cc8e5c3debfd9676","E1","batch5","","729","tol_toboard","","","","tol_peg_2","729","729","0","[[3,1,0],[2,0],[0]]","2","[[3,0,0],[2,1],[0]]","9","0","","","","","","3","","","","","","","","",""
"","","","","","single-stim-button","149","520732","0.0-2.0-37.2-0.2","63d6b8b3cc8e5c3debfd9676","E1","batch5","","1089","tol_tohand","","","","tol_peg_1","1089","1089","0","[[3,0,0],[2,0],[0]]","3","[[3,0,0],[2,1],[0]]","9","0","","","","","","3","","","","","","","","",""
"","","","","","single-stim-button","150","521381","0.0-2.0-37.2-1.2","63d6b8b3cc8e5c3debfd9676","E1","batch5","","648","tol_toboard","","","","tol_peg_2","648","648","0","[[3,0,0],[2,1],[0]]","3","[[3,0,0],[2,1],[0]]","9","0","","","","","","3","","","","","","","","",""
"","","","","","poldrack-single-stim","151","522385","0.0-2.0-38.0","63d6b8b3cc8e5c3debfd9676","E1","batch5","","-1","tol_feedback","","","true","","1000","1000","500","","","","","","-1","none","true","11363","13548","","","","","","","","","",""
"","","","","","html-button-response","152","526158","0.0-2.0-39.0","63d6b8b3cc8e5c3debfd9676","E1","batch5","","3772.6999999284744","tol_trial_num","<div class = centerbox><p class = center-block-text>problem <strong>11</strong> out of 25 problems</p></div>","0","","","","","","","","","","","","","","","","","","","","","","","","",""
"","","","","","single-stim-button","153","575761","0.0-2.0-40.0-0.0","63d6b8b3cc8e5c3debfd9676","E1","batch5","","49602","tol_tohand","","","","tol_peg_1","49602","49602","0","[[1,0,0],[3,0],[0]]","1","[[2,0,0],[1,3],[0]]","10","0","","","","","","6","","","","","","","","",""
"","","","","","single-stim-button","154","577683","0.0-2.0-40.0-1.0","63d6b8b3cc8e5c3debfd9676","E1","batch5","","1920","tol_toboard","","","","tol_peg_3","1920","1920","0","[[1,0,0],[3,0],[2]]","1","[[2,0,0],[1,3],[0]]","10","0","","","","","","6","","","","","","","","",""
"","","","","","single-stim-button","155","578934","0.0-2.0-40.1-0.1","63d6b8b3cc8e5c3debfd9676","E1","batch5","","1251","tol_tohand","","","","tol_peg_1","1251","1251","0","[[0,0,0],[3,0],[2]]","2","[[2,0,0],[1,3],[0]]","10","0","","","","","","6","","","","","","","","",""
"","","","","","single-stim-button","156","579721","0.0-2.0-40.1-1.1","63d6b8b3cc8e5c3debfd9676","E1","batch5","","785","tol_toboard","","","","tol_peg_2","785","785","0","[[0,0,0],[3,1],[2]]","2","[[2,0,0],[1,3],[0]]","10","0","","","","","","6","","","","","","","","",""
"","","","","","single-stim-button","157","580619","0.0-2.0-40.2-0.2","63d6b8b3cc8e5c3debfd9676","E1","batch5","","898","tol_tohand","","","","tol_peg_3","898","898","0","[[0,0,0],[3,1],[0]]","3","[[2,0,0],[1,3],[0]]","10","0","","","","","","6","","","","","","","","",""
"","","","","","single-stim-button","158","582276","0.0-2.0-40.2-1.2","63d6b8b3cc8e5c3debfd9676","E1","batch5","","1656","tol_toboard","","","","tol_peg_1","1656","1656","0","[[2,0,0],[3,1],[0]]","3","[[2,0,0],[1,3],[0]]","10","0","","","","","","6","","","","","","","","",""
"","","","","","single-stim-button","159","583239","0.0-2.0-40.3-0.3","63d6b8b3cc8e5c3debfd9676","E1","batch5","","961","tol_tohand","","","","tol_peg_2","961","961","0","[[2,0,0],[3,0],[0]]","4","[[2,0,0],[1,3],[0]]","10","0","","","","","","6","","","","","","","","",""
"","","","","","single-stim-button","160","583883","0.0-2.0-40.3-1.3","63d6b8b3cc8e5c3debfd9676","E1","batch5","","644","tol_toboard","","","","tol_peg_1","644","644","0","[[2,1,0],[3,0],[0]]","4","[[2,0,0],[1,3],[0]]","10","0","","","","","","6","","","","","","","","",""
"","","","","","single-stim-button","161","584438","0.0-2.0-40.4-0.4","63d6b8b3cc8e5c3debfd9676","E1","batch5","","554","tol_tohand","","","","tol_peg_2","554","554","0","[[2,1,0],[0,0],[0]]","5","[[2,0,0],[1,3],[0]]","10","0","","","","","","6","","","","","","","","",""
"","","","","","single-stim-button","162","585003","0.0-2.0-40.4-1.4","63d6b8b3cc8e5c3debfd9676","E1","batch5","","565","tol_toboard","","","","tol_peg_3","565","565","0","[[2,1,0],[0,0],[3]]","5","[[2,0,0],[1,3],[0]]","10","0","","","","","","6","","","","","","","","",""
"","","","","","single-stim-button","163","585834","0.0-2.0-40.5-0.5","63d6b8b3cc8e5c3debfd9676","E1","batch5","","830","tol_tohand","","","","tol_peg_1","830","830","0","[[2,0,0],[0,0],[3]]","6","[[2,0,0],[1,3],[0]]","10","0","","","","","","6","","","","","","","","",""
"","","","","","single-stim-button","164","586406","0.0-2.0-40.5-1.5","63d6b8b3cc8e5c3debfd9676","E1","batch5","","572","tol_toboard","","","","tol_peg_2","572","572","0","[[2,0,0],[1,0],[3]]","6","[[2,0,0],[1,3],[0]]","10","0","","","","","","6","","","","","","","","",""
"","","","","","single-stim-button","165","587746","0.0-2.0-40.6-0.6","63d6b8b3cc8e5c3debfd9676","E1","batch5","","1339","tol_tohand","","","","tol_peg_3","1339","1339","0","[[2,0,0],[1,0],[0]]","7","[[2,0,0],[1,3],[0]]","10","0","","","","","","6","","","","","","","","",""
"","","","","","single-stim-button","166","588394","0.0-2.0-40.6-1.6","63d6b8b3cc8e5c3debfd9676","E1","batch5","","646","tol_toboard","","","","tol_peg_2","646","646","0","[[2,0,0],[1,3],[0]]","7","[[2,0,0],[1,3],[0]]","10","0","","","","","","6","","","","","","","","",""
"","","","","","poldrack-single-stim","167","589405","0.0-2.0-41.0","63d6b8b3cc8e5c3debfd9676","E1","batch5","","-1","tol_feedback","","","true","","1000","1000","500","","","","","","-1","none","true","49602","55435","","","","","","","","","",""
"","","","","","html-button-response","168","591688","0.0-2.0-42.0","63d6b8b3cc8e5c3debfd9676","E1","batch5","","2281","tol_trial_num","<div class = centerbox><p class = center-block-text>problem <strong>12</strong> out of 25 problems</p></div>","0","","","","","","","","","","","","","","","","","","","","","","","","",""
"","","","","","single-stim-button","169","597233","0.0-2.0-43.0-0.0","63d6b8b3cc8e5c3debfd9676","E1","batch5","","5544","tol_tohand","","","","tol_peg_1","5544","5544","0","[[1,0,0],[3,0],[0]]","1","[[2,3,0],[0,0],[1]]","11","0","","","","","","4","","","","","","","","",""
"","","","","","single-stim-button","170","598387","0.0-2.0-43.0-1.0","63d6b8b3cc8e5c3debfd9676","E1","batch5","","1153","tol_toboard","","","","tol_peg_2","1153","1153","0","[[1,0,0],[3,2],[0]]","1","[[2,3,0],[0,0],[1]]","11","0","","","","","","4","","","","","","","","",""
"","","","","","single-stim-button","171","599056","0.0-2.0-43.1-0.1","63d6b8b3cc8e5c3debfd9676","E1","batch5","","669","tol_tohand","","","","tol_peg_1","669","669","0","[[0,0,0],[3,2],[0]]","2","[[2,3,0],[0,0],[1]]","11","0","","","","","","4","","","","","","","","",""
"","","","","","single-stim-button","172","599801","0.0-2.0-43.1-1.1","63d6b8b3cc8e5c3debfd9676","E1","batch5","","743","tol_toboard","","","","tol_peg_3","743","743","0","[[0,0,0],[3,2],[1]]","2","[[2,3,0],[0,0],[1]]","11","0","","","","","","4","","","","","","","","",""
"","","","","","single-stim-button","173","600572","0.0-2.0-43.2-0.2","63d6b8b3cc8e5c3debfd9676","E1","batch5","","771","tol_tohand","","","","tol_peg_2","771","771","0","[[0,0,0],[3,0],[1]]","3","[[2,3,0],[0,0],[1]]","11","0","","","","","","4","","","","","","","","",""
"","","","","","single-stim-button","174","601192","0.0-2.0-43.2-1.2","63d6b8b3cc8e5c3debfd9676","E1","batch5","","619","tol_toboard","","","","tol_peg_1","619","619","0","[[2,0,0],[3,0],[1]]","3","[[2,3,0],[0,0],[1]]","11","0","","","","","","4","","","","","","","","",""
"","","","","","single-stim-button","175","601778","0.0-2.0-43.3-0.3","63d6b8b3cc8e5c3debfd9676","E1","batch5","","584","tol_tohand","","","","tol_peg_2","584","584","0","[[2,0,0],[0,0],[1]]","4","[[2,3,0],[0,0],[1]]","11","0","","","","","","4","","","","","","","","",""
"","","","","","single-stim-button","176","602407","0.0-2.0-43.3-1.3","63d6b8b3cc8e5c3debfd9676","E1","batch5","","629","tol_toboard","","","","tol_peg_1","629","629","0","[[2,3,0],[0,0],[1]]","4","[[2,3,0],[0,0],[1]]","11","0","","","","","","4","","","","","","","","",""
"","","","","","poldrack-single-stim","177","603416","0.0-2.0-44.0","63d6b8b3cc8e5c3debfd9676","E1","batch5","","-1","tol_feedback","","","true","","1000","1000","500","","","","","","-1","none","true","5544","7568","","","","","","","","","",""
"","","","","","html-button-response","178","605003","0.0-2.0-45.0","63d6b8b3cc8e5c3debfd9676","E1","batch5","","1585.0999999046326","tol_trial_num","<div class = centerbox><p class = center-block-text>problem <strong>13</strong> out of 25 problems</p></div>","0","","","","","","","","","","","","","","","","","","","","","","","","",""
"","","","","","single-stim-button","179","635628","0.0-2.0-46.0-0.0","63d6b8b3cc8e5c3debfd9676","E1","batch5","","30625","tol_tohand","","","","tol_peg_2","30625","30625","0","[[1,2,0],[0,0],[0]]","1","[[0,0,0],[2,3],[1]]","12","0","","","","","","4","","","","","","","","",""
"","","","","","single-stim-button","180","636685","0.0-2.0-46.0-1.0","63d6b8b3cc8e5c3debfd9676","E1","batch5","","1056","tol_toboard","","","","tol_peg_3","1056","1056","0","[[1,2,0],[0,0],[3]]","1","[[0,0,0],[2,3],[1]]","12","0","","","","","","4","","","","","","","","",""
"","","","","","single-stim-button","181","637656","0.0-2.0-46.1-0.1","63d6b8b3cc8e5c3debfd9676","E1","batch5","","970","tol_tohand","","","","tol_peg_1","970","970","0","[[1,0,0],[0,0],[3]]","2","[[0,0,0],[2,3],[1]]","12","0","","","","","","4","","","","","","","","",""
"","","","","","single-stim-button","182","638448","0.0-2.0-46.1-1.1","63d6b8b3cc8e5c3debfd9676","E1","batch5","","790","tol_toboard","","","","tol_peg_2","790","790","0","[[1,0,0],[2,0],[3]]","2","[[0,0,0],[2,3],[1]]","12","0","","","","","","4","","","","","","","","",""
"","","","","","single-stim-button","183","639060","0.0-2.0-46.2-0.2","63d6b8b3cc8e5c3debfd9676","E1","batch5","","611","tol_tohand","","","","tol_peg_3","611","611","0","[[1,0,0],[2,0],[0]]","3","[[0,0,0],[2,3],[1]]","12","0","","","","","","4","","","","","","","","",""
"","","","","","single-stim-button","184","639693","0.0-2.0-46.2-1.2","63d6b8b3cc8e5c3debfd9676","E1","batch5","","633","tol_toboard","","","","tol_peg_2","633","633","0","[[1,0,0],[2,3],[0]]","3","[[0,0,0],[2,3],[1]]","12","0","","","","","","4","","","","","","","","",""
"","","","","","single-stim-button","185","640274","0.0-2.0-46.3-0.3","63d6b8b3cc8e5c3debfd9676","E1","batch5","","580","tol_tohand","","","","tol_peg_1","580","580","0","[[0,0,0],[2,3],[0]]","4","[[0,0,0],[2,3],[1]]","12","0","","","","","","4","","","","","","","","",""
"","","","","","single-stim-button","186","640811","0.0-2.0-46.3-1.3","63d6b8b3cc8e5c3debfd9676","E1","batch5","","536","tol_toboard","","","","tol_peg_3","536","536","0","[[0,0,0],[2,3],[1]]","4","[[0,0,0],[2,3],[1]]","12","0","","","","","","4","","","","","","","","",""
"","","","","","poldrack-single-stim","187","641817","0.0-2.0-47.0","63d6b8b3cc8e5c3debfd9676","E1","batch5","","-1","tol_feedback","","","true","","1000","1000","500","","","","","","-1","none","true","30625","32786","","","","","","","","","",""
"","","","","","html-button-response","188","644975","0.0-2.0-48.0","63d6b8b3cc8e5c3debfd9676","E1","batch5","","3157.5","attention_check","<p class = block-text>How many balls are in your board<br></p>","1","true","","","","","","","","","","","","","","","","","","","","","","","",""
"","","","","","html-button-response","189","648512","0.0-2.0-49.0","63d6b8b3cc8e5c3debfd9676","E1","batch5","","3535.2999999523163","tol_trial_num","<div class = centerbox><p class = center-block-text>problem <strong>14</strong> out of 25 problems</p></div>","0","","","","","","","","","","","","","","","","","","","","","","","","",""
"","","","","","single-stim-button","190","656724","0.0-2.0-50.0-0.0","63d6b8b3cc8e5c3debfd9676","E1","batch5","","8210","tol_tohand","","","","tol_peg_1","8210","8210","0","[[2,0,0],[3,0],[0]]","1","[[1,2,0],[3,0],[0]]","13","0","","","","","","4","","","","","","","","",""
"","","","","","single-stim-button","191","657719","0.0-2.0-50.0-1.0","63d6b8b3cc8e5c3debfd9676","E1","batch5","","995","tol_toboard","","","","tol_peg_2","995","995","0","[[2,0,0],[3,1],[0]]","1","[[1,2,0],[3,0],[0]]","13","0","","","","","","4","","","","","","","","",""
"","","","","","single-stim-button","192","658730","0.0-2.0-50.1-0.1","63d6b8b3cc8e5c3debfd9676","E1","batch5","","1010","tol_tohand","","","","tol_peg_1","1010","1010","0","[[0,0,0],[3,1],[0]]","2","[[1,2,0],[3,0],[0]]","13","0","","","","","","4","","","","","","","","",""
"","","","","","single-stim-button","193","659409","0.0-2.0-50.1-1.1","63d6b8b3cc8e5c3debfd9676","E1","batch5","","678","tol_toboard","","","","tol_peg_3","678","678","0","[[0,0,0],[3,1],[2]]","2","[[1,2,0],[3,0],[0]]","13","0","","","","","","4","","","","","","","","",""
"","","","","","single-stim-button","194","660054","0.0-2.0-50.2-0.2","63d6b8b3cc8e5c3debfd9676","E1","batch5","","644","tol_tohand","","","","tol_peg_2","644","644","0","[[0,0,0],[3,0],[2]]","3","[[1,2,0],[3,0],[0]]","13","0","","","","","","4","","","","","","","","",""
"","","","","","single-stim-button","195","661198","0.0-2.0-50.2-1.2","63d6b8b3cc8e5c3debfd9676","E1","batch5","","1143","tol_toboard","","","","tol_peg_1","1143","1143","0","[[1,0,0],[3,0],[2]]","3","[[1,2,0],[3,0],[0]]","13","0","","","","","","4","","","","","","","","",""
"","","","","","single-stim-button","196","661983","0.0-2.0-50.3-0.3","63d6b8b3cc8e5c3debfd9676","E1","batch5","","784","tol_tohand","","","","tol_peg_3","784","784","0","[[1,0,0],[3,0],[0]]","4","[[1,2,0],[3,0],[0]]","13","0","","","","","","4","","","","","","","","",""
"","","","","","single-stim-button","197","662857","0.0-2.0-50.3-1.3","63d6b8b3cc8e5c3debfd9676","E1","batch5","","873","tol_toboard","","","","tol_peg_1","873","873","0","[[1,2,0],[3,0],[0]]","4","[[1,2,0],[3,0],[0]]","13","0","","","","","","4","","","","","","","","",""
"","","","","","poldrack-single-stim","198","663868","0.0-2.0-51.0","63d6b8b3cc8e5c3debfd9676","E1","batch5","","-1","tol_feedback","","","true","","1000","1000","500","","","","","","-1","none","true","8210","10648","","","","","","","","","",""
"","","","","","html-button-response","199","665192","0.0-2.0-52.0","63d6b8b3cc8e5c3debfd9676","E1","batch5","","1323.1999999284744","tol_trial_num","<div class = centerbox><p class = center-block-text>problem <strong>15</strong> out of 25 problems</p></div>","0","","","","","","","","","","","","","","","","","","","","","","","","",""
"","","","","","single-stim-button","200","669643","0.0-2.0-53.0-0.0","63d6b8b3cc8e5c3debfd9676","E1","batch5","","4450","tol_tohand","","","","tol_peg_1","4450","4450","0","[[1,0,0],[3,0],[0]]","1","[[2,0,0],[3,0],[1]]","14","0","","","","","","3","","","","","","","","",""
"","","","","","single-stim-button","201","672795","0.0-2.0-53.0-1.0","63d6b8b3cc8e5c3debfd9676","E1","batch5","","3150","tol_toboard","","","","tol_peg_2","3150","3150","0","[[1,0,0],[3,2],[0]]","1","[[2,0,0],[3,0],[1]]","14","0","","","","","","3","","","","","","","","",""
"","","","","","single-stim-button","202","673619","0.0-2.0-53.1-0.1","63d6b8b3cc8e5c3debfd9676","E1","batch5","","823","tol_tohand","","","","tol_peg_1","823","823","0","[[0,0,0],[3,2],[0]]","2","[[2,0,0],[3,0],[1]]","14","0","","","","","","3","","","","","","","","",""
"","","","","","single-stim-button","203","674462","0.0-2.0-53.1-1.1","63d6b8b3cc8e5c3debfd9676","E1","batch5","","843","tol_toboard","","","","tol_peg_3","843","843","0","[[0,0,0],[3,2],[1]]","2","[[2,0,0],[3,0],[1]]","14","0","","","","","","3","","","","","","","","",""
"","","","","","single-stim-button","204","675358","0.0-2.0-53.2-0.2","63d6b8b3cc8e5c3debfd9676","E1","batch5","","894","tol_tohand","","","","tol_peg_2","894","894","0","[[0,0,0],[3,0],[1]]","3","[[2,0,0],[3,0],[1]]","14","0","","","","","","3","","","","","","","","",""
"","","","","","single-stim-button","205","676020","0.0-2.0-53.2-1.2","63d6b8b3cc8e5c3debfd9676","E1","batch5","","661","tol_toboard","","","","tol_peg_1","661","661","0","[[2,0,0],[3,0],[1]]","3","[[2,0,0],[3,0],[1]]","14","0","","","","","","3","","","","","","","","",""
"","","","","","poldrack-single-stim","206","677030","0.0-2.0-54.0","63d6b8b3cc8e5c3debfd9676","E1","batch5","","-1","tol_feedback","","","true","","1000","1000","500","","","","","","-1","none","true","4450","6167","","","","","","","","","",""
"","","","","","html-button-response","207","678695","0.0-2.0-55.0","63d6b8b3cc8e5c3debfd9676","E1","batch5","","1664.2999999523163","tol_trial_num","<div class = centerbox><p class = center-block-text>problem <strong>16</strong> out of 25 problems</p></div>","0","","","","","","","","","","","","","","","","","","","","","","","","",""
"","","","","","single-stim-button","208","698445","0.0-2.0-56.0-0.0","63d6b8b3cc8e5c3debfd9676","E1","batch5","","19748","tol_tohand","","","","tol_peg_2","19748","19748","0","[[0,0,0],[2,0],[1]]","1","[[2,3,0],[1,0],[0]]","15","0","","","","","","7","","","","","","","","",""
"","","","","","single-stim-button","209","699321","0.0-2.0-56.0-1.0","63d6b8b3cc8e5c3debfd9676","E1","batch5","","875","tol_toboard","","","","tol_peg_1","875","875","0","[[3,0,0],[2,0],[1]]","1","[[2,3,0],[1,0],[0]]","15","0","","","","","","7","","","","","","","","",""
"","","","","","single-stim-button","210","701139","0.0-2.0-56.1-0.1","63d6b8b3cc8e5c3debfd9676","E1","batch5","","1818","tol_tohand","","","","tol_peg_2","1818","1818","0","[[3,0,0],[0,0],[1]]","2","[[2,3,0],[1,0],[0]]","15","0","","","","","","7","","","","","","","","",""
"","","","","","single-stim-button","211","702004","0.0-2.0-56.1-1.1","63d6b8b3cc8e5c3debfd9676","E1","batch5","","863","tol_toboard","","","","tol_peg_1","863","863","0","[[3,2,0],[0,0],[1]]","2","[[2,3,0],[1,0],[0]]","15","0","","","","","","7","","","","","","","","",""
"","","","","","single-stim-button","212","703102","0.0-2.0-56.2-0.2","63d6b8b3cc8e5c3debfd9676","E1","batch5","","1096","tol_tohand","","","","tol_peg_3","1096","1096","0","[[3,2,0],[0,0],[0]]","3","[[2,3,0],[1,0],[0]]","15","0","","","","","","7","","","","","","","","",""
"","","","","","single-stim-button","213","704130","0.0-2.0-56.2-1.2","63d6b8b3cc8e5c3debfd9676","E1","batch5","","1027","tol_toboard","","","","tol_peg_2","1027","1027","0","[[3,2,0],[1,0],[0]]","3","[[2,3,0],[1,0],[0]]","15","0","","","","","","7","","","","","","","","",""
"","","","","","single-stim-button","214","705260","0.0-2.0-56.3-0.3","63d6b8b3cc8e5c3debfd9676","E1","batch5","","1129","tol_tohand","","","","tol_peg_1","1129","1129","0","[[3,0,0],[1,0],[0]]","4","[[2,3,0],[1,0],[0]]","15","0","","","","","","7","","","","","","","","",""
"","","","","","single-stim-button","215","706222","0.0-2.0-56.3-1.3","63d6b8b3cc8e5c3debfd9676","E1","batch5","","960","tol_toboard","","","","tol_peg_2","960","960","0","[[3,0,0],[1,2],[0]]","4","[[2,3,0],[1,0],[0]]","15","0","","","","","","7","","","","","","","","",""
"","","","","","single-stim-button","216","706909","0.0-2.0-56.4-0.4","63d6b8b3cc8e5c3debfd9676","E1","batch5","","686","tol_tohand","","","","tol_peg_1","686","686","0","[[0,0,0],[1,2],[0]]","5","[[2,3,0],[1,0],[0]]","15","0","","","","","","7","","","","","","","","",""
"","","","","","single-stim-button","217","707638","0.0-2.0-56.4-1.4","63d6b8b3cc8e5c3debfd9676","E1","batch5","","728","tol_toboard","","","","tol_peg_3","728","728","0","[[0,0,0],[1,2],[3]]","5","[[2,3,0],[1,0],[0]]","15","0","","","","","","7","","","","","","","","",""
"","","","","","single-stim-button","218","708451","0.0-2.0-56.5-0.5","63d6b8b3cc8e5c3debfd9676","E1","batch5","","812","tol_tohand","","","","tol_peg_2","812","812","0","[[0,0,0],[1,0],[3]]","6","[[2,3,0],[1,0],[0]]","15","0","","","","","","7","","","","","","","","",""
"","","","","","single-stim-button","219","709094","0.0-2.0-56.5-1.5","63d6b8b3cc8e5c3debfd9676","E1","batch5","","641","tol_toboard","","","","tol_peg_1","641","641","0","[[2,0,0],[1,0],[3]]","6","[[2,3,0],[1,0],[0]]","15","0","","","","","","7","","","","","","","","",""
"","","","","","single-stim-button","220","709824","0.0-2.0-56.6-0.6","63d6b8b3cc8e5c3debfd9676","E1","batch5","","730","tol_tohand","","","","tol_peg_3","730","730","0","[[2,0,0],[1,0],[0]]","7","[[2,3,0],[1,0],[0]]","15","0","","","","","","7","","","","","","","","",""
"","","","","","single-stim-button","221","711740","0.0-2.0-56.6-1.6","63d6b8b3cc8e5c3debfd9676","E1","batch5","","1914","tol_toboard","","","","tol_peg_1","1914","1914","0","[[2,3,0],[1,0],[0]]","7","[[2,3,0],[1,0],[0]]","15","0","","","","","","7","","","","","","","","",""
"","","","","","poldrack-single-stim","222","712756","0.0-2.0-57.0","63d6b8b3cc8e5c3debfd9676","E1","batch5","","-1","tol_feedback","","","true","","1000","1000","500","","","","","","-1","none","true","19748","26019","","","","","","","","","",""
"","","","","","html-button-response","223","714228","0.0-2.0-58.0","63d6b8b3cc8e5c3debfd9676","E1","batch5","","1470.8000000715256","tol_trial_num","<div class = centerbox><p class = center-block-text>problem <strong>17</strong> out of 25 problems</p></div>","0","","","","","","","","","","","","","","","","","","","","","","","","",""
"","","","","","single-stim-button","224","720464","0.0-2.0-59.0-0.0","63d6b8b3cc8e5c3debfd9676","E1","batch5","","6235","tol_tohand","","","","tol_peg_2","6235","6235","0","[[1,2,0],[0,0],[0]]","1","[[3,1,0],[2,0],[0]]","16","0","","","","","","5","","","","","","","","",""
"","","","","","single-stim-button","225","721126","0.0-2.0-59.0-1.0","63d6b8b3cc8e5c3debfd9676","E1","batch5","","660","tol_toboard","","","","tol_peg_3","660","660","0","[[1,2,0],[0,0],[3]]","1","[[3,1,0],[2,0],[0]]","16","0","","","","","","5","","","","","","","","",""
"","","","","","single-stim-button","226","722118","0.0-2.0-59.1-0.1","63d6b8b3cc8e5c3debfd9676","E1","batch5","","991","tol_tohand","","","","tol_peg_1","991","991","0","[[1,0,0],[0,0],[3]]","2","[[3,1,0],[2,0],[0]]","16","0","","","","","","5","","","","","","","","",""
"","","","","","single-stim-button","227","723313","0.0-2.0-59.1-1.1","63d6b8b3cc8e5c3debfd9676","E1","batch5","","1192","tol_toboard","","","","tol_peg_2","1192","1192","0","[[1,0,0],[2,0],[3]]","2","[[3,1,0],[2,0],[0]]","16","0","","","","","","5","","","","","","","","",""
"","","","","","single-stim-button","228","724230","0.0-2.0-59.2-0.2","63d6b8b3cc8e5c3debfd9676","E1","batch5","","916","tol_tohand","","","","tol_peg_1","916","916","0","[[0,0,0],[2,0],[3]]","3","[[3,1,0],[2,0],[0]]","16","0","","","","","","5","","","","","","","","",""
"","","","","","single-stim-button","229","724968","0.0-2.0-59.2-1.2","63d6b8b3cc8e5c3debfd9676","E1","batch5","","737","tol_toboard","","","","tol_peg_2","737","737","0","[[0,0,0],[2,1],[3]]","3","[[3,1,0],[2,0],[0]]","16","0","","","","","","5","","","","","","","","",""
"","","","","","single-stim-button","230","725787","0.0-2.0-59.3-0.3","63d6b8b3cc8e5c3debfd9676","E1","batch5","","817","tol_tohand","","","","tol_peg_3","817","817","0","[[0,0,0],[2,1],[0]]","4","[[3,1,0],[2,0],[0]]","16","0","","","","","","5","","","","","","","","",""
"","","","","","single-stim-button","231","726597","0.0-2.0-59.3-1.3","63d6b8b3cc8e5c3debfd9676","E1","batch5","","808","tol_toboard","","","","tol_peg_1","808","808","0","[[3,0,0],[2,1],[0]]","4","[[3,1,0],[2,0],[0]]","16","0","","","","","","5","","","","","","","","",""
"","","","","","single-stim-button","232","727998","0.0-2.0-59.4-0.4","63d6b8b3cc8e5c3debfd9676","E1","batch5","","1400","tol_tohand","","","","tol_peg_2","1400","1400","0","[[3,0,0],[2,0],[0]]","5","[[3,1,0],[2,0],[0]]","16","0","","","","","","5","","","","","","","","",""
"","","","","","single-stim-button","233","728701","0.0-2.0-59.4-1.4","63d6b8b3cc8e5c3debfd9676","E1","batch5","","702","tol_toboard","","","","tol_peg_1","702","702","0","[[3,1,0],[2,0],[0]]","5","[[3,1,0],[2,0],[0]]","16","0","","","","","","5","","","","","","","","",""
"","","","","","poldrack-single-stim","234","729716","0.0-2.0-60.0","63d6b8b3cc8e5c3debfd9676","E1","batch5","","-1","tol_feedback","","","true","","1000","1000","500","","","","","","-1","none","true","6235","10359","","","","","","","","","",""
"","","","","","html-button-response","235","731395","0.0-2.0-61.0","63d6b8b3cc8e5c3debfd9676","E1","batch5","","1678.2000000476837","tol_trial_num","<div class = centerbox><p class = center-block-text>problem <strong>18</strong> out of 25 problems</p></div>","0","","","","","","","","","","","","","","","","","","","","","","","","",""
"","","","","","single-stim-button","236","742512","0.0-2.0-62.0-0.0","63d6b8b3cc8e5c3debfd9676","E1","batch5","","11116","tol_tohand","","","","tol_peg_2","11116","11116","0","[[1,2,0],[0,0],[0]]","1","[[3,0,0],[2,0],[1]]","17","0","","","","","","5","","","","","","","","",""
"","","","","","single-stim-button","237","744031","0.0-2.0-62.0-1.0","63d6b8b3cc8e5c3debfd9676","E1","batch5","","1518","tol_toboard","","","","tol_peg_3","1518","1518","0","[[1,2,0],[0,0],[3]]","1","[[3,0,0],[2,0],[1]]","17","0","","","","","","5","","","","","","","","",""
"","","","","","single-stim-button","238","744998","0.0-2.0-62.1-0.1","63d6b8b3cc8e5c3debfd9676","E1","batch5","","965","tol_tohand","","","","tol_peg_1","965","965","0","[[1,0,0],[0,0],[3]]","2","[[3,0,0],[2,0],[1]]","17","0","","","","","","5","","","","","","","","",""
"","","","","","single-stim-button","239","745534","0.0-2.0-62.1-1.1","63d6b8b3cc8e5c3debfd9676","E1","batch5","","534","tol_toboard","","","","tol_peg_2","534","534","0","[[1,0,0],[2,0],[3]]","2","[[3,0,0],[2,0],[1]]","17","0","","","","","","5","","","","","","","","",""
"","","","","","single-stim-button","240","746120","0.0-2.0-62.2-0.2","63d6b8b3cc8e5c3debfd9676","E1","batch5","","584","tol_tohand","","","","tol_peg_1","584","584","0","[[0,0,0],[2,0],[3]]","3","[[3,0,0],[2,0],[1]]","17","0","","","","","","5","","","","","","","","",""
"","","","","","single-stim-button","241","746581","0.0-2.0-62.2-1.2","63d6b8b3cc8e5c3debfd9676","E1","batch5","","459","tol_toboard","","","","tol_peg_2","459","459","0","[[0,0,0],[2,1],[3]]","3","[[3,0,0],[2,0],[1]]","17","0","","","","","","5","","","","","","","","",""
"","","","","","single-stim-button","242","747108","0.0-2.0-62.3-0.3","63d6b8b3cc8e5c3debfd9676","E1","batch5","","526","tol_tohand","","","","tol_peg_3","526","526","0","[[0,0,0],[2,1],[0]]","4","[[3,0,0],[2,0],[1]]","17","0","","","","","","5","","","","","","","","",""
"","","","","","single-stim-button","243","747736","0.0-2.0-62.3-1.3","63d6b8b3cc8e5c3debfd9676","E1","batch5","","627","tol_toboard","","","","tol_peg_1","627","627","0","[[3,0,0],[2,1],[0]]","4","[[3,0,0],[2,0],[1]]","17","0","","","","","","5","","","","","","","","",""
"","","","","","single-stim-button","244","748323","0.0-2.0-62.4-0.4","63d6b8b3cc8e5c3debfd9676","E1","batch5","","586","tol_tohand","","","","tol_peg_2","586","586","0","[[3,0,0],[2,0],[0]]","5","[[3,0,0],[2,0],[1]]","17","0","","","","","","5","","","","","","","","",""
"","","","","","single-stim-button","245","749380","0.0-2.0-62.4-1.4","63d6b8b3cc8e5c3debfd9676","E1","batch5","","1056","tol_toboard","","","","tol_peg_3","1056","1056","0","[[3,0,0],[2,0],[1]]","5","[[3,0,0],[2,0],[1]]","17","0","","","","","","5","","","","","","","","",""
"","","","","","poldrack-single-stim","246","750392","0.0-2.0-63.0","63d6b8b3cc8e5c3debfd9676","E1","batch5","","-1","tol_feedback","","","true","","1000","1000","500","","","","","","-1","none","true","11116","13777","","","","","","","","","",""
"","","","","","html-button-response","247","752676","0.0-2.0-64.0","63d6b8b3cc8e5c3debfd9676","E1","batch5","","2282.7999999523163","tol_trial_num","<div class = centerbox><p class = center-block-text>problem <strong>19</strong> out of 25 problems</p></div>","0","","","","","","","","","","","","","","","","","","","","","","","","",""
"","","","","","single-stim-button","248","786532","0.0-2.0-65.0-0.0","63d6b8b3cc8e5c3debfd9676","E1","batch5","","33855","tol_tohand","","","","tol_peg_1","33855","33855","0","[[1,0,0],[3,0],[0]]","1","[[0,0,0],[1,2],[3]]","18","0","","","","","","7","","","","","","","","",""
"","","","","","single-stim-button","249","787932","0.0-2.0-65.0-1.0","63d6b8b3cc8e5c3debfd9676","E1","batch5","","1398","tol_toboard","","","","tol_peg_2","1398","1398","0","[[1,0,0],[3,2],[0]]","1","[[0,0,0],[1,2],[3]]","18","0","","","","","","7","","","","","","","","",""
"","","","","","single-stim-button","250","788908","0.0-2.0-65.1-0.1","63d6b8b3cc8e5c3debfd9676","E1","batch5","","976","tol_tohand","","","","tol_peg_1","976","976","0","[[0,0,0],[3,2],[0]]","2","[[0,0,0],[1,2],[3]]","18","0","","","","","","7","","","","","","","","",""
"","","","","","single-stim-button","251","789742","0.0-2.0-65.1-1.1","63d6b8b3cc8e5c3debfd9676","E1","batch5","","833","tol_toboard","","","","tol_peg_3","833","833","0","[[0,0,0],[3,2],[1]]","2","[[0,0,0],[1,2],[3]]","18","0","","","","","","7","","","","","","","","",""
"","","","","","single-stim-button","252","790487","0.0-2.0-65.2-0.2","63d6b8b3cc8e5c3debfd9676","E1","batch5","","744","tol_tohand","","","","tol_peg_2","744","744","0","[[0,0,0],[3,0],[1]]","3","[[0,0,0],[1,2],[3]]","18","0","","","","","","7","","","","","","","","",""
"","","","","","single-stim-button","253","791096","0.0-2.0-65.2-1.2","63d6b8b3cc8e5c3debfd9676","E1","batch5","","607","tol_toboard","","","","tol_peg_1","607","607","0","[[2,0,0],[3,0],[1]]","3","[[0,0,0],[1,2],[3]]","18","0","","","","","","7","","","","","","","","",""
"","","","","","single-stim-button","254","791911","0.0-2.0-65.3-0.3","63d6b8b3cc8e5c3debfd9676","E1","batch5","","814","tol_tohand","","","","tol_peg_3","814","814","0","[[2,0,0],[3,0],[0]]","4","[[0,0,0],[1,2],[3]]","18","0","","","","","","7","","","","","","","","",""
"","","","","","single-stim-button","255","792876","0.0-2.0-65.3-1.3","63d6b8b3cc8e5c3debfd9676","E1","batch5","","964","tol_toboard","","","","tol_peg_1","964","964","0","[[2,1,0],[3,0],[0]]","4","[[0,0,0],[1,2],[3]]","18","0","","","","","","7","","","","","","","","",""
"","","","","","single-stim-button","256","793609","0.0-2.0-65.4-0.4","63d6b8b3cc8e5c3debfd9676","E1","batch5","","732","tol_tohand","","","","tol_peg_2","732","732","0","[[2,1,0],[0,0],[0]]","5","[[0,0,0],[1,2],[3]]","18","0","","","","","","7","","","","","","","","",""
"","","","","","single-stim-button","257","794282","0.0-2.0-65.4-1.4","63d6b8b3cc8e5c3debfd9676","E1","batch5","","673","tol_toboard","","","","tol_peg_3","673","673","0","[[2,1,0],[0,0],[3]]","5","[[0,0,0],[1,2],[3]]","18","0","","","","","","7","","","","","","","","",""
"","","","","","single-stim-button","258","795553","0.0-2.0-65.5-0.5","63d6b8b3cc8e5c3debfd9676","E1","batch5","","1269","tol_tohand","","","","tol_peg_1","1269","1269","0","[[2,0,0],[0,0],[3]]","6","[[0,0,0],[1,2],[3]]","18","0","","","","","","7","","","","","","","","",""
"","","","","","single-stim-button","259","796144","0.0-2.0-65.5-1.5","63d6b8b3cc8e5c3debfd9676","E1","batch5","","589","tol_toboard","","","","tol_peg_2","589","589","0","[[2,0,0],[1,0],[3]]","6","[[0,0,0],[1,2],[3]]","18","0","","","","","","7","","","","","","","","",""
"","","","","","single-stim-button","260","796717","0.0-2.0-65.6-0.6","63d6b8b3cc8e5c3debfd9676","E1","batch5","","572","tol_tohand","","","","tol_peg_1","572","572","0","[[0,0,0],[1,0],[3]]","7","[[0,0,0],[1,2],[3]]","18","0","","","","","","7","","","","","","","","",""
"","","","","","single-stim-button","261","797621","0.0-2.0-65.6-1.6","63d6b8b3cc8e5c3debfd9676","E1","batch5","","903","tol_toboard","","","","tol_peg_2","903","903","0","[[0,0,0],[1,2],[3]]","7","[[0,0,0],[1,2],[3]]","18","0","","","","","","7","","","","","","","","",""
"","","","","","poldrack-single-stim","262","798640","0.0-2.0-66.0","63d6b8b3cc8e5c3debfd9676","E1","batch5","","-1","tol_feedback","","","true","","1000","1000","500","","","","","","-1","none","true","33855","38962","","","","","","","","","",""
"","","","","","html-button-response","263","800112","0.0-2.0-67.0","63d6b8b3cc8e5c3debfd9676","E1","batch5","","1471.5","tol_trial_num","<div class = centerbox><p class = center-block-text>problem <strong>20</strong> out of 25 problems</p></div>","0","","","","","","","","","","","","","","","","","","","","","","","","",""
"","","","","","single-stim-button","264","810761","0.0-2.0-68.0-0.0","63d6b8b3cc8e5c3debfd9676","E1","batch5","","10648","tol_tohand","","","","tol_peg_1","10648","10648","0","[[1,0,0],[3,0],[0]]","1","[[2,1,0],[0,0],[3]]","19","0","","","","","","5","","","","","","","","",""
"","","","","","single-stim-button","265","811596","0.0-2.0-68.0-1.0","63d6b8b3cc8e5c3debfd9676","E1","batch5","","833","tol_toboard","","","","tol_peg_2","833","833","0","[[1,0,0],[3,2],[0]]","1","[[2,1,0],[0,0],[3]]","19","0","","","","","","5","","","","","","","","",""
"","","","","","single-stim-button","266","812549","0.0-2.0-68.1-0.1","63d6b8b3cc8e5c3debfd9676","E1","batch5","","952","tol_tohand","","","","tol_peg_1","952","952","0","[[0,0,0],[3,2],[0]]","2","[[2,1,0],[0,0],[3]]","19","0","","","","","","5","","","","","","","","",""
"","","","","","single-stim-button","267","815281","0.0-2.0-68.1-1.1","63d6b8b3cc8e5c3debfd9676","E1","batch5","","2732","tol_toboard","","","","tol_peg_3","2732","2732","0","[[0,0,0],[3,2],[1]]","2","[[2,1,0],[0,0],[3]]","19","0","","","","","","5","","","","","","","","",""
"","","","","","single-stim-button","268","816042","0.0-2.0-68.2-0.2","63d6b8b3cc8e5c3debfd9676","E1","batch5","","759","tol_tohand","","","","tol_peg_2","759","759","0","[[0,0,0],[3,0],[1]]","3","[[2,1,0],[0,0],[3]]","19","0","","","","","","5","","","","","","","","",""
"","","","","","single-stim-button","269","816626","0.0-2.0-68.2-1.2","63d6b8b3cc8e5c3debfd9676","E1","batch5","","583","tol_toboard","","","","tol_peg_1","583","583","0","[[2,0,0],[3,0],[1]]","3","[[2,1,0],[0,0],[3]]","19","0","","","","","","5","","","","","","","","",""
"","","","","","single-stim-button","270","817260","0.0-2.0-68.3-0.3","63d6b8b3cc8e5c3debfd9676","E1","batch5","","634","tol_tohand","","","","tol_peg_3","634","634","0","[[2,0,0],[3,0],[0]]","4","[[2,1,0],[0,0],[3]]","19","0","","","","","","5","","","","","","","","",""
"","","","","","single-stim-button","271","818010","0.0-2.0-68.3-1.3","63d6b8b3cc8e5c3debfd9676","E1","batch5","","749","tol_toboard","","","","tol_peg_1","749","749","0","[[2,1,0],[3,0],[0]]","4","[[2,1,0],[0,0],[3]]","19","0","","","","","","5","","","","","","","","",""
"","","","","","single-stim-button","272","818585","0.0-2.0-68.4-0.4","63d6b8b3cc8e5c3debfd9676","E1","batch5","","574","tol_tohand","","","","tol_peg_2","574","574","0","[[2,1,0],[0,0],[0]]","5","[[2,1,0],[0,0],[3]]","19","0","","","","","","5","","","","","","","","",""
"","","","","","single-stim-button","273","819169","0.0-2.0-68.4-1.4","63d6b8b3cc8e5c3debfd9676","E1","batch5","","584","tol_toboard","","","","tol_peg_3","584","584","0","[[2,1,0],[0,0],[3]]","5","[[2,1,0],[0,0],[3]]","19","0","","","","","","5","","","","","","","","",""
"","","","","","poldrack-single-stim","274","820171","0.0-2.0-69.0","63d6b8b3cc8e5c3debfd9676","E1","batch5","","-1","tol_feedback","","","true","","1000","1000","500","","","","","","-1","none","true","10648","13567","","","","","","","","","",""
"","","","","","html-button-response","275","821294","0.0-2.0-70.0","63d6b8b3cc8e5c3debfd9676","E1","batch5","","1121.8999999761581","tol_trial_num","<div class = centerbox><p class = center-block-text>problem <strong>21</strong> out of 25 problems</p></div>","0","","","","","","","","","","","","","","","","","","","","","","","","",""
"","","","","","single-stim-button","276","839889","0.0-2.0-71.0-0.0","63d6b8b3cc8e5c3debfd9676","E1","batch5","","18595","tol_tohand","","","","tol_peg_2","18595","18595","0","[[1,2,0],[0,0],[0]]","1","[[3,2,0],[0,0],[1]]","20","0","","","","","","6","","","","","","","","",""
"","","","","","single-stim-button","277","841247","0.0-2.0-71.0-1.0","63d6b8b3cc8e5c3debfd9676","E1","batch5","","1357","tol_toboard","","","","tol_peg_3","1357","1357","0","[[1,2,0],[0,0],[3]]","1","[[3,2,0],[0,0],[1]]","20","0","","","","","","6","","","","","","","","",""
"","","","","","single-stim-button","278","842298","0.0-2.0-71.1-0.1","63d6b8b3cc8e5c3debfd9676","E1","batch5","","1049","tol_tohand","","","","tol_peg_1","1049","1049","0","[[1,0,0],[0,0],[3]]","2","[[3,2,0],[0,0],[1]]","20","0","","","","","","6","","","","","","","","",""
"","","","","","single-stim-button","279","842908","0.0-2.0-71.1-1.1","63d6b8b3cc8e5c3debfd9676","E1","batch5","","609","tol_toboard","","","","tol_peg_2","609","609","0","[[1,0,0],[2,0],[3]]","2","[[3,2,0],[0,0],[1]]","20","0","","","","","","6","","","","","","","","",""
"","","","","","single-stim-button","280","843501","0.0-2.0-71.2-0.2","63d6b8b3cc8e5c3debfd9676","E1","batch5","","592","tol_tohand","","","","tol_peg_1","592","592","0","[[0,0,0],[2,0],[3]]","3","[[3,2,0],[0,0],[1]]","20","0","","","","","","6","","","","","","","","",""
"","","","","","single-stim-button","281","844131","0.0-2.0-71.2-1.2","63d6b8b3cc8e5c3debfd9676","E1","batch5","","629","tol_toboard","","","","tol_peg_2","629","629","0","[[0,0,0],[2,1],[3]]","3","[[3,2,0],[0,0],[1]]","20","0","","","","","","6","","","","","","","","",""
"","","","","","single-stim-button","282","846053","0.0-2.0-71.3-0.3","63d6b8b3cc8e5c3debfd9676","E1","batch5","","1921","tol_tohand","","","","tol_peg_3","1921","1921","0","[[0,0,0],[2,1],[0]]","4","[[3,2,0],[0,0],[1]]","20","0","","","","","","6","","","","","","","","",""
"","","","","","single-stim-button","283","846999","0.0-2.0-71.3-1.3","63d6b8b3cc8e5c3debfd9676","E1","batch5","","945","tol_toboard","","","","tol_peg_1","945","945","0","[[3,0,0],[2,1],[0]]","4","[[3,2,0],[0,0],[1]]","20","0","","","","","","6","","","","","","","","",""
"","","","","","single-stim-button","284","848047","0.0-2.0-71.4-0.4","63d6b8b3cc8e5c3debfd9676","E1","batch5","","1046","tol_tohand","","","","tol_peg_2","1046","1046","0","[[3,0,0],[2,0],[0]]","5","[[3,2,0],[0,0],[1]]","20","0","","","","","","6","","","","","","","","",""
"","","","","","single-stim-button","285","848656","0.0-2.0-71.4-1.4","63d6b8b3cc8e5c3debfd9676","E1","batch5","","608","tol_toboard","","","","tol_peg_3","608","608","0","[[3,0,0],[2,0],[1]]","5","[[3,2,0],[0,0],[1]]","20","0","","","","","","6","","","","","","","","",""
"","","","","","single-stim-button","286","849237","0.0-2.0-71.5-0.5","63d6b8b3cc8e5c3debfd9676","E1","batch5","","580","tol_tohand","","","","tol_peg_2","580","580","0","[[3,0,0],[0,0],[1]]","6","[[3,2,0],[0,0],[1]]","20","0","","","","","","6","","","","","","","","",""
"","","","","","single-stim-button","287","849819","0.0-2.0-71.5-1.5","63d6b8b3cc8e5c3debfd9676","E1","batch5","","582","tol_toboard","","","","tol_peg_1","582","582","0","[[3,2,0],[0,0],[1]]","6","[[3,2,0],[0,0],[1]]","20","0","","","","","","6","","","","","","","","",""
"","","","","","poldrack-single-stim","288","850820","0.0-2.0-72.0","63d6b8b3cc8e5c3debfd9676","E1","batch5","","-1","tol_feedback","","","true","","1000","1000","500","","","","","","-1","none","true","18595","23783","","","","","","","","","",""
"","","","","","html-button-response","289","852911","0.0-2.0-73.0","63d6b8b3cc8e5c3debfd9676","E1","batch5","","2089.399999976158","tol_trial_num","<div class = centerbox><p class = center-block-text>problem <strong>22</strong> out of 25 problems</p></div>","0","","","","","","","","","","","","","","","","","","","","","","","","",""
"","","","","","single-stim-button","290","866189","0.0-2.0-74.0-0.0","63d6b8b3cc8e5c3debfd9676","E1","batch5","","13277","tol_tohand","","","","tol_peg_1","13277","13277","0","[[0,0,0],[2,3],[0]]","1","[[0,0,0],[1,2],[3]]","21","0","","","","","","6","","","","","","","","",""
"","","","","","single-stim-button","291","867237","0.0-2.0-74.0-1.0","63d6b8b3cc8e5c3debfd9676","E1","batch5","","1046","tol_toboard","","","","tol_peg_3","1046","1046","0","[[0,0,0],[2,3],[1]]","1","[[0,0,0],[1,2],[3]]","21","0","","","","","","6","","","","","","","","",""
"","","","","","single-stim-button","292","867952","0.0-2.0-74.1-0.1","63d6b8b3cc8e5c3debfd9676","E1","batch5","","715","tol_tohand","","","","tol_peg_2","715","715","0","[[0,0,0],[2,0],[1]]","2","[[0,0,0],[1,2],[3]]","21","0","","","","","","6","","","","","","","","",""
"","","","","","single-stim-button","293","868902","0.0-2.0-74.1-1.1","63d6b8b3cc8e5c3debfd9676","E1","batch5","","950","tol_toboard","","","","tol_peg_1","950","950","0","[[3,0,0],[2,0],[1]]","2","[[0,0,0],[1,2],[3]]","21","0","","","","","","6","","","","","","","","",""
"","","","","","single-stim-button","294","869856","0.0-2.0-74.2-0.2","63d6b8b3cc8e5c3debfd9676","E1","batch5","","953","tol_tohand","","","","tol_peg_2","953","953","0","[[3,0,0],[0,0],[1]]","3","[[0,0,0],[1,2],[3]]","21","0","","","","","","6","","","","","","","","",""
"","","","","","single-stim-button","295","870453","0.0-2.0-74.2-1.2","63d6b8b3cc8e5c3debfd9676","E1","batch5","","597","tol_toboard","","","","tol_peg_1","597","597","0","[[3,2,0],[0,0],[1]]","3","[[0,0,0],[1,2],[3]]","21","0","","","","","","6","","","","","","","","",""
"","","","","","single-stim-button","296","871923","0.0-2.0-74.3-0.3","63d6b8b3cc8e5c3debfd9676","E1","batch5","","1469","tol_tohand","","","","tol_peg_3","1469","1469","0","[[3,2,0],[0,0],[0]]","4","[[0,0,0],[1,2],[3]]","21","0","","","","","","6","","","","","","","","",""
"","","","","","single-stim-button","297","872485","0.0-2.0-74.3-1.3","63d6b8b3cc8e5c3debfd9676","E1","batch5","","562","tol_toboard","","","","tol_peg_2","562","562","0","[[3,2,0],[1,0],[0]]","4","[[0,0,0],[1,2],[3]]","21","0","","","","","","6","","","","","","","","",""
"","","","","","single-stim-button","298","873110","0.0-2.0-74.4-0.4","63d6b8b3cc8e5c3debfd9676","E1","batch5","","624","tol_tohand","","","","tol_peg_1","624","624","0","[[3,0,0],[1,0],[0]]","5","[[0,0,0],[1,2],[3]]","21","0","","","","","","6","","","","","","","","",""
"","","","","","single-stim-button","299","873710","0.0-2.0-74.4-1.4","63d6b8b3cc8e5c3debfd9676","E1","batch5","","599","tol_toboard","","","","tol_peg_2","599","599","0","[[3,0,0],[1,2],[0]]","5","[[0,0,0],[1,2],[3]]","21","0","","","","","","6","","","","","","","","",""
"","","","","","single-stim-button","300","874402","0.0-2.0-74.5-0.5","63d6b8b3cc8e5c3debfd9676","E1","batch5","","691","tol_tohand","","","","tol_peg_1","691","691","0","[[0,0,0],[1,2],[0]]","6","[[0,0,0],[1,2],[3]]","21","0","","","","","","6","","","","","","","","",""
"","","","","","single-stim-button","301","875200","0.0-2.0-74.5-1.5","63d6b8b3cc8e5c3debfd9676","E1","batch5","","797","tol_toboard","","","","tol_peg_3","797","797","0","[[0,0,0],[1,2],[3]]","6","[[0,0,0],[1,2],[3]]","21","0","","","","","","6","","","","","","","","",""
"","","","","","poldrack-single-stim","302","876207","0.0-2.0-75.0","63d6b8b3cc8e5c3debfd9676","E1","batch5","","-1","tol_feedback","","","true","","1000","1000","500","","","","","","-1","none","true","13277","17729","","","","","","","","","",""
"","","","","","html-button-response","303","877325","0.0-2.0-76.0","63d6b8b3cc8e5c3debfd9676","E1","batch5","","1117.5","tol_trial_num","<div class = centerbox><p class = center-block-text>problem <strong>23</strong> out of 25 problems</p></div>","0","","","","","","","","","","","","","","","","","","","","","","","","",""
"","","","","","single-stim-button","304","882579","0.0-2.0-77.0-0.0","63d6b8b3cc8e5c3debfd9676","E1","batch5","","5254","tol_tohand","","","","tol_peg_1","5254","5254","0","[[1,0,0],[3,0],[0]]","1","[[1,3,2],[0,0],[0]]","22","0","","","","","","3","","","","","","","","",""
"","","","","","single-stim-button","305","883557","0.0-2.0-77.0-1.0","63d6b8b3cc8e5c3debfd9676","E1","batch5","","977","tol_toboard","","","","tol_peg_3","977","977","0","[[1,0,0],[3,0],[2]]","1","[[1,3,2],[0,0],[0]]","22","0","","","","","","3","","","","","","","","",""
"","","","","","single-stim-button","306","884325","0.0-2.0-77.1-0.1","63d6b8b3cc8e5c3debfd9676","E1","batch5","","767","tol_tohand","","","","tol_peg_2","767","767","0","[[1,0,0],[0,0],[2]]","2","[[1,3,2],[0,0],[0]]","22","0","","","","","","3","","","","","","","","",""
"","","","","","single-stim-button","307","884936","0.0-2.0-77.1-1.1","63d6b8b3cc8e5c3debfd9676","E1","batch5","","610","tol_toboard","","","","tol_peg_1","610","610","0","[[1,3,0],[0,0],[2]]","2","[[1,3,2],[0,0],[0]]","22","0","","","","","","3","","","","","","","","",""
"","","","","","single-stim-button","308","886068","0.0-2.0-77.2-0.2","63d6b8b3cc8e5c3debfd9676","E1","batch5","","1132","tol_tohand","","","","tol_peg_3","1132","1132","0","[[1,3,0],[0,0],[0]]","3","[[1,3,2],[0,0],[0]]","22","0","","","","","","3","","","","","","","","",""
"","","","","","single-stim-button","309","887043","0.0-2.0-77.2-1.2","63d6b8b3cc8e5c3debfd9676","E1","batch5","","974","tol_toboard","","","","tol_peg_1","974","974","0","[[1,3,2],[0,0],[0]]","3","[[1,3,2],[0,0],[0]]","22","0","","","","","","3","","","","","","","","",""
"","","","","","poldrack-single-stim","310","888052","0.0-2.0-78.0","63d6b8b3cc8e5c3debfd9676","E1","batch5","","-1","tol_feedback","","","true","","1000","1000","500","","","","","","-1","none","true","5254","7153","","","","","","","","","",""
"","","","","","html-button-response","311","889418","0.0-2.0-79.0","63d6b8b3cc8e5c3debfd9676","E1","batch5","","1364.8000000715256","tol_trial_num","<div class = centerbox><p class = center-block-text>problem <strong>24</strong> out of 25 problems</p></div>","0","","","","","","","","","","","","","","","","","","","","","","","","",""
"","","","","","single-stim-button","312","908837","0.0-2.0-80.0-0.0","63d6b8b3cc8e5c3debfd9676","E1","batch5","","19417","tol_tohand","","","","tol_peg_3","19417","19417","0","[[0,0,0],[2,3],[0]]","1","[[2,0,0],[3,0],[1]]","23","0","","","","","","7","","","","","","","","",""
"","","","","","single-stim-button","313","909553","0.0-2.0-80.0-1.0","63d6b8b3cc8e5c3debfd9676","E1","batch5","","715","tol_toboard","","","","tol_peg_1","715","715","0","[[1,0,0],[2,3],[0]]","1","[[2,0,0],[3,0],[1]]","23","0","","","","","","7","","","","","","","","",""
"","","","","","single-stim-button","314","910620","0.0-2.0-80.1-0.1","63d6b8b3cc8e5c3debfd9676","E1","batch5","","1067","tol_tohand","","","","tol_peg_2","1067","1067","0","[[1,0,0],[2,0],[0]]","2","[[2,0,0],[3,0],[1]]","23","0","","","","","","7","","","","","","","","",""
"","","","","","single-stim-button","315","911384","0.0-2.0-80.1-1.1","63d6b8b3cc8e5c3debfd9676","E1","batch5","","763","tol_toboard","","","","tol_peg_1","763","763","0","[[1,3,0],[2,0],[0]]","2","[[2,0,0],[3,0],[1]]","23","0","","","","","","7","","","","","","","","",""
"","","","","","single-stim-button","316","912205","0.0-2.0-80.2-0.2","63d6b8b3cc8e5c3debfd9676","E1","batch5","","821","tol_tohand","","","","tol_peg_2","821","821","0","[[1,3,0],[0,0],[0]]","3","[[2,0,0],[3,0],[1]]","23","0","","","","","","7","","","","","","","","",""
"","","","","","single-stim-button","317","913090","0.0-2.0-80.2-1.2","63d6b8b3cc8e5c3debfd9676","E1","batch5","","883","tol_toboard","","","","tol_peg_3","883","883","0","[[1,3,0],[0,0],[2]]","3","[[2,0,0],[3,0],[1]]","23","0","","","","","","7","","","","","","","","",""
"","","","","","single-stim-button","318","914056","0.0-2.0-80.3-0.3","63d6b8b3cc8e5c3debfd9676","E1","batch5","","965","tol_tohand","","","","tol_peg_1","965","965","0","[[1,0,0],[0,0],[2]]","4","[[2,0,0],[3,0],[1]]","23","0","","","","","","7","","","","","","","","",""
"","","","","","single-stim-button","319","914690","0.0-2.0-80.3-1.3","63d6b8b3cc8e5c3debfd9676","E1","batch5","","634","tol_toboard","","","","tol_peg_2","634","634","0","[[1,0,0],[3,0],[2]]","4","[[2,0,0],[3,0],[1]]","23","0","","","","","","7","","","","","","","","",""
"","","","","","single-stim-button","320","915343","0.0-2.0-80.4-0.4","63d6b8b3cc8e5c3debfd9676","E1","batch5","","651","tol_tohand","","","","tol_peg_1","651","651","0","[[0,0,0],[3,0],[2]]","5","[[2,0,0],[3,0],[1]]","23","0","","","","","","7","","","","","","","","",""
"","","","","","single-stim-button","321","916055","0.0-2.0-80.4-1.4","63d6b8b3cc8e5c3debfd9676","E1","batch5","","712","tol_toboard","","","","tol_peg_2","712","712","0","[[0,0,0],[3,1],[2]]","5","[[2,0,0],[3,0],[1]]","23","0","","","","","","7","","","","","","","","",""
"","","","","","single-stim-button","322","916746","0.0-2.0-80.5-0.5","63d6b8b3cc8e5c3debfd9676","E1","batch5","","689","tol_tohand","","","","tol_peg_3","689","689","0","[[0,0,0],[3,1],[0]]","6","[[2,0,0],[3,0],[1]]","23","0","","","","","","7","","","","","","","","",""
"","","","","","single-stim-button","323","917347","0.0-2.0-80.5-1.5","63d6b8b3cc8e5c3debfd9676","E1","batch5","","600","tol_toboard","","","","tol_peg_1","600","600","0","[[2,0,0],[3,1],[0]]","6","[[2,0,0],[3,0],[1]]","23","0","","","","","","7","","","","","","","","",""
"","","","","","single-stim-button","324","917900","0.0-2.0-80.6-0.6","63d6b8b3cc8e5c3debfd9676","E1","batch5","","552","tol_tohand","","","","tol_peg_2","552","552","0","[[2,0,0],[3,0],[0]]","7","[[2,0,0],[3,0],[1]]","23","0","","","","","","7","","","","","","","","",""
"","","","","","single-stim-button","325","918550","0.0-2.0-80.6-1.6","63d6b8b3cc8e5c3debfd9676","E1","batch5","","649","tol_toboard","","","","tol_peg_3","649","649","0","[[2,0,0],[3,0],[1]]","7","[[2,0,0],[3,0],[1]]","23","0","","","","","","7","","","","","","","","",""
"","","","","","poldrack-single-stim","326","919561","0.0-2.0-81.0","63d6b8b3cc8e5c3debfd9676","E1","batch5","","-1","tol_feedback","","","true","","1000","1000","500","","","","","","-1","none","true","19417","24162","","","","","","","","","",""
"","","","","","html-button-response","327","921128","0.0-2.0-82.0","63d6b8b3cc8e5c3debfd9676","E1","batch5","","1566.3999999761581","tol_trial_num","<div class = centerbox><p class = center-block-text>problem <strong>25</strong> out of 25 problems</p></div>","0","","","","","","","","","","","","","","","","","","","","","","","","",""
"","","","","","single-stim-button","328","927568","0.0-2.0-83.0-0.0","63d6b8b3cc8e5c3debfd9676","E1","batch5","","6440","tol_tohand","","","","tol_peg_1","6440","6440","0","[[1,0,0],[3,0],[0]]","1","[[3,0,0],[1,0],[2]]","24","0","","","","","","7","","","","","","","","",""
"","","","","","single-stim-button","329","930916","0.0-2.0-83.0-1.0","63d6b8b3cc8e5c3debfd9676","E1","batch5","","3346","tol_toboard","","","","tol_peg_2","3346","3346","0","[[1,0,0],[3,2],[0]]","1","[[3,0,0],[1,0],[2]]","24","0","","","","","","7","","","","","","","","",""
"","","","","","single-stim-button","330","937834","0.0-2.0-83.1-0.1","63d6b8b3cc8e5c3debfd9676","E1","batch5","","6917","tol_tohand","","","","tol_peg_1","6917","6917","0","[[0,0,0],[3,2],[0]]","2","[[3,0,0],[1,0],[2]]","24","0","","","","","","7","","","","","","","","",""
"","","","","","single-stim-button","331","938910","0.0-2.0-83.1-1.1","63d6b8b3cc8e5c3debfd9676","E1","batch5","","1076","tol_toboard","","","","tol_peg_3","1076","1076","0","[[0,0,0],[3,2],[1]]","2","[[3,0,0],[1,0],[2]]","24","0","","","","","","7","","","","","","","","",""
"","","","","","single-stim-button","332","939566","0.0-2.0-83.2-0.2","63d6b8b3cc8e5c3debfd9676","E1","batch5","","655","tol_tohand","","","","tol_peg_2","655","655","0","[[0,0,0],[3,0],[1]]","3","[[3,0,0],[1,0],[2]]","24","0","","","","","","7","","","","","","","","",""
"","","","","","single-stim-button","333","940186","0.0-2.0-83.2-1.2","63d6b8b3cc8e5c3debfd9676","E1","batch5","","618","tol_toboard","","","","tol_peg_1","618","618","0","[[2,0,0],[3,0],[1]]","3","[[3,0,0],[1,0],[2]]","24","0","","","","","","7","","","","","","","","",""
"","","","","","single-stim-button","334","940788","0.0-2.0-83.3-0.3","63d6b8b3cc8e5c3debfd9676","E1","batch5","","602","tol_tohand","","","","tol_peg_2","602","602","0","[[2,0,0],[0,0],[1]]","4","[[3,0,0],[1,0],[2]]","24","0","","","","","","7","","","","","","","","",""
"","","","","","single-stim-button","335","941490","0.0-2.0-83.3-1.3","63d6b8b3cc8e5c3debfd9676","E1","batch5","","700","tol_toboard","","","","tol_peg_1","700","700","0","[[2,3,0],[0,0],[1]]","4","[[3,0,0],[1,0],[2]]","24","0","","","","","","7","","","","","","","","",""
"","","","","","single-stim-button","336","942611","0.0-2.0-83.4-0.4","63d6b8b3cc8e5c3debfd9676","E1","batch5","","1119","tol_tohand","","","","tol_peg_3","1119","1119","0","[[2,3,0],[0,0],[0]]","5","[[3,0,0],[1,0],[2]]","24","0","","","","","","7","","","","","","","","",""
"","","","","","single-stim-button","337","943322","0.0-2.0-83.4-1.4","63d6b8b3cc8e5c3debfd9676","E1","batch5","","711","tol_toboard","","","","tol_peg_2","711","711","0","[[2,3,0],[1,0],[0]]","5","[[3,0,0],[1,0],[2]]","24","0","","","","","","7","","","","","","","","",""
"","","","","","single-stim-button","338","943896","0.0-2.0-83.5-0.5","63d6b8b3cc8e5c3debfd9676","E1","batch5","","572","tol_tohand","","","","tol_peg_1","572","572","0","[[2,0,0],[1,0],[0]]","6","[[3,0,0],[1,0],[2]]","24","0","","","","","","7","","","","","","","","",""
"","","","","","single-stim-button","339","944516","0.0-2.0-83.5-1.5","63d6b8b3cc8e5c3debfd9676","E1","batch5","","618","tol_toboard","","","","tol_peg_2","618","618","0","[[2,0,0],[1,3],[0]]","6","[[3,0,0],[1,0],[2]]","24","0","","","","","","7","","","","","","","","",""
"","","","","","single-stim-button","340","945109","0.0-2.0-83.6-0.6","63d6b8b3cc8e5c3debfd9676","E1","batch5","","593","tol_tohand","","","","tol_peg_1","593","593","0","[[0,0,0],[1,3],[0]]","7","[[3,0,0],[1,0],[2]]","24","0","","","","","","7","","","","","","","","",""
"","","","","","single-stim-button","341","945778","0.0-2.0-83.6-1.6","63d6b8b3cc8e5c3debfd9676","E1","batch5","","667","tol_toboard","","","","tol_peg_3","667","667","0","[[0,0,0],[1,3],[2]]","7","[[3,0,0],[1,0],[2]]","24","0","","","","","","7","","","","","","","","",""
"","","","","","single-stim-button","342","946445","0.0-2.0-83.7-0.7","63d6b8b3cc8e5c3debfd9676","E1","batch5","","667","tol_tohand","","","","tol_peg_2","667","667","0","[[0,0,0],[1,0],[2]]","8","[[3,0,0],[1,0],[2]]","24","0","","","","","","7","","","","","","","","",""
"","","","","","single-stim-button","343","947042","0.0-2.0-83.7-1.7","63d6b8b3cc8e5c3debfd9676","E1","batch5","","596","tol_toboard","","","","tol_peg_1","596","596","0","[[3,0,0],[1,0],[2]]","8","[[3,0,0],[1,0],[2]]","24","0","","","","","","7","","","","","","","","",""
"","","","","","poldrack-single-stim","344","948057","0.0-2.0-84.0","63d6b8b3cc8e5c3debfd9676","E1","batch5","","-1","tol_feedback","","","true","","1000","1000","500","","","","","","-1","none","true","6440","17565","","","","","","","","","",""
"","","","","","html-button-response","345","951423","0.0-2.0-85.0","63d6b8b3cc8e5c3debfd9676","E1","batch5","","3365.600000023842","tol-goodbye","<p class= block-text>This concludes the Tower of London Task. Thank you for your responses!<br> Click the button below to continue</p>","0","","","","","","","","","","","","","","","","","","","","","","","","",""
"true","","","","","fullscreen","346","956960","0.0-3.0-0.0","63d6b8b3cc8e5c3debfd9676","E1","batch5","","","spm_fullscreen","","","","","","","","","","","","","","","","","","","","","","","","","","",""
"","","","","","html-button-response","347","979340","0.0-3.0-1.0","63d6b8b3cc8e5c3debfd9676","E1","batch5","","22378.299999952316","","<p class = block-text><b>Instructions</b> <br>This is a widely used intelligence test in research. <br>In this test, a figure with a missing piece will be presented.<br>Below the figure are alternative pieces to complete the figure, only one of which is correct.<br> Different figures might involve different principles for obtaining the missing piece<br>Your job is to select the most logical piece to complete the figure.</p>","0","","","","","","","","","","","","","","","","","","","","","","","","",""
"","","","","","html-keyboard-response","348","980150","0.0-3.0-2.0-0.0","63d6b8b3cc8e5c3debfd9676","E1","batch5","","null","spm_show_trial_num","<p class=block-text>Trial 1 out of 60</p>","null","","","","","","","","","","","","","","","","","","","","","","","","",""
"","","","","","image-button-response","349","1012087","0.0-3.0-2.0-1.0","63d6b8b3cc8e5c3debfd9676","E1","batch5","","31930.5","spm_respsonse","img/question_1_1.jpeg","3","1","","","","","","","","","","","","","","","","mat_01","4","1","31930.5","","","","",""
"","","","","","html-keyboard-response","350","1013156","0.0-3.0-2.0-0.1","63d6b8b3cc8e5c3debfd9676","E1","batch5","","null","spm_show_trial_num","<p class=block-text>Trial 2 out of 60</p>","null","","","","","","","","","","","","","","","","","","","","","","","","",""
"","","","","","image-button-response","351","1017397","0.0-3.0-2.0-1.1","63d6b8b3cc8e5c3debfd9676","E1","batch5","","4239.100000023842","spm_respsonse","img/question_1_2.jpeg","4","1","","","","","","","","","","","","","","","","mat_02","5","1","4239.100000023842","","","","",""
"","","","","","html-keyboard-response","352","1018466","0.0-3.0-2.0-0.2","63d6b8b3cc8e5c3debfd9676","E1","batch5","","null","spm_show_trial_num","<p class=block-text>Trial 3 out of 60</p>","null","","","","","","","","","","","","","","","","","","","","","","","","",""
