"success","timeout","failed_images","failed_audio","failed_video","trial_type","trial_index","time_elapsed","internal_node_id","subject_id","study_id","session_id","view_history","rt","task","stimulus","response","correct","mouse_click","stim_duration","block_duration","timing_post_trial","current_position","tol_num_moves_made","tol_target","tol_problem_id","tol_rt","key_press","possible_responses","tol_correct","preplanning","tol_rt_per_trial","tol_min_moves","item","answer","spm_correct","spm_rt","fiar_detect_rt","fiar_detect_correct","total_correct_fiar_detect","post_trial_gap","choices"
"true","false","[]","[]","[]","preload","0","12486","0.0-0.0","63d6e456a473cdecf6b9ce84","D2","batch4","","","","","","","","","","","","","","","","","","","","","","","","","","","","","",""
"true","","","","","fullscreen","1","24640","0.0-1.0-0.0","63d6e456a473cdecf6b9ce84","D2","batch4","","","","","","","","","","","","","","","","","","","","","","","","","","","","","",""
"true","","","","","fullscreen","2","29554","0.0-2.0-0.0","63d6e456a473cdecf6b9ce84","D2","batch4","","","","","","","","","","","","","","","","","","","","","","","","","","","","","",""
"","","","","","instructions","3","176424","0.0-2.0-1.0-0.0-0.0","63d6e456a473cdecf6b9ce84","D2","batch4","[{""page_index"":0,""viewing_time"":27102.399999976158},{""page_index"":1,""viewing_time"":21970.199999928474},{""page_index"":2,""viewing_time"":11229.700000047684},{""page_index"":3,""viewing_time"":12722.399999976158},{""page_index"":4,""viewing_time"":11174},{""page_index"":5,""viewing_time"":52028.200000047684},{""page_index"":6,""viewing_time"":10641.399999976158}]","146868.79999995232","tol-instructions","","","","","","","","","","","","","","","","","","","","","","","","","","",""
"","","","","","html-button-response","4","178040","0.0-2.0-1.0-1.0-0.0","63d6e456a473cdecf6b9ce84","D2","batch4","","1615.2000000476837","tol_enter_quiz","<p class=block-text> Let's answer a few questions <br>","0","","","","","","","","","","","","","","","","","","","","","","","","",""
"","","","","","html-button-response","5","186915","0.0-2.0-1.0-1.0-1.0","63d6e456a473cdecf6b9ce84","D2","batch4","","8872.5","tol_quiz","<p class = block-text>True or False: You can only move the ball on top of a peg. <br></p>","1","false","","","","","","","","","","","","","","","","","","","","","","","",""
"","","","","","html-button-response","6","190858","0.0-2.0-1.0-1.0-2.0","63d6e456a473cdecf6b9ce84","D2","batch4","","3940.899999976158","tol_quiz_feedback","<p class = block-text>Incorrect. Remember, you can only move the ball on top of a peg.</p>","0","","","","","","","","","","","","","","","","","","","","","","","","",""
"","","","","","html-button-response","7","195760","0.0-2.0-1.0-1.0-3.0","63d6e456a473cdecf6b9ce84","D2","batch4","","4901","tol_quiz","<p class = block-text>True or False: You should try to match your board with the target board with fewest moves possible. <br></p>","0","true","","","","","","","","","","","","","","","","","","","","","","","",""
"","","","","","html-button-response","8","196965","0.0-2.0-1.0-1.0-4.0","63d6e456a473cdecf6b9ce84","D2","batch4","","1210.3999999761581","tol_quiz_feedback","<p class = block-text>Correct! </p>","0","","","","","","","","","","","","","","","","","","","","","","","","",""
"","","","","","html-button-response","9","198472","0.0-2.0-1.0-2.0-0.0","63d6e456a473cdecf6b9ce84","D2","batch4","","1504.2000000476837","","<p class = block-text>You made too many incorrect choices.</p><p class = block-text>You will now repeat the instructions and quiz</p>","0","","","","","","","","","","","","","","","","","","","","","","","","",""
"","","","","","instructions","10","207194","0.0-2.0-1.1-0.1-0.1","63d6e456a473cdecf6b9ce84","D2","batch4","[{""page_index"":0,""viewing_time"":1400.8999999761581},{""page_index"":1,""viewing_time"":571.8000000715256},{""page_index"":2,""viewing_time"":599.6000000238419},{""page_index"":3,""viewing_time"":560.7999999523163},{""page_index"":4,""viewing_time"":575.1000000238419},{""page_index"":5,""viewing_time"":1044.5},{""page_index"":6,""viewing_time"":3968.5}]","8721.700000047684","tol-instructions","","","","","","","","","","","","","","","","","","","","","","","","","","",""
"","","","","","html-button-response","11","208275","0.0-2.0-1.1-1.1-0.1","63d6e456a473cdecf6b9ce84","D2","batch4","","1080.1999999284744","tol_enter_quiz","<p class=block-text> Let's answer a few questions <br>","0","","","","","","","","","","","","","","","","","","","","","","","","",""
"","","","","","html-button-response","12","210646","0.0-2.0-1.1-1.1-1.1","63d6e456a473cdecf6b9ce84","D2","batch4","","2369.1999999284744","tol_quiz","<p class = block-text>True or False: You can only move the ball on top of a peg. <br></p>","0","true","","","","","","","","","","","","","","","","","","","","","","","",""
"","","","","","html-button-response","13","212813","0.0-2.0-1.1-1.1-2.1","63d6e456a473cdecf6b9ce84","D2","batch4","","2165.899999976158","tol_quiz_feedback","<p class = block-text>Correct! You can only move the ball on top of a peg.</p>","0","","","","","","","","","","","","","","","","","","","","","","","","",""
"","","","","","html-button-response","14","216128","0.0-2.0-1.1-1.1-3.1","63d6e456a473cdecf6b9ce84","D2","batch4","","3313.899999976158","tol_quiz","<p class = block-text>True or False: You should try to match your board with the target board with fewest moves possible. <br></p>","0","true","","","","","","","","","","","","","","","","","","","","","","","",""
"","","","","","html-button-response","15","225845","0.0-2.0-1.1-1.1-4.1","63d6e456a473cdecf6b9ce84","D2","batch4","","9716.399999976158","tol_quiz_feedback","<p class = block-text>Correct! </p>","0","","","","","","","","","","","","","","","","","","","","","","","","",""
"","","","","","html-button-response","16","229114","0.0-2.0-2.0","63d6e456a473cdecf6b9ce84","D2","batch4","","3267.9000000953674","","<p class=block-text> Now that you've understood the game, let's practice a few easier examples before we start!<br> <br>","0","","","","","","","","","","","","","","","","","","","","","","","","",""
"","","","","","single-stim-button","17","231838","0.0-2.0-3.0-0.0","63d6e456a473cdecf6b9ce84","D2","batch4","","2721","tol_practice","","","","tol_peg_2","2721","2721","0","[[1,2,0],[0,0],[0]]","1","[[1,2,0],[0,0],[3]]","practice","2721","","","","","","","","","","","","","","",""
"","","","","","single-stim-button","18","236100","0.0-2.0-3.0-1.0","63d6e456a473cdecf6b9ce84","D2","batch4","","4260","tol_practice","","","","tol_peg_3","4260","4260","0","[[1,2,0],[0,0],[3]]","1","[[1,2,0],[0,0],[3]]","practice","4260","","","","","","","","","","","","","","",""
"","","","","","poldrack-single-stim","19","237114","0.0-2.0-4.0","63d6e456a473cdecf6b9ce84","D2","batch4","","-1","tol_feedback","","","true","","1000","1000","500","","","","","","-1","none","true","","0","","","","","","","","","",""
"","","","","","single-stim-button","20","241406","0.0-2.0-5.0-0.0","63d6e456a473cdecf6b9ce84","D2","batch4","","4291","tol_practice","","","","tol_peg_1","4291","4291","0","[[1,0,0],[3,0],[0]]","2","[[0,0,0],[3,1],[2]]","practice","4291","","","","","","","","","","","","","","",""
"","","","","","single-stim-button","21","243415","0.0-2.0-5.0-1.0","63d6e456a473cdecf6b9ce84","D2","batch4","","2009","tol_practice","","","","tol_peg_3","2009","2009","0","[[1,0,0],[3,0],[2]]","2","[[0,0,0],[3,1],[2]]","practice","2009","","","","","","","","","","","","","","",""
"","","","","","single-stim-button","22","244476","0.0-2.0-5.1-0.1","63d6e456a473cdecf6b9ce84","D2","batch4","","1060","tol_practice","","","","tol_peg_1","1060","1060","0","[[0,0,0],[3,0],[2]]","3","[[0,0,0],[3,1],[2]]","practice","1060","","","","","","","","","","","","","","",""
"","","","","","single-stim-button","23","245985","0.0-2.0-5.1-1.1","63d6e456a473cdecf6b9ce84","D2","batch4","","1508","tol_practice","","","","tol_peg_2","1508","1508","0","[[0,0,0],[3,1],[2]]","3","[[0,0,0],[3,1],[2]]","practice","1508","","","","","","","","","","","","","","",""
"","","","","","poldrack-single-stim","24","246988","0.0-2.0-6.0","63d6e456a473cdecf6b9ce84","D2","batch4","","-1","tol_feedback","","","true","","1000","1000","500","","","","","","-1","none","true","","0","","","","","","","","","",""
"","","","","","single-stim-button","25","250781","0.0-2.0-7.0-0.0","63d6e456a473cdecf6b9ce84","D2","batch4","","3793","tol_practice","","","","tol_peg_2","3793","3793","0","[[1,2,0],[0,0],[0]]","4","[[1,0,0],[2,0],[3]]","practice","3793","","","","","","","","","","","","","","",""
"","","","","","single-stim-button","26","252244","0.0-2.0-7.0-1.0","63d6e456a473cdecf6b9ce84","D2","batch4","","1461","tol_practice","","","","tol_peg_3","1461","1461","0","[[1,2,0],[0,0],[3]]","4","[[1,0,0],[2,0],[3]]","practice","1461","","","","","","","","","","","","","","",""
"","","","","","single-stim-button","27","253172","0.0-2.0-7.1-0.1","63d6e456a473cdecf6b9ce84","D2","batch4","","926","tol_practice","","","","tol_peg_1","926","926","0","[[1,0,0],[0,0],[3]]","5","[[1,0,0],[2,0],[3]]","practice","926","","","","","","","","","","","","","","",""
"","","","","","single-stim-button","28","254058","0.0-2.0-7.1-1.1","63d6e456a473cdecf6b9ce84","D2","batch4","","885","tol_practice","","","","tol_peg_2","885","885","0","[[1,0,0],[2,0],[3]]","5","[[1,0,0],[2,0],[3]]","practice","885","","","","","","","","","","","","","","",""
"","","","","","poldrack-single-stim","29","255060","0.0-2.0-8.0","63d6e456a473cdecf6b9ce84","D2","batch4","","-1","tol_feedback","","","true","","1000","1000","500","","","","","","-1","none","true","","0","","","","","","","","","",""
"","","","","","html-button-response","30","257334","0.0-2.0-9.0","63d6e456a473cdecf6b9ce84","D2","batch4","","2266.0999999046326","tol_instruction","<div class = centerbox><p class = center-block-text>Great job! You are done with practice trials<br>You are about to start official trials.<br> <br> Problem <strong>1</strong> out of 25 problems</p></div>","0","","","","","","","","","","","","","","","","","","","","","","","","",""
"","","","","","single-stim-button","31","266301","0.0-2.0-10.0-0.0","63d6e456a473cdecf6b9ce84","D2","batch4","","7964","tol_tohand","","","","tol_peg_1","7964","7964","0","[[1,0,0],[3,0],[0]]","1","[[1,3,0],[2,0],[0]]","0","0","","","","","","3","","","","","","","","",""
"","","","","","single-stim-button","32","267780","0.0-2.0-10.0-1.0","63d6e456a473cdecf6b9ce84","D2","batch4","","1479","tol_toboard","","","","tol_peg_3","1479","1479","0","[[1,0,0],[3,0],[2]]","1","[[1,3,0],[2,0],[0]]","0","0","","","","","","3","","","","","","","","",""
"","","","","","single-stim-button","33","268870","0.0-2.0-10.1-0.1","63d6e456a473cdecf6b9ce84","D2","batch4","","1089","tol_tohand","","","","tol_peg_2","1089","1089","0","[[1,0,0],[0,0],[2]]","2","[[1,3,0],[2,0],[0]]","0","0","","","","","","3","","","","","","","","",""
"","","","","","single-stim-button","34","269874","0.0-2.0-10.1-1.1","63d6e456a473cdecf6b9ce84","D2","batch4","","1002","tol_toboard","","","","tol_peg_1","1002","1002","0","[[1,3,0],[0,0],[2]]","2","[[1,3,0],[2,0],[0]]","0","0","","","","","","3","","","","","","","","",""
"","","","","","single-stim-button","35","270792","0.0-2.0-10.2-0.2","63d6e456a473cdecf6b9ce84","D2","batch4","","917","tol_tohand","","","","tol_peg_3","917","917","0","[[1,3,0],[0,0],[0]]","3","[[1,3,0],[2,0],[0]]","0","0","","","","","","3","","","","","","","","",""
"","","","","","single-stim-button","36","271780","0.0-2.0-10.2-1.2","63d6e456a473cdecf6b9ce84","D2","batch4","","987","tol_toboard","","","","tol_peg_2","987","987","0","[[1,3,0],[2,0],[0]]","3","[[1,3,0],[2,0],[0]]","0","0","","","","","","3","","","","","","","","",""
"","","","","","poldrack-single-stim","37","272783","0.0-2.0-11.0","63d6e456a473cdecf6b9ce84","D2","batch4","","-1","tol_feedback","","","true","","1000","1000","500","","","","","","-1","none","true","7964","9970","","","","","","","","","",""
"","","","","","html-button-response","38","274009","0.0-2.0-12.0","63d6e456a473cdecf6b9ce84","D2","batch4","","1223.7999999523163","tol_trial_num","<div class = centerbox><p class = center-block-text>problem <strong>2</strong> out of 25 problems</p></div>","0","","","","","","","","","","","","","","","","","","","","","","","","",""
"","","","","","single-stim-button","39","279539","0.0-2.0-13.0-0.0","63d6e456a473cdecf6b9ce84","D2","batch4","","5530","tol_tohand","","","","tol_peg_1","5530","5530","0","[[1,0,0],[3,0],[0]]","1","[[2,1,3],[0,0],[0]]","1","0","","","","","","5","","","","","","","","",""
"","","","","","single-stim-button","40","284858","0.0-2.0-13.0-1.0","63d6e456a473cdecf6b9ce84","D2","batch4","","5317","tol_toboard","","","","tol_peg_2","5317","5317","0","[[1,0,0],[3,2],[0]]","1","[[2,1,3],[0,0],[0]]","1","0","","","","","","5","","","","","","","","",""
"","","","","","single-stim-button","41","285827","0.0-2.0-13.1-0.1","63d6e456a473cdecf6b9ce84","D2","batch4","","967","tol_tohand","","","","tol_peg_1","967","967","0","[[0,0,0],[3,2],[0]]","2","[[2,1,3],[0,0],[0]]","1","0","","","","","","5","","","","","","","","",""
"","","","","","single-stim-button","42","287448","0.0-2.0-13.1-1.1","63d6e456a473cdecf6b9ce84","D2","batch4","","1620","tol_toboard","","","","tol_peg_3","1620","1620","0","[[0,0,0],[3,2],[1]]","2","[[2,1,3],[0,0],[0]]","1","0","","","","","","5","","","","","","","","",""
"","","","","","single-stim-button","43","288532","0.0-2.0-13.2-0.2","63d6e456a473cdecf6b9ce84","D2","batch4","","1084","tol_tohand","","","","tol_peg_2","1084","1084","0","[[0,0,0],[3,0],[1]]","3","[[2,1,3],[0,0],[0]]","1","0","","","","","","5","","","","","","","","",""
"","","","","","single-stim-button","44","289410","0.0-2.0-13.2-1.2","63d6e456a473cdecf6b9ce84","D2","batch4","","876","tol_toboard","","","","tol_peg_1","876","876","0","[[2,0,0],[3,0],[1]]","3","[[2,1,3],[0,0],[0]]","1","0","","","","","","5","","","","","","","","",""
"","","","","","single-stim-button","45","290340","0.0-2.0-13.3-0.3","63d6e456a473cdecf6b9ce84","D2","batch4","","930","tol_tohand","","","","tol_peg_3","930","930","0","[[2,0,0],[3,0],[0]]","4","[[2,1,3],[0,0],[0]]","1","0","","","","","","5","","","","","","","","",""
"","","","","","single-stim-button","46","291202","0.0-2.0-13.3-1.3","63d6e456a473cdecf6b9ce84","D2","batch4","","861","tol_toboard","","","","tol_peg_1","861","861","0","[[2,1,0],[3,0],[0]]","4","[[2,1,3],[0,0],[0]]","1","0","","","","","","5","","","","","","","","",""
"","","","","","single-stim-button","47","292377","0.0-2.0-13.4-0.4","63d6e456a473cdecf6b9ce84","D2","batch4","","1174","tol_tohand","","","","tol_peg_2","1174","1174","0","[[2,1,0],[0,0],[0]]","5","[[2,1,3],[0,0],[0]]","1","0","","","","","","5","","","","","","","","",""
"","","","","","single-stim-button","48","293120","0.0-2.0-13.4-1.4","63d6e456a473cdecf6b9ce84","D2","batch4","","743","tol_toboard","","","","tol_peg_1","743","743","0","[[2,1,3],[0,0],[0]]","5","[[2,1,3],[0,0],[0]]","1","0","","","","","","5","","","","","","","","",""
"","","","","","poldrack-single-stim","49","294123","0.0-2.0-14.0","63d6e456a473cdecf6b9ce84","D2","batch4","","-1","tol_feedback","","","true","","1000","1000","500","","","","","","-1","none","true","5530","9685","","","","","","","","","",""
"","","","","","html-button-response","50","296540","0.0-2.0-15.0","63d6e456a473cdecf6b9ce84","D2","batch4","","2415.899999976158","tol_trial_num","<div class = centerbox><p class = center-block-text>problem <strong>3</strong> out of 25 problems</p></div>","0","","","","","","","","","","","","","","","","","","","","","","","","",""
"","","","","","single-stim-button","51","301132","0.0-2.0-16.0-0.0","63d6e456a473cdecf6b9ce84","D2","batch4","","4591","tol_tohand","","","","tol_peg_1","4591","4591","0","[[2,0,0],[0,0],[1]]","1","[[1,2,0],[3,0],[0]]","2","0","","","","","","4","","","","","","","","",""
"","","","","","single-stim-button","52","302252","0.0-2.0-16.0-1.0","63d6e456a473cdecf6b9ce84","D2","batch4","","1119","tol_toboard","","","","tol_peg_2","1119","1119","0","[[2,0,0],[3,0],[1]]","1","[[1,2,0],[3,0],[0]]","2","0","","","","","","4","","","","","","","","",""
"","","","","","single-stim-button","53","303242","0.0-2.0-16.1-0.1","63d6e456a473cdecf6b9ce84","D2","batch4","","989","tol_tohand","","","","tol_peg_1","989","989","0","[[0,0,0],[3,0],[1]]","2","[[1,2,0],[3,0],[0]]","2","0","","","","","","4","","","","","","","","",""
"","","","","","single-stim-button","54","304239","0.0-2.0-16.1-1.1","63d6e456a473cdecf6b9ce84","D2","batch4","","995","tol_toboard","","","","tol_peg_2","995","995","0","[[0,0,0],[3,2],[1]]","2","[[1,2,0],[3,0],[0]]","2","0","","","","","","4","","","","","","","","",""
"","","","","","single-stim-button","55","310002","0.0-2.0-16.2-0.2","63d6e456a473cdecf6b9ce84","D2","batch4","","5762","tol_tohand","","","","tol_peg_3","5762","5762","0","[[0,0,0],[3,2],[0]]","3","[[1,2,0],[3,0],[0]]","2","0","","","","","","4","","","","","","","","",""
"","","","","","single-stim-button","56","311228","0.0-2.0-16.2-1.2","63d6e456a473cdecf6b9ce84","D2","batch4","","1224","tol_toboard","","","","tol_peg_1","1224","1224","0","[[1,0,0],[3,2],[0]]","3","[[1,2,0],[3,0],[0]]","2","0","","","","","","4","","","","","","","","",""
"","","","","","single-stim-button","57","312363","0.0-2.0-16.3-0.3","63d6e456a473cdecf6b9ce84","D2","batch4","","1134","tol_tohand","","","","tol_peg_2","1134","1134","0","[[1,0,0],[3,0],[0]]","4","[[1,2,0],[3,0],[0]]","2","0","","","","","","4","","","","","","","","",""
"","","","","","single-stim-button","58","313232","0.0-2.0-16.3-1.3","63d6e456a473cdecf6b9ce84","D2","batch4","","868","tol_toboard","","","","tol_peg_1","868","868","0","[[1,2,0],[3,0],[0]]","4","[[1,2,0],[3,0],[0]]","2","0","","","","","","4","","","","","","","","",""
"","","","","","poldrack-single-stim","59","314242","0.0-2.0-17.0","63d6e456a473cdecf6b9ce84","D2","batch4","","-1","tol_feedback","","","true","","1000","1000","500","","","","","","-1","none","true","4591","12476","","","","","","","","","",""
"","","","","","html-button-response","60","315384","0.0-2.0-18.0","63d6e456a473cdecf6b9ce84","D2","batch4","","1140.6000000238419","tol_trial_num","<div class = centerbox><p class = center-block-text>problem <strong>4</strong> out of 25 problems</p></div>","0","","","","","","","","","","","","","","","","","","","","","","","","",""
"","","","","","single-stim-button","61","318779","0.0-2.0-19.0-0.0","63d6e456a473cdecf6b9ce84","D2","batch4","","3394","tol_tohand","","","","tol_peg_2","3394","3394","0","[[3,0,0],[2,0],[0]]","1","[[3,0,0],[1,0],[2]]","3","0","","","","","","3","","","","","","","","",""
"","","","","","single-stim-button","62","322840","0.0-2.0-19.0-1.0","63d6e456a473cdecf6b9ce84","D2","batch4","","4061","tol_toboard","","","","tol_peg_1","4061","4061","0","[[3,1,0],[2,0],[0]]","1","[[3,0,0],[1,0],[2]]","3","0","","","","","","3","","","","","","","","",""
"","","","","","single-stim-button","63","323644","0.0-2.0-19.1-0.1","63d6e456a473cdecf6b9ce84","D2","batch4","","803","tol_tohand","","","","tol_peg_2","803","803","0","[[3,1,0],[0,0],[0]]","2","[[3,0,0],[1,0],[2]]","3","0","","","","","","3","","","","","","","","",""
"","","","","","single-stim-button","64","324350","0.0-2.0-19.1-1.1","63d6e456a473cdecf6b9ce84","D2","batch4","","704","tol_toboard","","","","tol_peg_3","704","704","0","[[3,1,0],[0,0],[2]]","2","[[3,0,0],[1,0],[2]]","3","0","","","","","","3","","","","","","","","",""
"","","","","","single-stim-button","65","325436","0.0-2.0-19.2-0.2","63d6e456a473cdecf6b9ce84","D2","batch4","","1086","tol_tohand","","","","tol_peg_1","1086","1086","0","[[3,0,0],[0,0],[2]]","3","[[3,0,0],[1,0],[2]]","3","0","","","","","","3","","","","","","","","",""
"","","","","","single-stim-button","66","326170","0.0-2.0-19.2-1.2","63d6e456a473cdecf6b9ce84","D2","batch4","","732","tol_toboard","","","","tol_peg_2","732","732","0","[[3,0,0],[1,0],[2]]","3","[[3,0,0],[1,0],[2]]","3","0","","","","","","3","","","","","","","","",""
"","","","","","poldrack-single-stim","67","327179","0.0-2.0-20.0","63d6e456a473cdecf6b9ce84","D2","batch4","","-1","tol_feedback","","","true","","1000","1000","500","","","","","","-1","none","true","3394","5283","","","","","","","","","",""
"","","","","","html-button-response","68","328381","0.0-2.0-21.0","63d6e456a473cdecf6b9ce84","D2","batch4","","1201.2000000476837","tol_trial_num","<div class = centerbox><p class = center-block-text>problem <strong>5</strong> out of 25 problems</p></div>","0","","","","","","","","","","","","","","","","","","","","","","","","",""
"","","","","","single-stim-button","69","356064","0.0-2.0-22.0-0.0","63d6e456a473cdecf6b9ce84","D2","batch4","","27682","tol_tohand","","","","tol_peg_2","27682","27682","0","[[1,0,0],[0,0],[3]]","1","[[0,0,0],[1,2],[3]]","4","0","","","","","","7","","","","","","","","",""
"","","","","","single-stim-button","70","356877","0.0-2.0-22.0-1.0","63d6e456a473cdecf6b9ce84","D2","batch4","","812","tol_toboard","","","","tol_peg_1","812","812","0","[[1,2,0],[0,0],[3]]","1","[[0,0,0],[1,2],[3]]","4","0","","","","","","7","","","","","","","","",""
"","","","","","single-stim-button","71","361256","0.0-2.0-22.1-0.1","63d6e456a473cdecf6b9ce84","D2","batch4","","4377","tol_tohand","","","","tol_peg_3","4377","4377","0","[[1,2,0],[0,0],[0]]","2","[[0,0,0],[1,2],[3]]","4","0","","","","","","7","","","","","","","","",""
"","","","","","single-stim-button","72","372070","0.0-2.0-22.1-1.1","63d6e456a473cdecf6b9ce84","D2","batch4","","10814","tol_toboard","","","","tol_peg_3","10814","10814","0","[[1,2,0],[0,0],[3]]","2","[[0,0,0],[1,2],[3]]","4","0","","","","","","7","","","","","","","","",""
"","","","","","single-stim-button","73","377356","0.0-2.0-22.2-0.2","63d6e456a473cdecf6b9ce84","D2","batch4","","5284","tol_tohand","","","","tol_peg_1","5284","5284","0","[[1,0,0],[0,0],[3]]","3","[[0,0,0],[1,2],[3]]","4","0","","","","","","7","","","","","","","","",""
"","","","","","single-stim-button","74","381746","0.0-2.0-22.2-1.2","63d6e456a473cdecf6b9ce84","D2","batch4","","4390","tol_toboard","","","","tol_peg_2","4390","4390","0","[[1,0,0],[2,0],[3]]","3","[[0,0,0],[1,2],[3]]","4","0","","","","","","7","","","","","","","","",""
"","","","","","single-stim-button","75","383076","0.0-2.0-22.3-0.3","63d6e456a473cdecf6b9ce84","D2","batch4","","1329","tol_tohand","","","","tol_peg_1","1329","1329","0","[[0,0,0],[2,0],[3]]","4","[[0,0,0],[1,2],[3]]","4","0","","","","","","7","","","","","","","","",""
"","","","","","single-stim-button","76","383839","0.0-2.0-22.3-1.3","63d6e456a473cdecf6b9ce84","D2","batch4","","762","tol_toboard","","","","tol_peg_2","762","762","0","[[0,0,0],[2,1],[3]]","4","[[0,0,0],[1,2],[3]]","4","0","","","","","","7","","","","","","","","",""
"","","","","","single-stim-button","77","384519","0.0-2.0-22.4-0.4","63d6e456a473cdecf6b9ce84","D2","batch4","","679","tol_tohand","","","","tol_peg_3","679","679","0","[[0,0,0],[2,1],[0]]","5","[[0,0,0],[1,2],[3]]","4","0","","","","","","7","","","","","","","","",""
"","","","","","single-stim-button","78","385734","0.0-2.0-22.4-1.4","63d6e456a473cdecf6b9ce84","D2","batch4","","1213","tol_toboard","","","","tol_peg_1","1213","1213","0","[[3,0,0],[2,1],[0]]","5","[[0,0,0],[1,2],[3]]","4","0","","","","","","7","","","","","","","","",""
"","","","","","single-stim-button","79","386603","0.0-2.0-22.5-0.5","63d6e456a473cdecf6b9ce84","D2","batch4","","868","tol_tohand","","","","tol_peg_2","868","868","0","[[3,0,0],[2,0],[0]]","6","[[0,0,0],[1,2],[3]]","4","0","","","","","","7","","","","","","","","",""
"","","","","","single-stim-button","80","387266","0.0-2.0-22.5-1.5","63d6e456a473cdecf6b9ce84","D2","batch4","","661","tol_toboard","","","","tol_peg_3","661","661","0","[[3,0,0],[2,0],[1]]","6","[[0,0,0],[1,2],[3]]","4","0","","","","","","7","","","","","","","","",""
"","","","","","single-stim-button","81","387878","0.0-2.0-22.6-0.6","63d6e456a473cdecf6b9ce84","D2","batch4","","612","tol_tohand","","","","tol_peg_2","612","612","0","[[3,0,0],[0,0],[1]]","7","[[0,0,0],[1,2],[3]]","4","0","","","","","","7","","","","","","","","",""
"","","","","","single-stim-button","82","389004","0.0-2.0-22.6-1.6","63d6e456a473cdecf6b9ce84","D2","batch4","","1124","tol_toboard","","","","tol_peg_1","1124","1124","0","[[3,2,0],[0,0],[1]]","7","[[0,0,0],[1,2],[3]]","4","0","","","","","","7","","","","","","","","",""
"","","","","","single-stim-button","83","389818","0.0-2.0-22.7-0.7","63d6e456a473cdecf6b9ce84","D2","batch4","","814","tol_tohand","","","","tol_peg_3","814","814","0","[[3,2,0],[0,0],[0]]","8","[[0,0,0],[1,2],[3]]","4","0","","","","","","7","","","","","","","","",""
"","","","","","single-stim-button","84","390935","0.0-2.0-22.7-1.7","63d6e456a473cdecf6b9ce84","D2","batch4","","1116","tol_toboard","","","","tol_peg_2","1116","1116","0","[[3,2,0],[1,0],[0]]","8","[[0,0,0],[1,2],[3]]","4","0","","","","","","7","","","","","","","","",""
"","","","","","single-stim-button","85","391644","0.0-2.0-22.8-0.8","63d6e456a473cdecf6b9ce84","D2","batch4","","709","tol_tohand","","","","tol_peg_1","709","709","0","[[3,0,0],[1,0],[0]]","9","[[0,0,0],[1,2],[3]]","4","0","","","","","","7","","","","","","","","",""
"","","","","","single-stim-button","86","392212","0.0-2.0-22.8-1.8","63d6e456a473cdecf6b9ce84","D2","batch4","","568","tol_toboard","","","","tol_peg_2","568","568","0","[[3,0,0],[1,2],[0]]","9","[[0,0,0],[1,2],[3]]","4","0","","","","","","7","","","","","","","","",""
"","","","","","single-stim-button","87","392892","0.0-2.0-22.9-0.9","63d6e456a473cdecf6b9ce84","D2","batch4","","679","tol_tohand","","","","tol_peg_1","679","679","0","[[0,0,0],[1,2],[0]]","10","[[0,0,0],[1,2],[3]]","4","0","","","","","","7","","","","","","","","",""
"","","","","","single-stim-button","88","393667","0.0-2.0-22.9-1.9","63d6e456a473cdecf6b9ce84","D2","batch4","","773","tol_toboard","","","","tol_peg_3","773","773","0","[[0,0,0],[1,2],[3]]","10","[[0,0,0],[1,2],[3]]","4","0","","","","","","7","","","","","","","","",""
"","","","","","poldrack-single-stim","89","394669","0.0-2.0-23.0","63d6e456a473cdecf6b9ce84","D2","batch4","","-1","tol_feedback","","","true","","1000","1000","500","","","","","","-1","none","true","27682","43033","","","","","","","","","",""
"","","","","","html-button-response","90","395854","0.0-2.0-24.0","63d6e456a473cdecf6b9ce84","D2","batch4","","1183.3999999761581","tol_trial_num","<div class = centerbox><p class = center-block-text>problem <strong>6</strong> out of 25 problems</p></div>","0","","","","","","","","","","","","","","","","","","","","","","","","",""
"","","","","","single-stim-button","91","415435","0.0-2.0-25.0-0.0","63d6e456a473cdecf6b9ce84","D2","batch4","","19581","tol_tohand","","","","tol_peg_2","19581","19581","0","[[0,0,0],[1,0],[3]]","1","[[1,0,0],[2,3],[0]]","5","0","","","","","","6","","","","","","","","",""
"","","","","","single-stim-button","92","416824","0.0-2.0-25.0-1.0","63d6e456a473cdecf6b9ce84","D2","batch4","","1388","tol_toboard","","","","tol_peg_2","1388","1388","0","[[0,0,0],[1,2],[3]]","1","[[1,0,0],[2,3],[0]]","5","0","","","","","","6","","","","","","","","",""
"","","","","","single-stim-button","93","417612","0.0-2.0-25.1-0.1","63d6e456a473cdecf6b9ce84","D2","batch4","","787","tol_tohand","","","","tol_peg_3","787","787","0","[[0,0,0],[1,2],[0]]","2","[[1,0,0],[2,3],[0]]","5","0","","","","","","6","","","","","","","","",""
"","","","","","single-stim-button","94","419272","0.0-2.0-25.1-1.1","63d6e456a473cdecf6b9ce84","D2","batch4","","1659","tol_toboard","","","","tol_peg_1","1659","1659","0","[[3,0,0],[1,2],[0]]","2","[[1,0,0],[2,3],[0]]","5","0","","","","","","6","","","","","","","","",""
"","","","","","single-stim-button","95","419860","0.0-2.0-25.2-0.2","63d6e456a473cdecf6b9ce84","D2","batch4","","586","tol_tohand","","","","tol_peg_2","586","586","0","[[3,0,0],[1,0],[0]]","3","[[1,0,0],[2,3],[0]]","5","0","","","","","","6","","","","","","","","",""
"","","","","","single-stim-button","96","420689","0.0-2.0-25.2-1.2","63d6e456a473cdecf6b9ce84","D2","batch4","","829","tol_toboard","","","","tol_peg_3","829","829","0","[[3,0,0],[1,0],[2]]","3","[[1,0,0],[2,3],[0]]","5","0","","","","","","6","","","","","","","","",""
"","","","","","single-stim-button","97","423944","0.0-2.0-25.3-0.3","63d6e456a473cdecf6b9ce84","D2","batch4","","3254","tol_tohand","","","","tol_peg_2","3254","3254","0","[[3,0,0],[0,0],[2]]","4","[[1,0,0],[2,3],[0]]","5","0","","","","","","6","","","","","","","","",""
"","","","","","single-stim-button","98","426686","0.0-2.0-25.3-1.3","63d6e456a473cdecf6b9ce84","D2","batch4","","2740","tol_toboard","","","","tol_peg_1","2740","2740","0","[[3,1,0],[0,0],[2]]","4","[[1,0,0],[2,3],[0]]","5","0","","","","","","6","","","","","","","","",""
"","","","","","single-stim-button","99","427510","0.0-2.0-25.4-0.4","63d6e456a473cdecf6b9ce84","D2","batch4","","824","tol_tohand","","","","tol_peg_3","824","824","0","[[3,1,0],[0,0],[0]]","5","[[1,0,0],[2,3],[0]]","5","0","","","","","","6","","","","","","","","",""
"","","","","","single-stim-button","100","428276","0.0-2.0-25.4-1.4","63d6e456a473cdecf6b9ce84","D2","batch4","","766","tol_toboard","","","","tol_peg_2","766","766","0","[[3,1,0],[2,0],[0]]","5","[[1,0,0],[2,3],[0]]","5","0","","","","","","6","","","","","","","","",""
"","","","","","single-stim-button","101","431738","0.0-2.0-25.5-0.5","63d6e456a473cdecf6b9ce84","D2","batch4","","3460","tol_tohand","","","","tol_peg_1","3460","3460","0","[[3,0,0],[2,0],[0]]","6","[[1,0,0],[2,3],[0]]","5","0","","","","","","6","","","","","","","","",""
"","","","","","single-stim-button","102","432642","0.0-2.0-25.5-1.5","63d6e456a473cdecf6b9ce84","D2","batch4","","903","tol_toboard","","","","tol_peg_3","903","903","0","[[3,0,0],[2,0],[1]]","6","[[1,0,0],[2,3],[0]]","5","0","","","","","","6","","","","","","","","",""
"","","","","","single-stim-button","103","433580","0.0-2.0-25.6-0.6","63d6e456a473cdecf6b9ce84","D2","batch4","","938","tol_tohand","","","","tol_peg_1","938","938","0","[[0,0,0],[2,0],[1]]","7","[[1,0,0],[2,3],[0]]","5","0","","","","","","6","","","","","","","","",""
"","","","","","single-stim-button","104","434407","0.0-2.0-25.6-1.6","63d6e456a473cdecf6b9ce84","D2","batch4","","825","tol_toboard","","","","tol_peg_2","825","825","0","[[0,0,0],[2,3],[1]]","7","[[1,0,0],[2,3],[0]]","5","0","","","","","","6","","","","","","","","",""
"","","","","","single-stim-button","105","435024","0.0-2.0-25.7-0.7","63d6e456a473cdecf6b9ce84","D2","batch4","","616","tol_tohand","","","","tol_peg_3","616","616","0","[[0,0,0],[2,3],[0]]","8","[[1,0,0],[2,3],[0]]","5","0","","","","","","6","","","","","","","","",""
"","","","","","single-stim-button","106","435928","0.0-2.0-25.7-1.7","63d6e456a473cdecf6b9ce84","D2","batch4","","903","tol_toboard","","","","tol_peg_1","903","903","0","[[1,0,0],[2,3],[0]]","8","[[1,0,0],[2,3],[0]]","5","0","","","","","","6","","","","","","","","",""
"","","","","","poldrack-single-stim","107","436940","0.0-2.0-26.0","63d6e456a473cdecf6b9ce84","D2","batch4","","-1","tol_feedback","","","true","","1000","1000","500","","","","","","-1","none","true","19581","30046","","","","","","","","","",""
"","","","","","html-button-response","108","437942","0.0-2.0-27.0","63d6e456a473cdecf6b9ce84","D2","batch4","","1000.0999999046326","tol_trial_num","<div class = centerbox><p class = center-block-text>problem <strong>7</strong> out of 25 problems</p></div>","0","","","","","","","","","","","","","","","","","","","","","","","","",""
"","","","","","single-stim-button","109","442403","0.0-2.0-28.0-0.0","63d6e456a473cdecf6b9ce84","D2","batch4","","4461","tol_tohand","","","","tol_peg_1","4461","4461","0","[[2,0,0],[0,0],[3]]","1","[[1,2,0],[3,0],[0]]","6","0","","","","","","5","","","","","","","","",""
"","","","","","single-stim-button","110","454525","0.0-2.0-28.0-1.0","63d6e456a473cdecf6b9ce84","D2","batch4","","12121","tol_toboard","","","","tol_peg_1","12121","12121","0","[[2,1,0],[0,0],[3]]","1","[[1,2,0],[3,0],[0]]","6","0","","","","","","5","","","","","","","","",""
"","","","","","single-stim-button","111","456069","0.0-2.0-28.1-0.1","63d6e456a473cdecf6b9ce84","D2","batch4","","1542","tol_tohand","","","","tol_peg_3","1542","1542","0","[[2,1,0],[0,0],[0]]","2","[[1,2,0],[3,0],[0]]","6","0","","","","","","5","","","","","","","","",""
"","","","","","single-stim-button","112","458956","0.0-2.0-28.1-1.1","63d6e456a473cdecf6b9ce84","D2","batch4","","2886","tol_toboard","","","","tol_peg_2","2886","2886","0","[[2,1,0],[3,0],[0]]","2","[[1,2,0],[3,0],[0]]","6","0","","","","","","5","","","","","","","","",""
"","","","","","single-stim-button","113","460690","0.0-2.0-28.2-0.2","63d6e456a473cdecf6b9ce84","D2","batch4","","1734","tol_tohand","","","","tol_peg_1","1734","1734","0","[[2,0,0],[3,0],[0]]","3","[[1,2,0],[3,0],[0]]","6","0","","","","","","5","","","","","","","","",""
"","","","","","single-stim-button","114","462784","0.0-2.0-28.2-1.2","63d6e456a473cdecf6b9ce84","D2","batch4","","2093","tol_toboard","","","","tol_peg_3","2093","2093","0","[[2,0,0],[3,0],[1]]","3","[[1,2,0],[3,0],[0]]","6","0","","","","","","5","","","","","","","","",""
"","","","","","single-stim-button","115","464710","0.0-2.0-28.3-0.3","63d6e456a473cdecf6b9ce84","D2","batch4","","1924","tol_tohand","","","","tol_peg_1","1924","1924","0","[[0,0,0],[3,0],[1]]","4","[[1,2,0],[3,0],[0]]","6","0","","","","","","5","","","","","","","","",""
"","","","","","single-stim-button","116","465417","0.0-2.0-28.3-1.3","63d6e456a473cdecf6b9ce84","D2","batch4","","707","tol_toboard","","","","tol_peg_2","707","707","0","[[0,0,0],[3,2],[1]]","4","[[1,2,0],[3,0],[0]]","6","0","","","","","","5","","","","","","","","",""
"","","","","","single-stim-button","117","466002","0.0-2.0-28.4-0.4","63d6e456a473cdecf6b9ce84","D2","batch4","","584","tol_tohand","","","","tol_peg_3","584","584","0","[[0,0,0],[3,2],[0]]","5","[[1,2,0],[3,0],[0]]","6","0","","","","","","5","","","","","","","","",""
"","","","","","single-stim-button","118","467006","0.0-2.0-28.4-1.4","63d6e456a473cdecf6b9ce84","D2","batch4","","1002","tol_toboard","","","","tol_peg_1","1002","1002","0","[[1,0,0],[3,2],[0]]","5","[[1,2,0],[3,0],[0]]","6","0","","","","","","5","","","","","","","","",""
"","","","","","single-stim-button","119","467725","0.0-2.0-28.5-0.5","63d6e456a473cdecf6b9ce84","D2","batch4","","719","tol_tohand","","","","tol_peg_2","719","719","0","[[1,0,0],[3,0],[0]]","6","[[1,2,0],[3,0],[0]]","6","0","","","","","","5","","","","","","","","",""
"","","","","","single-stim-button","120","468358","0.0-2.0-28.5-1.5","63d6e456a473cdecf6b9ce84","D2","batch4","","631","tol_toboard","","","","tol_peg_1","631","631","0","[[1,2,0],[3,0],[0]]","6","[[1,2,0],[3,0],[0]]","6","0","","","","","","5","","","","","","","","",""
"","","","","","poldrack-single-stim","121","469360","0.0-2.0-29.0","63d6e456a473cdecf6b9ce84","D2","batch4","","-1","tol_feedback","","","true","","1000","1000","500","","","","","","-1","none","true","4461","10964","","","","","","","","","",""
"","","","","","html-button-response","122","472281","0.0-2.0-30.0","63d6e456a473cdecf6b9ce84","D2","batch4","","2920","tol_trial_num","<div class = centerbox><p class = center-block-text>problem <strong>8</strong> out of 25 problems</p></div>","0","","","","","","","","","","","","","","","","","","","","","","","","",""
"","","","","","single-stim-button","123","477318","0.0-2.0-31.0-0.0","63d6e456a473cdecf6b9ce84","D2","batch4","","5035","tol_tohand","","","","tol_peg_3","5035","5035","0","[[0,0,0],[2,3],[0]]","1","[[1,2,0],[3,0],[0]]","7","0","","","","","","4","","","","","","","","",""
"","","","","","single-stim-button","124","478400","0.0-2.0-31.0-1.0","63d6e456a473cdecf6b9ce84","D2","batch4","","1082","tol_toboard","","","","tol_peg_1","1082","1082","0","[[1,0,0],[2,3],[0]]","1","[[1,2,0],[3,0],[0]]","7","0","","","","","","4","","","","","","","","",""
"","","","","","single-stim-button","125","482102","0.0-2.0-31.1-0.1","63d6e456a473cdecf6b9ce84","D2","batch4","","3701","tol_tohand","","","","tol_peg_2","3701","3701","0","[[1,0,0],[2,0],[0]]","2","[[1,2,0],[3,0],[0]]","7","0","","","","","","4","","","","","","","","",""
"","","","","","single-stim-button","126","482968","0.0-2.0-31.1-1.1","63d6e456a473cdecf6b9ce84","D2","batch4","","865","tol_toboard","","","","tol_peg_3","865","865","0","[[1,0,0],[2,0],[3]]","2","[[1,2,0],[3,0],[0]]","7","0","","","","","","4","","","","","","","","",""
"","","","","","single-stim-button","127","483690","0.0-2.0-31.2-0.2","63d6e456a473cdecf6b9ce84","D2","batch4","","720","tol_tohand","","","","tol_peg_2","720","720","0","[[1,0,0],[0,0],[3]]","3","[[1,2,0],[3,0],[0]]","7","0","","","","","","4","","","","","","","","",""
"","","","","","single-stim-button","128","484390","0.0-2.0-31.2-1.2","63d6e456a473cdecf6b9ce84","D2","batch4","","699","tol_toboard","","","","tol_peg_1","699","699","0","[[1,2,0],[0,0],[3]]","3","[[1,2,0],[3,0],[0]]","7","0","","","","","","4","","","","","","","","",""
"","","","","","single-stim-button","129","485066","0.0-2.0-31.3-0.3","63d6e456a473cdecf6b9ce84","D2","batch4","","675","tol_tohand","","","","tol_peg_3","675","675","0","[[1,2,0],[0,0],[0]]","4","[[1,2,0],[3,0],[0]]","7","0","","","","","","4","","","","","","","","",""
"","","","","","single-stim-button","130","485758","0.0-2.0-31.3-1.3","63d6e456a473cdecf6b9ce84","D2","batch4","","691","tol_toboard","","","","tol_peg_2","691","691","0","[[1,2,0],[3,0],[0]]","4","[[1,2,0],[3,0],[0]]","7","0","","","","","","4","","","","","","","","",""
"","","","","","poldrack-single-stim","131","486759","0.0-2.0-32.0","63d6e456a473cdecf6b9ce84","D2","batch4","","-1","tol_feedback","","","true","","1000","1000","500","","","","","","-1","none","true","5035","10131","","","","","","","","","",""
"","","","","","html-button-response","132","490484","0.0-2.0-33.0","63d6e456a473cdecf6b9ce84","D2","batch4","","3723.899999976158","tol_trial_num","<div class = centerbox><p class = center-block-text>problem <strong>9</strong> out of 25 problems</p></div>","0","","","","","","","","","","","","","","","","","","","","","","","","",""
"","","","","","single-stim-button","133","495560","0.0-2.0-34.0-0.0","63d6e456a473cdecf6b9ce84","D2","batch4","","5076","tol_tohand","","","","tol_peg_1","5076","5076","0","[[3,0,0],[0,0],[1]]","1","[[2,1,0],[3,0],[0]]","8","0","","","","","","6","","","","","","","","",""
"","","","","","single-stim-button","134","497390","0.0-2.0-34.0-1.0","63d6e456a473cdecf6b9ce84","D2","batch4","","1828","tol_toboard","","","","tol_peg_2","1828","1828","0","[[3,0,0],[2,0],[1]]","1","[[2,1,0],[3,0],[0]]","8","0","","","","","","6","","","","","","","","",""
"","","","","","single-stim-button","135","503000","0.0-2.0-34.1-0.1","63d6e456a473cdecf6b9ce84","D2","batch4","","5609","tol_tohand","","","","tol_peg_3","5609","5609","0","[[3,0,0],[2,0],[0]]","2","[[2,1,0],[3,0],[0]]","8","0","","","","","","6","","","","","","","","",""
"","","","","","single-stim-button","136","504597","0.0-2.0-34.1-1.1","63d6e456a473cdecf6b9ce84","D2","batch4","","1596","tol_toboard","","","","tol_peg_2","1596","1596","0","[[3,0,0],[2,1],[0]]","2","[[2,1,0],[3,0],[0]]","8","0","","","","","","6","","","","","","","","",""
"","","","","","single-stim-button","137","507128","0.0-2.0-34.2-0.2","63d6e456a473cdecf6b9ce84","D2","batch4","","2529","tol_tohand","","","","tol_peg_1","2529","2529","0","[[0,0,0],[2,1],[0]]","3","[[2,1,0],[3,0],[0]]","8","0","","","","","","6","","","","","","","","",""
"","","","","","single-stim-button","138","508228","0.0-2.0-34.2-1.2","63d6e456a473cdecf6b9ce84","D2","batch4","","1099","tol_toboard","","","","tol_peg_3","1099","1099","0","[[0,0,0],[2,1],[3]]","3","[[2,1,0],[3,0],[0]]","8","0","","","","","","6","","","","","","","","",""
"","","","","","single-stim-button","139","510659","0.0-2.0-34.3-0.3","63d6e456a473cdecf6b9ce84","D2","batch4","","2430","tol_tohand","","","","tol_peg_2","2430","2430","0","[[0,0,0],[2,0],[3]]","4","[[2,1,0],[3,0],[0]]","8","0","","","","","","6","","","","","","","","",""
"","","","","","single-stim-button","140","514118","0.0-2.0-34.3-1.3","63d6e456a473cdecf6b9ce84","D2","batch4","","3458","tol_toboard","","","","tol_peg_1","3458","3458","0","[[1,0,0],[2,0],[3]]","4","[[2,1,0],[3,0],[0]]","8","0","","","","","","6","","","","","","","","",""
"","","","","","single-stim-button","141","515386","0.0-2.0-34.4-0.4","63d6e456a473cdecf6b9ce84","D2","batch4","","1267","tol_tohand","","","","tol_peg_3","1267","1267","0","[[1,0,0],[2,0],[0]]","5","[[2,1,0],[3,0],[0]]","8","0","","","","","","6","","","","","","","","",""
"","","","","","single-stim-button","142","517360","0.0-2.0-34.4-1.4","63d6e456a473cdecf6b9ce84","D2","batch4","","1973","tol_toboard","","","","tol_peg_1","1973","1973","0","[[1,3,0],[2,0],[0]]","5","[[2,1,0],[3,0],[0]]","8","0","","","","","","6","","","","","","","","",""
"","","","","","single-stim-button","143","517964","0.0-2.0-34.5-0.5","63d6e456a473cdecf6b9ce84","D2","batch4","","603","tol_tohand","","","","tol_peg_2","603","603","0","[[1,3,0],[0,0],[0]]","6","[[2,1,0],[3,0],[0]]","8","0","","","","","","6","","","","","","","","",""
"","","","","","single-stim-button","144","518670","0.0-2.0-34.5-1.5","63d6e456a473cdecf6b9ce84","D2","batch4","","705","tol_toboard","","","","tol_peg_3","705","705","0","[[1,3,0],[0,0],[2]]","6","[[2,1,0],[3,0],[0]]","8","0","","","","","","6","","","","","","","","",""
"","","","","","single-stim-button","145","520177","0.0-2.0-34.6-0.6","63d6e456a473cdecf6b9ce84","D2","batch4","","1506","tol_tohand","","","","tol_peg_1","1506","1506","0","[[1,0,0],[0,0],[2]]","7","[[2,1,0],[3,0],[0]]","8","0","","","","","","6","","","","","","","","",""
"","","","","","single-stim-button","146","521177","0.0-2.0-34.6-1.6","63d6e456a473cdecf6b9ce84","D2","batch4","","998","tol_toboard","","","","tol_peg_2","998","998","0","[[1,0,0],[3,0],[2]]","7","[[2,1,0],[3,0],[0]]","8","0","","","","","","6","","","","","","","","",""
"","","","","","single-stim-button","147","522145","0.0-2.0-34.7-0.7","63d6e456a473cdecf6b9ce84","D2","batch4","","968","tol_tohand","","","","tol_peg_1","968","968","0","[[0,0,0],[3,0],[2]]","8","[[2,1,0],[3,0],[0]]","8","0","","","","","","6","","","","","","","","",""
"","","","","","single-stim-button","148","523036","0.0-2.0-34.7-1.7","63d6e456a473cdecf6b9ce84","D2","batch4","","889","tol_toboard","","","","tol_peg_2","889","889","0","[[0,0,0],[3,1],[2]]","8","[[2,1,0],[3,0],[0]]","8","0","","","","","","6","","","","","","","","",""
"","","","","","single-stim-button","149","523592","0.0-2.0-34.8-0.8","63d6e456a473cdecf6b9ce84","D2","batch4","","556","tol_tohand","","","","tol_peg_3","556","556","0","[[0,0,0],[3,1],[0]]","9","[[2,1,0],[3,0],[0]]","8","0","","","","","","6","","","","","","","","",""
"","","","","","single-stim-button","150","524510","0.0-2.0-34.8-1.8","63d6e456a473cdecf6b9ce84","D2","batch4","","916","tol_toboard","","","","tol_peg_1","916","916","0","[[2,0,0],[3,1],[0]]","9","[[2,1,0],[3,0],[0]]","8","0","","","","","","6","","","","","","","","",""
"","","","","","single-stim-button","151","525282","0.0-2.0-34.9-0.9","63d6e456a473cdecf6b9ce84","D2","batch4","","772","tol_tohand","","","","tol_peg_2","772","772","0","[[2,0,0],[3,0],[0]]","10","[[2,1,0],[3,0],[0]]","8","0","","","","","","6","","","","","","","","",""
"","","","","","single-stim-button","152","526000","0.0-2.0-34.9-1.9","63d6e456a473cdecf6b9ce84","D2","batch4","","716","tol_toboard","","","","tol_peg_1","716","716","0","[[2,1,0],[3,0],[0]]","10","[[2,1,0],[3,0],[0]]","8","0","","","","","","6","","","","","","","","",""
"","","","","","poldrack-single-stim","153","527002","0.0-2.0-35.0","63d6e456a473cdecf6b9ce84","D2","batch4","","-1","tol_feedback","","","true","","1000","1000","500","","","","","","-1","none","true","5076","21316","","","","","","","","","",""
"","","","","","html-button-response","154","528513","0.0-2.0-36.0","63d6e456a473cdecf6b9ce84","D2","batch4","","1509.6000000238419","tol_trial_num","<div class = centerbox><p class = center-block-text>problem <strong>10</strong> out of 25 problems</p></div>","0","","","","","","","","","","","","","","","","","","","","","","","","",""
"","","","","","single-stim-button","155","531995","0.0-2.0-37.0-0.0","63d6e456a473cdecf6b9ce84","D2","batch4","","3481","tol_tohand","","","","tol_peg_2","3481","3481","0","[[3,0,0],[0,0],[2]]","1","[[3,0,0],[2,1],[0]]","9","0","","","","","","3","","","","","","","","",""
"","","","","","single-stim-button","156","532728","0.0-2.0-37.0-1.0","63d6e456a473cdecf6b9ce84","D2","batch4","","731","tol_toboard","","","","tol_peg_1","731","731","0","[[3,1,0],[0,0],[2]]","1","[[3,0,0],[2,1],[0]]","9","0","","","","","","3","","","","","","","","",""
"","","","","","single-stim-button","157","533542","0.0-2.0-37.1-0.1","63d6e456a473cdecf6b9ce84","D2","batch4","","813","tol_tohand","","","","tol_peg_3","813","813","0","[[3,1,0],[0,0],[0]]","2","[[3,0,0],[2,1],[0]]","9","0","","","","","","3","","","","","","","","",""
"","","","","","single-stim-button","158","534338","0.0-2.0-37.1-1.1","63d6e456a473cdecf6b9ce84","D2","batch4","","795","tol_toboard","","","","tol_peg_2","795","795","0","[[3,1,0],[2,0],[0]]","2","[[3,0,0],[2,1],[0]]","9","0","","","","","","3","","","","","","","","",""
"","","","","","single-stim-button","159","535243","0.0-2.0-37.2-0.2","63d6e456a473cdecf6b9ce84","D2","batch4","","905","tol_tohand","","","","tol_peg_1","905","905","0","[[3,0,0],[2,0],[0]]","3","[[3,0,0],[2,1],[0]]","9","0","","","","","","3","","","","","","","","",""
"","","","","","single-stim-button","160","536051","0.0-2.0-37.2-1.2","63d6e456a473cdecf6b9ce84","D2","batch4","","806","tol_toboard","","","","tol_peg_2","806","806","0","[[3,0,0],[2,1],[0]]","3","[[3,0,0],[2,1],[0]]","9","0","","","","","","3","","","","","","","","",""
"","","","","","poldrack-single-stim","161","537062","0.0-2.0-38.0","63d6e456a473cdecf6b9ce84","D2","batch4","","-1","tol_feedback","","","true","","1000","1000","500","","","","","","-1","none","true","3481","5199","","","","","","","","","",""
"","","","","","html-button-response","162","538481","0.0-2.0-39.0","63d6e456a473cdecf6b9ce84","D2","batch4","","1417.0999999046326","tol_trial_num","<div class = centerbox><p class = center-block-text>problem <strong>11</strong> out of 25 problems</p></div>","0","","","","","","","","","","","","","","","","","","","","","","","","",""
"","","","","","single-stim-button","163","546346","0.0-2.0-40.0-0.0","63d6e456a473cdecf6b9ce84","D2","batch4","","7865","tol_tohand","","","","tol_peg_1","7865","7865","0","[[1,0,0],[3,0],[0]]","1","[[2,0,0],[1,3],[0]]","10","0","","","","","","6","","","","","","","","",""
"","","","","","single-stim-button","164","551108","0.0-2.0-40.0-1.0","63d6e456a473cdecf6b9ce84","D2","batch4","","4760","tol_toboard","","","","tol_peg_3","4760","4760","0","[[1,0,0],[3,0],[2]]","1","[[2,0,0],[1,3],[0]]","10","0","","","","","","6","","","","","","","","",""
"","","","","","single-stim-button","165","554818","0.0-2.0-40.1-0.1","63d6e456a473cdecf6b9ce84","D2","batch4","","3708","tol_tohand","","","","tol_peg_1","3708","3708","0","[[0,0,0],[3,0],[2]]","2","[[2,0,0],[1,3],[0]]","10","0","","","","","","6","","","","","","","","",""
"","","","","","single-stim-button","166","555574","0.0-2.0-40.1-1.1","63d6e456a473cdecf6b9ce84","D2","batch4","","754","tol_toboard","","","","tol_peg_2","754","754","0","[[0,0,0],[3,1],[2]]","2","[[2,0,0],[1,3],[0]]","10","0","","","","","","6","","","","","","","","",""
"","","","","","single-stim-button","167","556292","0.0-2.0-40.2-0.2","63d6e456a473cdecf6b9ce84","D2","batch4","","717","tol_tohand","","","","tol_peg_3","717","717","0","[[0,0,0],[3,1],[0]]","3","[[2,0,0],[1,3],[0]]","10","0","","","","","","6","","","","","","","","",""
"","","","","","single-stim-button","168","557483","0.0-2.0-40.2-1.2","63d6e456a473cdecf6b9ce84","D2","batch4","","1190","tol_toboard","","","","tol_peg_1","1190","1190","0","[[2,0,0],[3,1],[0]]","3","[[2,0,0],[1,3],[0]]","10","0","","","","","","6","","","","","","","","",""
"","","","","","single-stim-button","169","558948","0.0-2.0-40.3-0.3","63d6e456a473cdecf6b9ce84","D2","batch4","","1464","tol_tohand","","","","tol_peg_2","1464","1464","0","[[2,0,0],[3,0],[0]]","4","[[2,0,0],[1,3],[0]]","10","0","","","","","","6","","","","","","","","",""
"","","","","","single-stim-button","170","559832","0.0-2.0-40.3-1.3","63d6e456a473cdecf6b9ce84","D2","batch4","","883","tol_toboard","","","","tol_peg_3","883","883","0","[[2,0,0],[3,0],[1]]","4","[[2,0,0],[1,3],[0]]","10","0","","","","","","6","","","","","","","","",""
"","","","","","single-stim-button","171","560594","0.0-2.0-40.4-0.4","63d6e456a473cdecf6b9ce84","D2","batch4","","762","tol_tohand","","","","tol_peg_2","762","762","0","[[2,0,0],[0,0],[1]]","5","[[2,0,0],[1,3],[0]]","10","0","","","","","","6","","","","","","","","",""
"","","","","","single-stim-button","172","561336","0.0-2.0-40.4-1.4","63d6e456a473cdecf6b9ce84","D2","batch4","","741","tol_toboard","","","","tol_peg_1","741","741","0","[[2,3,0],[0,0],[1]]","5","[[2,0,0],[1,3],[0]]","10","0","","","","","","6","","","","","","","","",""
"","","","","","single-stim-button","173","562156","0.0-2.0-40.5-0.5","63d6e456a473cdecf6b9ce84","D2","batch4","","819","tol_tohand","","","","tol_peg_3","819","819","0","[[2,3,0],[0,0],[0]]","6","[[2,0,0],[1,3],[0]]","10","0","","","","","","6","","","","","","","","",""
"","","","","","single-stim-button","174","562962","0.0-2.0-40.5-1.5","63d6e456a473cdecf6b9ce84","D2","batch4","","805","tol_toboard","","","","tol_peg_2","805","805","0","[[2,3,0],[1,0],[0]]","6","[[2,0,0],[1,3],[0]]","10","0","","","","","","6","","","","","","","","",""
"","","","","","single-stim-button","175","563717","0.0-2.0-40.6-0.6","63d6e456a473cdecf6b9ce84","D2","batch4","","753","tol_tohand","","","","tol_peg_1","753","753","0","[[2,0,0],[1,0],[0]]","7","[[2,0,0],[1,3],[0]]","10","0","","","","","","6","","","","","","","","",""
"","","","","","single-stim-button","176","564412","0.0-2.0-40.6-1.6","63d6e456a473cdecf6b9ce84","D2","batch4","","694","tol_toboard","","","","tol_peg_2","694","694","0","[[2,0,0],[1,3],[0]]","7","[[2,0,0],[1,3],[0]]","10","0","","","","","","6","","","","","","","","",""
"","","","","","poldrack-single-stim","177","565427","0.0-2.0-41.0","63d6e456a473cdecf6b9ce84","D2","batch4","","-1","tol_feedback","","","true","","1000","1000","500","","","","","","-1","none","true","7865","16088","","","","","","","","","",""
"","","","","","html-button-response","178","566649","0.0-2.0-42.0","63d6e456a473cdecf6b9ce84","D2","batch4","","1221.7000000476837","tol_trial_num","<div class = centerbox><p class = center-block-text>problem <strong>12</strong> out of 25 problems</p></div>","0","","","","","","","","","","","","","","","","","","","","","","","","",""
"","","","","","single-stim-button","179","576694","0.0-2.0-43.0-0.0","63d6e456a473cdecf6b9ce84","D2","batch4","","10043","tol_tohand","","","","tol_peg_1","10043","10043","0","[[1,0,0],[3,0],[0]]","1","[[2,3,0],[0,0],[1]]","11","0","","","","","","4","","","","","","","","",""
"","","","","","single-stim-button","180","580231","0.0-2.0-43.0-1.0","63d6e456a473cdecf6b9ce84","D2","batch4","","3537","tol_toboard","","","","tol_peg_3","3537","3537","0","[[1,0,0],[3,0],[2]]","1","[[2,3,0],[0,0],[1]]","11","0","","","","","","4","","","","","","","","",""
"","","","","","single-stim-button","181","584074","0.0-2.0-43.1-0.1","63d6e456a473cdecf6b9ce84","D2","batch4","","3842","tol_tohand","","","","tol_peg_1","3842","3842","0","[[0,0,0],[3,0],[2]]","2","[[2,3,0],[0,0],[1]]","11","0","","","","","","4","","","","","","","","",""
"","","","","","single-stim-button","182","585738","0.0-2.0-43.1-1.1","63d6e456a473cdecf6b9ce84","D2","batch4","","1662","tol_toboard","","","","tol_peg_2","1662","1662","0","[[0,0,0],[3,1],[2]]","2","[[2,3,0],[0,0],[1]]","11","0","","","","","","4","","","","","","","","",""
"","","","","","single-stim-button","183","586482","0.0-2.0-43.2-0.2","63d6e456a473cdecf6b9ce84","D2","batch4","","744","tol_tohand","","","","tol_peg_3","744","744","0","[[0,0,0],[3,1],[0]]","3","[[2,3,0],[0,0],[1]]","11","0","","","","","","4","","","","","","","","",""
"","","","","","single-stim-button","184","587836","0.0-2.0-43.2-1.2","63d6e456a473cdecf6b9ce84","D2","batch4","","1353","tol_toboard","","","","tol_peg_1","1353","1353","0","[[2,0,0],[3,1],[0]]","3","[[2,3,0],[0,0],[1]]","11","0","","","","","","4","","","","","","","","",""
"","","","","","single-stim-button","185","588570","0.0-2.0-43.3-0.3","63d6e456a473cdecf6b9ce84","D2","batch4","","732","tol_tohand","","","","tol_peg_2","732","732","0","[[2,0,0],[3,0],[0]]","4","[[2,3,0],[0,0],[1]]","11","0","","","","","","4","","","","","","","","",""
"","","","","","single-stim-button","186","589246","0.0-2.0-43.3-1.3","63d6e456a473cdecf6b9ce84","D2","batch4","","675","tol_toboard","","","","tol_peg_3","675","675","0","[[2,0,0],[3,0],[1]]","4","[[2,3,0],[0,0],[1]]","11","0","","","","","","4","","","","","","","","",""
"","","","","","single-stim-button","187","589933","0.0-2.0-43.4-0.4","63d6e456a473cdecf6b9ce84","D2","batch4","","687","tol_tohand","","","","tol_peg_2","687","687","0","[[2,0,0],[0,0],[1]]","5","[[2,3,0],[0,0],[1]]","11","0","","","","","","4","","","","","","","","",""
"","","","","","single-stim-button","188","590772","0.0-2.0-43.4-1.4","63d6e456a473cdecf6b9ce84","D2","batch4","","838","tol_toboard","","","","tol_peg_1","838","838","0","[[2,3,0],[0,0],[1]]","5","[[2,3,0],[0,0],[1]]","11","0","","","","","","4","","","","","","","","",""
"","","","","","poldrack-single-stim","189","591783","0.0-2.0-44.0","63d6e456a473cdecf6b9ce84","D2","batch4","","-1","tol_feedback","","","true","","1000","1000","500","","","","","","-1","none","true","10043","16048","","","","","","","","","",""
"","","","","","html-button-response","190","592892","0.0-2.0-45.0","63d6e456a473cdecf6b9ce84","D2","batch4","","1107.8000000715256","tol_trial_num","<div class = centerbox><p class = center-block-text>problem <strong>13</strong> out of 25 problems</p></div>","0","","","","","","","","","","","","","","","","","","","","","","","","",""
"","","","","","single-stim-button","191","596485","0.0-2.0-46.0-0.0","63d6e456a473cdecf6b9ce84","D2","batch4","","3592","tol_tohand","","","","tol_peg_1","3592","3592","0","[[1,0,0],[3,0],[0]]","1","[[0,0,0],[2,3],[1]]","12","0","","","","","","4","","","","","","","","",""
"","","","","","single-stim-button","192","597202","0.0-2.0-46.0-1.0","63d6e456a473cdecf6b9ce84","D2","batch4","","716","tol_toboard","","","","tol_peg_2","716","716","0","[[1,0,0],[3,2],[0]]","1","[[0,0,0],[2,3],[1]]","12","0","","","","","","4","","","","","","","","",""
"","","","","","single-stim-button","193","597930","0.0-2.0-46.1-0.1","63d6e456a473cdecf6b9ce84","D2","batch4","","727","tol_tohand","","","","tol_peg_1","727","727","0","[[0,0,0],[3,2],[0]]","2","[[0,0,0],[2,3],[1]]","12","0","","","","","","4","","","","","","","","",""
"","","","","","single-stim-button","194","598792","0.0-2.0-46.1-1.1","63d6e456a473cdecf6b9ce84","D2","batch4","","861","tol_toboard","","","","tol_peg_3","861","861","0","[[0,0,0],[3,2],[1]]","2","[[0,0,0],[2,3],[1]]","12","0","","","","","","4","","","","","","","","",""
"","","","","","single-stim-button","195","599521","0.0-2.0-46.2-0.2","63d6e456a473cdecf6b9ce84","D2","batch4","","728","tol_tohand","","","","tol_peg_2","728","728","0","[[0,0,0],[3,0],[1]]","3","[[0,0,0],[2,3],[1]]","12","0","","","","","","4","","","","","","","","",""
"","","","","","single-stim-button","196","600499","0.0-2.0-46.2-1.2","63d6e456a473cdecf6b9ce84","D2","batch4","","978","tol_toboard","","","","tol_peg_1","978","978","0","[[2,0,0],[3,0],[1]]","3","[[0,0,0],[2,3],[1]]","12","0","","","","","","4","","","","","","","","",""
"","","","","","single-stim-button","197","601406","0.0-2.0-46.3-0.3","63d6e456a473cdecf6b9ce84","D2","batch4","","905","tol_tohand","","","","tol_peg_2","905","905","0","[[2,0,0],[0,0],[1]]","4","[[0,0,0],[2,3],[1]]","12","0","","","","","","4","","","","","","","","",""
"","","","","","single-stim-button","198","602212","0.0-2.0-46.3-1.3","63d6e456a473cdecf6b9ce84","D2","batch4","","805","tol_toboard","","","","tol_peg_1","805","805","0","[[2,3,0],[0,0],[1]]","4","[[0,0,0],[2,3],[1]]","12","0","","","","","","4","","","","","","","","",""
"","","","","","single-stim-button","199","612830","0.0-2.0-46.4-0.4","63d6e456a473cdecf6b9ce84","D2","batch4","","10616","tol_tohand","","","","tol_peg_1","10616","10616","0","[[2,0,0],[0,0],[1]]","5","[[0,0,0],[2,3],[1]]","12","0","","","","","","4","","","","","","","","",""
"","","","","","single-stim-button","200","617009","0.0-2.0-46.4-1.4","63d6e456a473cdecf6b9ce84","D2","batch4","","4177","tol_toboard","","","","tol_peg_2","4177","4177","0","[[2,0,0],[3,0],[1]]","5","[[0,0,0],[2,3],[1]]","12","0","","","","","","4","","","","","","","","",""
"","","","","","single-stim-button","201","619751","0.0-2.0-46.5-0.5","63d6e456a473cdecf6b9ce84","D2","batch4","","2742","tol_tohand","","","","tol_peg_3","2742","2742","0","[[2,0,0],[3,0],[0]]","6","[[0,0,0],[2,3],[1]]","12","0","","","","","","4","","","","","","","","",""
"","","","","","single-stim-button","202","620671","0.0-2.0-46.5-1.5","63d6e456a473cdecf6b9ce84","D2","batch4","","918","tol_toboard","","","","tol_peg_1","918","918","0","[[2,1,0],[3,0],[0]]","6","[[0,0,0],[2,3],[1]]","12","0","","","","","","4","","","","","","","","",""
"","","","","","single-stim-button","203","621374","0.0-2.0-46.6-0.6","63d6e456a473cdecf6b9ce84","D2","batch4","","702","tol_tohand","","","","tol_peg_2","702","702","0","[[2,1,0],[0,0],[0]]","7","[[0,0,0],[2,3],[1]]","12","0","","","","","","4","","","","","","","","",""
"","","","","","single-stim-button","204","622530","0.0-2.0-46.6-1.6","63d6e456a473cdecf6b9ce84","D2","batch4","","1156","tol_toboard","","","","tol_peg_3","1156","1156","0","[[2,1,0],[0,0],[3]]","7","[[0,0,0],[2,3],[1]]","12","0","","","","","","4","","","","","","","","",""
"","","","","","single-stim-button","205","624532","0.0-2.0-46.7-0.7","63d6e456a473cdecf6b9ce84","D2","batch4","","2001","tol_tohand","","","","tol_peg_1","2001","2001","0","[[2,0,0],[0,0],[3]]","8","[[0,0,0],[2,3],[1]]","12","0","","","","","","4","","","","","","","","",""
"","","","","","single-stim-button","206","627834","0.0-2.0-46.7-1.7","63d6e456a473cdecf6b9ce84","D2","batch4","","3301","tol_toboard","","","","tol_peg_2","3301","3301","0","[[2,0,0],[1,0],[3]]","8","[[0,0,0],[2,3],[1]]","12","0","","","","","","4","","","","","","","","",""
"","","","","","single-stim-button","207","628668","0.0-2.0-46.8-0.8","63d6e456a473cdecf6b9ce84","D2","batch4","","832","tol_tohand","","","","tol_peg_1","832","832","0","[[0,0,0],[1,0],[3]]","9","[[0,0,0],[2,3],[1]]","12","0","","","","","","4","","","","","","","","",""
"","","","","","single-stim-button","208","629452","0.0-2.0-46.8-1.8","63d6e456a473cdecf6b9ce84","D2","batch4","","783","tol_toboard","","","","tol_peg_2","783","783","0","[[0,0,0],[1,2],[3]]","9","[[0,0,0],[2,3],[1]]","12","0","","","","","","4","","","","","","","","",""
"","","","","","single-stim-button","209","630722","0.0-2.0-46.9-0.9","63d6e456a473cdecf6b9ce84","D2","batch4","","1270","tol_tohand","","","","tol_peg_3","1270","1270","0","[[0,0,0],[1,2],[0]]","10","[[0,0,0],[2,3],[1]]","12","0","","","","","","4","","","","","","","","",""
"","","","","","single-stim-button","210","631855","0.0-2.0-46.9-1.9","63d6e456a473cdecf6b9ce84","D2","batch4","","1131","tol_toboard","","","","tol_peg_1","1131","1131","0","[[3,0,0],[1,2],[0]]","10","[[0,0,0],[2,3],[1]]","12","0","","","","","","4","","","","","","","","",""
"","","","","","single-stim-button","211","633263","0.0-2.0-46.10-0.10","63d6e456a473cdecf6b9ce84","D2","batch4","","1408","tol_tohand","","","","tol_peg_2","1408","1408","0","[[3,0,0],[1,0],[0]]","11","[[0,0,0],[2,3],[1]]","12","0","","","","","","4","","","","","","","","",""
"","","","","","single-stim-button","212","634071","0.0-2.0-46.10-1.10","63d6e456a473cdecf6b9ce84","D2","batch4","","806","tol_toboard","","","","tol_peg_3","806","806","0","[[3,0,0],[1,0],[2]]","11","[[0,0,0],[2,3],[1]]","12","0","","","","","","4","","","","","","","","",""
"","","","","","single-stim-button","213","635866","0.0-2.0-46.11-0.11","63d6e456a473cdecf6b9ce84","D2","batch4","","1794","tol_tohand","","","","tol_peg_2","1794","1794","0","[[3,0,0],[0,0],[2]]","12","[[0,0,0],[2,3],[1]]","12","0","","","","","","4","","","","","","","","",""
"","","","","","single-stim-button","214","637062","0.0-2.0-46.11-1.11","63d6e456a473cdecf6b9ce84","D2","batch4","","1195","tol_toboard","","","","tol_peg_1","1195","1195","0","[[3,1,0],[0,0],[2]]","12","[[0,0,0],[2,3],[1]]","12","0","","","","","","4","","","","","","","","",""
"","","","","","single-stim-button","215","637921","0.0-2.0-46.12-0.12","63d6e456a473cdecf6b9ce84","D2","batch4","","858","tol_tohand","","","","tol_peg_3","858","858","0","[[3,1,0],[0,0],[0]]","13","[[0,0,0],[2,3],[1]]","12","0","","","","","","4","","","","","","","","",""
"","","","","","single-stim-button","216","639096","0.0-2.0-46.12-1.12","63d6e456a473cdecf6b9ce84","D2","batch4","","1174","tol_toboard","","","","tol_peg_2","1174","1174","0","[[3,1,0],[2,0],[0]]","13","[[0,0,0],[2,3],[1]]","12","0","","","","","","4","","","","","","","","",""
"","","","","","single-stim-button","217","639905","0.0-2.0-46.13-0.13","63d6e456a473cdecf6b9ce84","D2","batch4","","807","tol_tohand","","","","tol_peg_1","807","807","0","[[3,0,0],[2,0],[0]]","14","[[0,0,0],[2,3],[1]]","12","0","","","","","","4","","","","","","","","",""
"","","","","","single-stim-button","218","640736","0.0-2.0-46.13-1.13","63d6e456a473cdecf6b9ce84","D2","batch4","","831","tol_toboard","","","","tol_peg_3","831","831","0","[[3,0,0],[2,0],[1]]","14","[[0,0,0],[2,3],[1]]","12","0","","","","","","4","","","","","","","","",""
"","","","","","single-stim-button","219","641622","0.0-2.0-46.14-0.14","63d6e456a473cdecf6b9ce84","D2","batch4","","884","tol_tohand","","","","tol_peg_1","884","884","0","[[0,0,0],[2,0],[1]]","15","[[0,0,0],[2,3],[1]]","12","0","","","","","","4","","","","","","","","",""
"","","","","","single-stim-button","220","642155","0.0-2.0-46.14-1.14","63d6e456a473cdecf6b9ce84","D2","batch4","","532","tol_toboard","","","","tol_peg_2","532","532","0","[[0,0,0],[2,3],[1]]","15","[[0,0,0],[2,3],[1]]","12","0","","","","","","4","","","","","","","","",""
"","","","","","poldrack-single-stim","221","643160","0.0-2.0-47.0","63d6e456a473cdecf6b9ce84","D2","batch4","","-1","tol_feedback","","","true","","1000","1000","500","","","","","","-1","none","true","3592","29866","","","","","","","","","",""
"","","","","","html-button-response","222","648092","0.0-2.0-48.0","63d6e456a473cdecf6b9ce84","D2","batch4","","4930.200000047684","attention_check","<p class = block-text>How many balls are in your board<br></p>","1","true","","","","","","","","","","","","","","","","","","","","","","","",""
"","","","","","html-button-response","223","650536","0.0-2.0-49.0","63d6e456a473cdecf6b9ce84","D2","batch4","","2443.2000000476837","tol_trial_num","<div class = centerbox><p class = center-block-text>problem <strong>14</strong> out of 25 problems</p></div>","0","","","","","","","","","","","","","","","","","","","","","","","","",""
"","","","","","single-stim-button","224","656063","0.0-2.0-50.0-0.0","63d6e456a473cdecf6b9ce84","D2","batch4","","5526","tol_tohand","","","","tol_peg_1","5526","5526","0","[[2,0,0],[3,0],[0]]","1","[[1,2,0],[3,0],[0]]","13","0","","","","","","4","","","","","","","","",""
"","","","","","single-stim-button","225","657300","0.0-2.0-50.0-1.0","63d6e456a473cdecf6b9ce84","D2","batch4","","1235","tol_toboard","","","","tol_peg_3","1235","1235","0","[[2,0,0],[3,0],[1]]","1","[[1,2,0],[3,0],[0]]","13","0","","","","","","4","","","","","","","","",""
"","","","","","single-stim-button","226","658058","0.0-2.0-50.1-0.1","63d6e456a473cdecf6b9ce84","D2","batch4","","758","tol_tohand","","","","tol_peg_1","758","758","0","[[0,0,0],[3,0],[1]]","2","[[1,2,0],[3,0],[0]]","13","0","","","","","","4","","","","","","","","",""
"","","","","","single-stim-button","227","658924","0.0-2.0-50.1-1.1","63d6e456a473cdecf6b9ce84","D2","batch4","","866","tol_toboard","","","","tol_peg_2","866","866","0","[[0,0,0],[3,2],[1]]","2","[[1,2,0],[3,0],[0]]","13","0","","","","","","4","","","","","","","","",""
"","","","","","single-stim-button","228","659520","0.0-2.0-50.2-0.2","63d6e456a473cdecf6b9ce84","D2","batch4","","595","tol_tohand","","","","tol_peg_3","595","595","0","[[0,0,0],[3,2],[0]]","3","[[1,2,0],[3,0],[0]]","13","0","","","","","","4","","","","","","","","",""
"","","","","","single-stim-button","229","660728","0.0-2.0-50.2-1.2","63d6e456a473cdecf6b9ce84","D2","batch4","","1206","tol_toboard","","","","tol_peg_1","1206","1206","0","[[1,0,0],[3,2],[0]]","3","[[1,2,0],[3,0],[0]]","13","0","","","","","","4","","","","","","","","",""
"","","","","","single-stim-button","230","661623","0.0-2.0-50.3-0.3","63d6e456a473cdecf6b9ce84","D2","batch4","","894","tol_tohand","","","","tol_peg_2","894","894","0","[[1,0,0],[3,0],[0]]","4","[[1,2,0],[3,0],[0]]","13","0","","","","","","4","","","","","","","","",""
"","","","","","single-stim-button","231","662286","0.0-2.0-50.3-1.3","63d6e456a473cdecf6b9ce84","D2","batch4","","662","tol_toboard","","","","tol_peg_1","662","662","0","[[1,2,0],[3,0],[0]]","4","[[1,2,0],[3,0],[0]]","13","0","","","","","","4","","","","","","","","",""
"","","","","","poldrack-single-stim","232","663301","0.0-2.0-51.0","63d6e456a473cdecf6b9ce84","D2","batch4","","-1","tol_feedback","","","true","","1000","1000","500","","","","","","-1","none","true","5526","7773","","","","","","","","","",""
"","","","","","html-button-response","233","666186","0.0-2.0-52.0","63d6e456a473cdecf6b9ce84","D2","batch4","","2883.2000000476837","tol_trial_num","<div class = centerbox><p class = center-block-text>problem <strong>15</strong> out of 25 problems</p></div>","0","","","","","","","","","","","","","","","","","","","","","","","","",""
"","","","","","single-stim-button","234","670326","0.0-2.0-53.0-0.0","63d6e456a473cdecf6b9ce84","D2","batch4","","4138","tol_tohand","","","","tol_peg_1","4138","4138","0","[[1,0,0],[3,0],[0]]","1","[[2,0,0],[3,0],[1]]","14","0","","","","","","3","","","","","","","","",""
"","","","","","single-stim-button","235","671241","0.0-2.0-53.0-1.0","63d6e456a473cdecf6b9ce84","D2","batch4","","914","tol_toboard","","","","tol_peg_2","914","914","0","[[1,0,0],[3,2],[0]]","1","[[2,0,0],[3,0],[1]]","14","0","","","","","","3","","","","","","","","",""
"","","","","","single-stim-button","236","671918","0.0-2.0-53.1-0.1","63d6e456a473cdecf6b9ce84","D2","batch4","","676","tol_tohand","","","","tol_peg_1","676","676","0","[[0,0,0],[3,2],[0]]","2","[[2,0,0],[3,0],[1]]","14","0","","","","","","3","","","","","","","","",""
"","","","","","single-stim-button","237","672864","0.0-2.0-53.1-1.1","63d6e456a473cdecf6b9ce84","D2","batch4","","945","tol_toboard","","","","tol_peg_3","945","945","0","[[0,0,0],[3,2],[1]]","2","[[2,0,0],[3,0],[1]]","14","0","","","","","","3","","","","","","","","",""
"","","","","","single-stim-button","238","673791","0.0-2.0-53.2-0.2","63d6e456a473cdecf6b9ce84","D2","batch4","","925","tol_tohand","","","","tol_peg_2","925","925","0","[[0,0,0],[3,0],[1]]","3","[[2,0,0],[3,0],[1]]","14","0","","","","","","3","","","","","","","","",""
"","","","","","single-stim-button","239","674830","0.0-2.0-53.2-1.2","63d6e456a473cdecf6b9ce84","D2","batch4","","1039","tol_toboard","","","","tol_peg_1","1039","1039","0","[[2,0,0],[3,0],[1]]","3","[[2,0,0],[3,0],[1]]","14","0","","","","","","3","","","","","","","","",""
"","","","","","poldrack-single-stim","240","675832","0.0-2.0-54.0","63d6e456a473cdecf6b9ce84","D2","batch4","","-1","tol_feedback","","","true","","1000","1000","500","","","","","","-1","none","true","4138","5739","","","","","","","","","",""
"","","","","","html-button-response","241","677656","0.0-2.0-55.0","63d6e456a473cdecf6b9ce84","D2","batch4","","1822.3999999761581","tol_trial_num","<div class = centerbox><p class = center-block-text>problem <strong>16</strong> out of 25 problems</p></div>","0","","","","","","","","","","","","","","","","","","","","","","","","",""
"","","","","","single-stim-button","242","684082","0.0-2.0-56.0-0.0","63d6e456a473cdecf6b9ce84","D2","batch4","","6424","tol_tohand","","","","tol_peg_3","6424","6424","0","[[0,0,0],[2,3],[0]]","1","[[2,3,0],[1,0],[0]]","15","0","","","","","","7","","","","","","","","",""
"","","","","","single-stim-button","243","686366","0.0-2.0-56.0-1.0","63d6e456a473cdecf6b9ce84","D2","batch4","","2283","tol_toboard","","","","tol_peg_1","2283","2283","0","[[1,0,0],[2,3],[0]]","1","[[2,3,0],[1,0],[0]]","15","0","","","","","","7","","","","","","","","",""
"","","","","","single-stim-button","244","688924","0.0-2.0-56.1-0.1","63d6e456a473cdecf6b9ce84","D2","batch4","","2558","tol_tohand","","","","tol_peg_2","2558","2558","0","[[1,0,0],[2,0],[0]]","2","[[2,3,0],[1,0],[0]]","15","0","","","","","","7","","","","","","","","",""
"","","","","","single-stim-button","245","689829","0.0-2.0-56.1-1.1","63d6e456a473cdecf6b9ce84","D2","batch4","","904","tol_toboard","","","","tol_peg_3","904","904","0","[[1,0,0],[2,0],[3]]","2","[[2,3,0],[1,0],[0]]","15","0","","","","","","7","","","","","","","","",""
"","","","","","single-stim-button","246","698422","0.0-2.0-56.2-0.2","63d6e456a473cdecf6b9ce84","D2","batch4","","8591","tol_tohand","","","","tol_peg_2","8591","8591","0","[[1,0,0],[0,0],[3]]","3","[[2,3,0],[1,0],[0]]","15","0","","","","","","7","","","","","","","","",""
"","","","","","single-stim-button","247","699824","0.0-2.0-56.2-1.2","63d6e456a473cdecf6b9ce84","D2","batch4","","1401","tol_toboard","","","","tol_peg_1","1401","1401","0","[[1,2,0],[0,0],[3]]","3","[[2,3,0],[1,0],[0]]","15","0","","","","","","7","","","","","","","","",""
"","","","","","single-stim-button","248","702422","0.0-2.0-56.3-0.3","63d6e456a473cdecf6b9ce84","D2","batch4","","2596","tol_tohand","","","","tol_peg_3","2596","2596","0","[[1,2,0],[0,0],[0]]","4","[[2,3,0],[1,0],[0]]","15","0","","","","","","7","","","","","","","","",""
"","","","","","single-stim-button","249","703762","0.0-2.0-56.3-1.3","63d6e456a473cdecf6b9ce84","D2","batch4","","1339","tol_toboard","","","","tol_peg_2","1339","1339","0","[[1,2,0],[3,0],[0]]","4","[[2,3,0],[1,0],[0]]","15","0","","","","","","7","","","","","","","","",""
"","","","","","single-stim-button","250","705418","0.0-2.0-56.4-0.4","63d6e456a473cdecf6b9ce84","D2","batch4","","1655","tol_tohand","","","","tol_peg_1","1655","1655","0","[[1,0,0],[3,0],[0]]","5","[[2,3,0],[1,0],[0]]","15","0","","","","","","7","","","","","","","","",""
"","","","","","single-stim-button","251","706538","0.0-2.0-56.4-1.4","63d6e456a473cdecf6b9ce84","D2","batch4","","1120","tol_toboard","","","","tol_peg_3","1120","1120","0","[[1,0,0],[3,0],[2]]","5","[[2,3,0],[1,0],[0]]","15","0","","","","","","7","","","","","","","","",""
"","","","","","single-stim-button","252","708325","0.0-2.0-56.5-0.5","63d6e456a473cdecf6b9ce84","D2","batch4","","1786","tol_tohand","","","","tol_peg_1","1786","1786","0","[[0,0,0],[3,0],[2]]","6","[[2,3,0],[1,0],[0]]","15","0","","","","","","7","","","","","","","","",""
"","","","","","single-stim-button","253","710851","0.0-2.0-56.5-1.5","63d6e456a473cdecf6b9ce84","D2","batch4","","2525","tol_toboard","","","","tol_peg_2","2525","2525","0","[[0,0,0],[3,1],[2]]","6","[[2,3,0],[1,0],[0]]","15","0","","","","","","7","","","","","","","","",""
"","","","","","single-stim-button","254","711500","0.0-2.0-56.6-0.6","63d6e456a473cdecf6b9ce84","D2","batch4","","647","tol_tohand","","","","tol_peg_3","647","647","0","[[0,0,0],[3,1],[0]]","7","[[2,3,0],[1,0],[0]]","15","0","","","","","","7","","","","","","","","",""
"","","","","","single-stim-button","255","712440","0.0-2.0-56.6-1.6","63d6e456a473cdecf6b9ce84","D2","batch4","","940","tol_toboard","","","","tol_peg_1","940","940","0","[[2,0,0],[3,1],[0]]","7","[[2,3,0],[1,0],[0]]","15","0","","","","","","7","","","","","","","","",""
"","","","","","single-stim-button","256","713362","0.0-2.0-56.7-0.7","63d6e456a473cdecf6b9ce84","D2","batch4","","921","tol_tohand","","","","tol_peg_2","921","921","0","[[2,0,0],[3,0],[0]]","8","[[2,3,0],[1,0],[0]]","15","0","","","","","","7","","","","","","","","",""
"","","","","","single-stim-button","257","714212","0.0-2.0-56.7-1.7","63d6e456a473cdecf6b9ce84","D2","batch4","","848","tol_toboard","","","","tol_peg_3","848","848","0","[[2,0,0],[3,0],[1]]","8","[[2,3,0],[1,0],[0]]","15","0","","","","","","7","","","","","","","","",""
"","","","","","single-stim-button","258","714940","0.0-2.0-56.8-0.8","63d6e456a473cdecf6b9ce84","D2","batch4","","727","tol_tohand","","","","tol_peg_2","727","727","0","[[2,0,0],[0,0],[1]]","9","[[2,3,0],[1,0],[0]]","15","0","","","","","","7","","","","","","","","",""
"","","","","","single-stim-button","259","715879","0.0-2.0-56.8-1.8","63d6e456a473cdecf6b9ce84","D2","batch4","","938","tol_toboard","","","","tol_peg_1","938","938","0","[[2,3,0],[0,0],[1]]","9","[[2,3,0],[1,0],[0]]","15","0","","","","","","7","","","","","","","","",""
"","","","","","single-stim-button","260","716568","0.0-2.0-56.9-0.9","63d6e456a473cdecf6b9ce84","D2","batch4","","687","tol_tohand","","","","tol_peg_3","687","687","0","[[2,3,0],[0,0],[0]]","10","[[2,3,0],[1,0],[0]]","15","0","","","","","","7","","","","","","","","",""
"","","","","","single-stim-button","261","717406","0.0-2.0-56.9-1.9","63d6e456a473cdecf6b9ce84","D2","batch4","","838","tol_toboard","","","","tol_peg_2","838","838","0","[[2,3,0],[1,0],[0]]","10","[[2,3,0],[1,0],[0]]","15","0","","","","","","7","","","","","","","","",""
"","","","","","poldrack-single-stim","262","718408","0.0-2.0-57.0","63d6e456a473cdecf6b9ce84","D2","batch4","","-1","tol_feedback","","","true","","1000","1000","500","","","","","","-1","none","true","6424","26592","","","","","","","","","",""
"","","","","","html-button-response","263","719529","0.0-2.0-58.0","63d6e456a473cdecf6b9ce84","D2","batch4","","1119","tol_trial_num","<div class = centerbox><p class = center-block-text>problem <strong>17</strong> out of 25 problems</p></div>","0","","","","","","","","","","","","","","","","","","","","","","","","",""
"","","","","","single-stim-button","264","724742","0.0-2.0-59.0-0.0","63d6e456a473cdecf6b9ce84","D2","batch4","","5213","tol_tohand","","","","tol_peg_2","5213","5213","0","[[1,2,0],[0,0],[0]]","1","[[3,1,0],[2,0],[0]]","16","0","","","","","","5","","","","","","","","",""
"","","","","","single-stim-button","265","725502","0.0-2.0-59.0-1.0","63d6e456a473cdecf6b9ce84","D2","batch4","","759","tol_toboard","","","","tol_peg_3","759","759","0","[[1,2,0],[0,0],[3]]","1","[[3,1,0],[2,0],[0]]","16","0","","","","","","5","","","","","","","","",""
"","","","","","single-stim-button","266","726292","0.0-2.0-59.1-0.1","63d6e456a473cdecf6b9ce84","D2","batch4","","789","tol_tohand","","","","tol_peg_1","789","789","0","[[1,0,0],[0,0],[3]]","2","[[3,1,0],[2,0],[0]]","16","0","","","","","","5","","","","","","","","",""
"","","","","","single-stim-button","267","726967","0.0-2.0-59.1-1.1","63d6e456a473cdecf6b9ce84","D2","batch4","","674","tol_toboard","","","","tol_peg_2","674","674","0","[[1,0,0],[2,0],[3]]","2","[[3,1,0],[2,0],[0]]","16","0","","","","","","5","","","","","","","","",""
"","","","","","single-stim-button","268","727847","0.0-2.0-59.2-0.2","63d6e456a473cdecf6b9ce84","D2","batch4","","879","tol_tohand","","","","tol_peg_1","879","879","0","[[0,0,0],[2,0],[3]]","3","[[3,1,0],[2,0],[0]]","16","0","","","","","","5","","","","","","","","",""
"","","","","","single-stim-button","269","728547","0.0-2.0-59.2-1.2","63d6e456a473cdecf6b9ce84","D2","batch4","","700","tol_toboard","","","","tol_peg_2","700","700","0","[[0,0,0],[2,1],[3]]","3","[[3,1,0],[2,0],[0]]","16","0","","","","","","5","","","","","","","","",""
"","","","","","single-stim-button","270","729370","0.0-2.0-59.3-0.3","63d6e456a473cdecf6b9ce84","D2","batch4","","822","tol_tohand","","","","tol_peg_3","822","822","0","[[0,0,0],[2,1],[0]]","4","[[3,1,0],[2,0],[0]]","16","0","","","","","","5","","","","","","","","",""
"","","","","","single-stim-button","271","730416","0.0-2.0-59.3-1.3","63d6e456a473cdecf6b9ce84","D2","batch4","","1045","tol_toboard","","","","tol_peg_1","1045","1045","0","[[3,0,0],[2,1],[0]]","4","[[3,1,0],[2,0],[0]]","16","0","","","","","","5","","","","","","","","",""
"","","","","","single-stim-button","272","731032","0.0-2.0-59.4-0.4","63d6e456a473cdecf6b9ce84","D2","batch4","","615","tol_tohand","","","","tol_peg_2","615","615","0","[[3,0,0],[2,0],[0]]","5","[[3,1,0],[2,0],[0]]","16","0","","","","","","5","","","","","","","","",""
"","","","","","single-stim-button","273","731897","0.0-2.0-59.4-1.4","63d6e456a473cdecf6b9ce84","D2","batch4","","865","tol_toboard","","","","tol_peg_1","865","865","0","[[3,1,0],[2,0],[0]]","5","[[3,1,0],[2,0],[0]]","16","0","","","","","","5","","","","","","","","",""
"","","","","","poldrack-single-stim","274","732910","0.0-2.0-60.0","63d6e456a473cdecf6b9ce84","D2","batch4","","-1","tol_feedback","","","true","","1000","1000","500","","","","","","-1","none","true","5213","8318","","","","","","","","","",""
"","","","","","html-button-response","275","734365","0.0-2.0-61.0","63d6e456a473cdecf6b9ce84","D2","batch4","","1453","tol_trial_num","<div class = centerbox><p class = center-block-text>problem <strong>18</strong> out of 25 problems</p></div>","0","","","","","","","","","","","","","","","","","","","","","","","","",""
"","","","","","single-stim-button","276","741134","0.0-2.0-62.0-0.0","63d6e456a473cdecf6b9ce84","D2","batch4","","6768","tol_tohand","","","","tol_peg_2","6768","6768","0","[[1,2,0],[0,0],[0]]","1","[[3,0,0],[2,0],[1]]","17","0","","","","","","5","","","","","","","","",""
"","","","","","single-stim-button","277","742058","0.0-2.0-62.0-1.0","63d6e456a473cdecf6b9ce84","D2","batch4","","923","tol_toboard","","","","tol_peg_3","923","923","0","[[1,2,0],[0,0],[3]]","1","[[3,0,0],[2,0],[1]]","17","0","","","","","","5","","","","","","","","",""
"","","","","","single-stim-button","278","742928","0.0-2.0-62.1-0.1","63d6e456a473cdecf6b9ce84","D2","batch4","","869","tol_tohand","","","","tol_peg_1","869","869","0","[[1,0,0],[0,0],[3]]","2","[[3,0,0],[2,0],[1]]","17","0","","","","","","5","","","","","","","","",""
"","","","","","single-stim-button","279","743774","0.0-2.0-62.1-1.1","63d6e456a473cdecf6b9ce84","D2","batch4","","846","tol_toboard","","","","tol_peg_2","846","846","0","[[1,0,0],[2,0],[3]]","2","[[3,0,0],[2,0],[1]]","17","0","","","","","","5","","","","","","","","",""
"","","","","","single-stim-button","280","744982","0.0-2.0-62.2-0.2","63d6e456a473cdecf6b9ce84","D2","batch4","","1207","tol_tohand","","","","tol_peg_1","1207","1207","0","[[0,0,0],[2,0],[3]]","3","[[3,0,0],[2,0],[1]]","17","0","","","","","","5","","","","","","","","",""
"","","","","","single-stim-button","281","745856","0.0-2.0-62.2-1.2","63d6e456a473cdecf6b9ce84","D2","batch4","","872","tol_toboard","","","","tol_peg_2","872","872","0","[[0,0,0],[2,1],[3]]","3","[[3,0,0],[2,0],[1]]","17","0","","","","","","5","","","","","","","","",""
"","","","","","single-stim-button","282","746433","0.0-2.0-62.3-0.3","63d6e456a473cdecf6b9ce84","D2","batch4","","576","tol_tohand","","","","tol_peg_3","576","576","0","[[0,0,0],[2,1],[0]]","4","[[3,0,0],[2,0],[1]]","17","0","","","","","","5","","","","","","","","",""
"","","","","","single-stim-button","283","747357","0.0-2.0-62.3-1.3","63d6e456a473cdecf6b9ce84","D2","batch4","","924","tol_toboard","","","","tol_peg_1","924","924","0","[[3,0,0],[2,1],[0]]","4","[[3,0,0],[2,0],[1]]","17","0","","","","","","5","","","","","","","","",""
"","","","","","single-stim-button","284","748058","0.0-2.0-62.4-0.4","63d6e456a473cdecf6b9ce84","D2","batch4","","699","tol_tohand","","","","tol_peg_2","699","699","0","[[3,0,0],[2,0],[0]]","5","[[3,0,0],[2,0],[1]]","17","0","","","","","","5","","","","","","","","",""
"","","","","","single-stim-button","285","748664","0.0-2.0-62.4-1.4","63d6e456a473cdecf6b9ce84","D2","batch4","","606","tol_toboard","","","","tol_peg_3","606","606","0","[[3,0,0],[2,0],[1]]","5","[[3,0,0],[2,0],[1]]","17","0","","","","","","5","","","","","","","","",""
"","","","","","poldrack-single-stim","286","749681","0.0-2.0-63.0","63d6e456a473cdecf6b9ce84","D2","batch4","","-1","tol_feedback","","","true","","1000","1000","500","","","","","","-1","none","true","6768","10119","","","","","","","","","",""
"","","","","","html-button-response","287","751532","0.0-2.0-64.0","63d6e456a473cdecf6b9ce84","D2","batch4","","1849","tol_trial_num","<div class = centerbox><p class = center-block-text>problem <strong>19</strong> out of 25 problems</p></div>","0","","","","","","","","","","","","","","","","","","","","","","","","",""
"","","","","","single-stim-button","288","755494","0.0-2.0-65.0-0.0","63d6e456a473cdecf6b9ce84","D2","batch4","","3962","tol_tohand","","","","tol_peg_2","3962","3962","0","[[1,2,0],[0,0],[0]]","1","[[0,0,0],[1,2],[3]]","18","0","","","","","","7","","","","","","","","",""
"","","","","","single-stim-button","289","756288","0.0-2.0-65.0-1.0","63d6e456a473cdecf6b9ce84","D2","batch4","","792","tol_toboard","","","","tol_peg_3","792","792","0","[[1,2,0],[0,0],[3]]","1","[[0,0,0],[1,2],[3]]","18","0","","","","","","7","","","","","","","","",""
"","","","","","single-stim-button","290","764304","0.0-2.0-65.1-0.1","63d6e456a473cdecf6b9ce84","D2","batch4","","8015","tol_tohand","","","","tol_peg_1","8015","8015","0","[[1,0,0],[0,0],[3]]","2","[[0,0,0],[1,2],[3]]","18","0","","","","","","7","","","","","","","","",""
"","","","","","single-stim-button","291","768956","0.0-2.0-65.1-1.1","63d6e456a473cdecf6b9ce84","D2","batch4","","4651","tol_toboard","","","","tol_peg_1","4651","4651","0","[[1,2,0],[0,0],[3]]","2","[[0,0,0],[1,2],[3]]","18","0","","","","","","7","","","","","","","","",""
"","","","","","single-stim-button","292","771338","0.0-2.0-65.2-0.2","63d6e456a473cdecf6b9ce84","D2","batch4","","2380","tol_tohand","","","","tol_peg_3","2380","2380","0","[[1,2,0],[0,0],[0]]","3","[[0,0,0],[1,2],[3]]","18","0","","","","","","7","","","","","","","","",""
"","","","","","single-stim-button","293","772320","0.0-2.0-65.2-1.2","63d6e456a473cdecf6b9ce84","D2","batch4","","981","tol_toboard","","","","tol_peg_2","981","981","0","[[1,2,0],[3,0],[0]]","3","[[0,0,0],[1,2],[3]]","18","0","","","","","","7","","","","","","","","",""
"","","","","","single-stim-button","294","773146","0.0-2.0-65.3-0.3","63d6e456a473cdecf6b9ce84","D2","batch4","","826","tol_tohand","","","","tol_peg_1","826","826","0","[[1,0,0],[3,0],[0]]","4","[[0,0,0],[1,2],[3]]","18","0","","","","","","7","","","","","","","","",""
"","","","","","single-stim-button","295","774000","0.0-2.0-65.3-1.3","63d6e456a473cdecf6b9ce84","D2","batch4","","853","tol_toboard","","","","tol_peg_3","853","853","0","[[1,0,0],[3,0],[2]]","4","[[0,0,0],[1,2],[3]]","18","0","","","","","","7","","","","","","","","",""
"","","","","","single-stim-button","296","778499","0.0-2.0-65.4-0.4","63d6e456a473cdecf6b9ce84","D2","batch4","","4497","tol_tohand","","","","tol_peg_1","4497","4497","0","[[0,0,0],[3,0],[2]]","5","[[0,0,0],[1,2],[3]]","18","0","","","","","","7","","","","","","","","",""
"","","","","","single-stim-button","297","779683","0.0-2.0-65.4-1.4","63d6e456a473cdecf6b9ce84","D2","batch4","","1184","tol_toboard","","","","tol_peg_2","1184","1184","0","[[0,0,0],[3,1],[2]]","5","[[0,0,0],[1,2],[3]]","18","0","","","","","","7","","","","","","","","",""
"","","","","","single-stim-button","298","780460","0.0-2.0-65.5-0.5","63d6e456a473cdecf6b9ce84","D2","batch4","","776","tol_tohand","","","","tol_peg_3","776","776","0","[[0,0,0],[3,1],[0]]","6","[[0,0,0],[1,2],[3]]","18","0","","","","","","7","","","","","","","","",""
"","","","","","single-stim-button","299","781592","0.0-2.0-65.5-1.5","63d6e456a473cdecf6b9ce84","D2","batch4","","1130","tol_toboard","","","","tol_peg_1","1130","1130","0","[[2,0,0],[3,1],[0]]","6","[[0,0,0],[1,2],[3]]","18","0","","","","","","7","","","","","","","","",""
"","","","","","single-stim-button","300","782564","0.0-2.0-65.6-0.6","63d6e456a473cdecf6b9ce84","D2","batch4","","972","tol_tohand","","","","tol_peg_2","972","972","0","[[2,0,0],[3,0],[0]]","7","[[0,0,0],[1,2],[3]]","18","0","","","","","","7","","","","","","","","",""
"","","","","","single-stim-button","301","783426","0.0-2.0-65.6-1.6","63d6e456a473cdecf6b9ce84","D2","batch4","","861","tol_toboard","","","","tol_peg_3","861","861","0","[[2,0,0],[3,0],[1]]","7","[[0,0,0],[1,2],[3]]","18","0","","","","","","7","","","","","","","","",""
"","","","","","single-stim-button","302","785170","0.0-2.0-65.7-0.7","63d6e456a473cdecf6b9ce84","D2","batch4","","1742","tol_tohand","","","","tol_peg_2","1742","1742","0","[[2,0,0],[0,0],[1]]","8","[[0,0,0],[1,2],[3]]","18","0","","","","","","7","","","","","","","","",""
"","","","","","single-stim-button","303","786081","0.0-2.0-65.7-1.7","63d6e456a473cdecf6b9ce84","D2","batch4","","911","tol_toboard","","","","tol_peg_1","911","911","0","[[2,3,0],[0,0],[1]]","8","[[0,0,0],[1,2],[3]]","18","0","","","","","","7","","","","","","","","",""
"","","","","","single-stim-button","304","786801","0.0-2.0-65.8-0.8","63d6e456a473cdecf6b9ce84","D2","batch4","","719","tol_tohand","","","","tol_peg_3","719","719","0","[[2,3,0],[0,0],[0]]","9","[[0,0,0],[1,2],[3]]","18","0","","","","","","7","","","","","","","","",""
"","","","","","single-stim-button","305","787868","0.0-2.0-65.8-1.8","63d6e456a473cdecf6b9ce84","D2","batch4","","1066","tol_toboard","","","","tol_peg_2","1066","1066","0","[[2,3,0],[1,0],[0]]","9","[[0,0,0],[1,2],[3]]","18","0","","","","","","7","","","","","","","","",""
"","","","","","single-stim-button","306","788726","0.0-2.0-65.9-0.9","63d6e456a473cdecf6b9ce84","D2","batch4","","856","tol_tohand","","","","tol_peg_1","856","856","0","[[2,0,0],[1,0],[0]]","10","[[0,0,0],[1,2],[3]]","18","0","","","","","","7","","","","","","","","",""
"","","","","","single-stim-button","307","789518","0.0-2.0-65.9-1.9","63d6e456a473cdecf6b9ce84","D2","batch4","","791","tol_toboard","","","","tol_peg_3","791","791","0","[[2,0,0],[1,0],[3]]","10","[[0,0,0],[1,2],[3]]","18","0","","","","","","7","","","","","","","","",""
"","","","","","single-stim-button","308","790212","0.0-2.0-65.10-0.10","63d6e456a473cdecf6b9ce84","D2","batch4","","693","tol_tohand","","","","tol_peg_1","693","693","0","[[0,0,0],[1,0],[3]]","11","[[0,0,0],[1,2],[3]]","18","0","","","","","","7","","","","","","","","",""
"","","","","","single-stim-button","309","790904","0.0-2.0-65.10-1.10","63d6e456a473cdecf6b9ce84","D2","batch4","","691","tol_toboard","","","","tol_peg_2","691","691","0","[[0,0,0],[1,2],[3]]","11","[[0,0,0],[1,2],[3]]","18","0","","","","","","7","","","","","","","","",""
"","","","","","poldrack-single-stim","310","791917","0.0-2.0-66.0","63d6e456a473cdecf6b9ce84","D2","batch4","","-1","tol_feedback","","","true","","1000","1000","500","","","","","","-1","none","true","3962","25438","","","","","","","","","",""
"","","","","","html-button-response","311","793049","0.0-2.0-67.0","63d6e456a473cdecf6b9ce84","D2","batch4","","1129.5999999046326","tol_trial_num","<div class = centerbox><p class = center-block-text>problem <strong>20</strong> out of 25 problems</p></div>","0","","","","","","","","","","","","","","","","","","","","","","","","",""
"","","","","","single-stim-button","312","808510","0.0-2.0-68.0-0.0","63d6e456a473cdecf6b9ce84","D2","batch4","","15460","tol_tohand","","","","tol_peg_1","15460","15460","0","[[1,0,0],[3,0],[0]]","1","[[2,1,0],[0,0],[3]]","19","0","","","","","","5","","","","","","","","",""
"","","","","","single-stim-button","313","809382","0.0-2.0-68.0-1.0","63d6e456a473cdecf6b9ce84","D2","batch4","","870","tol_toboard","","","","tol_peg_2","870","870","0","[[1,0,0],[3,2],[0]]","1","[[2,1,0],[0,0],[3]]","19","0","","","","","","5","","","","","","","","",""
"","","","","","single-stim-button","314","811303","0.0-2.0-68.1-0.1","63d6e456a473cdecf6b9ce84","D2","batch4","","1920","tol_tohand","","","","tol_peg_1","1920","1920","0","[[0,0,0],[3,2],[0]]","2","[[2,1,0],[0,0],[3]]","19","0","","","","","","5","","","","","","","","",""
"","","","","","single-stim-button","315","812269","0.0-2.0-68.1-1.1","63d6e456a473cdecf6b9ce84","D2","batch4","","965","tol_toboard","","","","tol_peg_3","965","965","0","[[0,0,0],[3,2],[1]]","2","[[2,1,0],[0,0],[3]]","19","0","","","","","","5","","","","","","","","",""
"","","","","","single-stim-button","316","813005","0.0-2.0-68.2-0.2","63d6e456a473cdecf6b9ce84","D2","batch4","","735","tol_tohand","","","","tol_peg_2","735","735","0","[[0,0,0],[3,0],[1]]","3","[[2,1,0],[0,0],[3]]","19","0","","","","","","5","","","","","","","","",""
"","","","","","single-stim-button","317","814075","0.0-2.0-68.2-1.2","63d6e456a473cdecf6b9ce84","D2","batch4","","1069","tol_toboard","","","","tol_peg_1","1069","1069","0","[[2,0,0],[3,0],[1]]","3","[[2,1,0],[0,0],[3]]","19","0","","","","","","5","","","","","","","","",""
"","","","","","single-stim-button","318","814746","0.0-2.0-68.3-0.3","63d6e456a473cdecf6b9ce84","D2","batch4","","669","tol_tohand","","","","tol_peg_3","669","669","0","[[2,0,0],[3,0],[0]]","4","[[2,1,0],[0,0],[3]]","19","0","","","","","","5","","","","","","","","",""
"","","","","","single-stim-button","319","815600","0.0-2.0-68.3-1.3","63d6e456a473cdecf6b9ce84","D2","batch4","","853","tol_toboard","","","","tol_peg_1","853","853","0","[[2,1,0],[3,0],[0]]","4","[[2,1,0],[0,0],[3]]","19","0","","","","","","5","","","","","","","","",""
"","","","","","single-stim-button","320","816204","0.0-2.0-68.4-0.4","63d6e456a473cdecf6b9ce84","D2","batch4","","602","tol_tohand","","","","tol_peg_2","602","602","0","[[2,1,0],[0,0],[0]]","5","[[2,1,0],[0,0],[3]]","19","0","","","","","","5","","","","","","","","",""
"","","","","","single-stim-button","321","817144","0.0-2.0-68.4-1.4","63d6e456a473cdecf6b9ce84","D2","batch4","","939","tol_toboard","","","","tol_peg_3","939","939","0","[[2,1,0],[0,0],[3]]","5","[[2,1,0],[0,0],[3]]","19","0","","","","","","5","","","","","","","","",""
"","","","","","poldrack-single-stim","322","818145","0.0-2.0-69.0","63d6e456a473cdecf6b9ce84","D2","batch4","","-1","tol_feedback","","","true","","1000","1000","500","","","","","","-1","none","true","15460","19386","","","","","","","","","",""
"","","","","","html-button-response","323","819726","0.0-2.0-70.0","63d6e456a473cdecf6b9ce84","D2","batch4","","1579.5","tol_trial_num","<div class = centerbox><p class = center-block-text>problem <strong>21</strong> out of 25 problems</p></div>","0","","","","","","","","","","","","","","","","","","","","","","","","",""
"","","","","","single-stim-button","324","828774","0.0-2.0-71.0-0.0","63d6e456a473cdecf6b9ce84","D2","batch4","","9047","tol_tohand","","","","tol_peg_1","9047","9047","0","[[1,0,0],[3,0],[0]]","1","[[3,2,0],[0,0],[1]]","20","0","","","","","","6","","","","","","","","",""
"","","","","","single-stim-button","325","830655","0.0-2.0-71.0-1.0","63d6e456a473cdecf6b9ce84","D2","batch4","","1881","tol_toboard","","","","tol_peg_1","1881","1881","0","[[1,2,0],[3,0],[0]]","1","[[3,2,0],[0,0],[1]]","20","0","","","","","","6","","","","","","","","",""
"","","","","","single-stim-button","326","833630","0.0-2.0-71.1-0.1","63d6e456a473cdecf6b9ce84","D2","batch4","","2973","tol_tohand","","","","tol_peg_1","2973","2973","0","[[1,0,0],[3,0],[0]]","2","[[3,2,0],[0,0],[1]]","20","0","","","","","","6","","","","","","","","",""
"","","","","","single-stim-button","327","836630","0.0-2.0-71.1-1.1","63d6e456a473cdecf6b9ce84","D2","batch4","","2998","tol_toboard","","","","tol_peg_3","2998","2998","0","[[1,0,0],[3,0],[2]]","2","[[3,2,0],[0,0],[1]]","20","0","","","","","","6","","","","","","","","",""
"","","","","","single-stim-button","328","841782","0.0-2.0-71.2-0.2","63d6e456a473cdecf6b9ce84","D2","batch4","","5151","tol_tohand","","","","tol_peg_2","5151","5151","0","[[1,0,0],[0,0],[2]]","3","[[3,2,0],[0,0],[1]]","20","0","","","","","","6","","","","","","","","",""
"","","","","","single-stim-button","329","843880","0.0-2.0-71.2-1.2","63d6e456a473cdecf6b9ce84","D2","batch4","","2096","tol_toboard","","","","tol_peg_1","2096","2096","0","[[1,3,0],[0,0],[2]]","3","[[3,2,0],[0,0],[1]]","20","0","","","","","","6","","","","","","","","",""
"","","","","","single-stim-button","330","847184","0.0-2.0-71.3-0.3","63d6e456a473cdecf6b9ce84","D2","batch4","","3303","tol_tohand","","","","tol_peg_1","3303","3303","0","[[1,0,0],[0,0],[2]]","4","[[3,2,0],[0,0],[1]]","20","0","","","","","","6","","","","","","","","",""
"","","","","","single-stim-button","331","847934","0.0-2.0-71.3-1.3","63d6e456a473cdecf6b9ce84","D2","batch4","","750","tol_toboard","","","","tol_peg_2","750","750","0","[[1,0,0],[3,0],[2]]","4","[[3,2,0],[0,0],[1]]","20","0","","","","","","6","","","","","","","","",""
"","","","","","single-stim-button","332","848714","0.0-2.0-71.4-0.4","63d6e456a473cdecf6b9ce84","D2","batch4","","778","tol_tohand","","","","tol_peg_1","778","778","0","[[0,0,0],[3,0],[2]]","5","[[3,2,0],[0,0],[1]]","20","0","","","","","","6","","","","","","","","",""
"","","","","","single-stim-button","333","849723","0.0-2.0-71.4-1.4","63d6e456a473cdecf6b9ce84","D2","batch4","","1009","tol_toboard","","","","tol_peg_2","1009","1009","0","[[0,0,0],[3,1],[2]]","5","[[3,2,0],[0,0],[1]]","20","0","","","","","","6","","","","","","","","",""
"","","","","","single-stim-button","334","851623","0.0-2.0-71.5-0.5","63d6e456a473cdecf6b9ce84","D2","batch4","","1899","tol_tohand","","","","tol_peg_3","1899","1899","0","[[0,0,0],[3,1],[0]]","6","[[3,2,0],[0,0],[1]]","20","0","","","","","","6","","","","","","","","",""
"","","","","","single-stim-button","335","852519","0.0-2.0-71.5-1.5","63d6e456a473cdecf6b9ce84","D2","batch4","","895","tol_toboard","","","","tol_peg_1","895","895","0","[[2,0,0],[3,1],[0]]","6","[[3,2,0],[0,0],[1]]","20","0","","","","","","6","","","","","","","","",""
"","","","","","single-stim-button","336","853339","0.0-2.0-71.6-0.6","63d6e456a473cdecf6b9ce84","D2","batch4","","818","tol_tohand","","","","tol_peg_2","818","818","0","[[2,0,0],[3,0],[0]]","7","[[3,2,0],[0,0],[1]]","20","0","","","","","","6","","","","","","","","",""
"","","","","","single-stim-button","337","854434","0.0-2.0-71.6-1.6","63d6e456a473cdecf6b9ce84","D2","batch4","","1094","tol_toboard","","","","tol_peg_3","1094","1094","0","[[2,0,0],[3,0],[1]]","7","[[3,2,0],[0,0],[1]]","20","0","","","","","","6","","","","","","","","",""
"","","","","","single-stim-button","338","859264","0.0-2.0-71.7-0.7","63d6e456a473cdecf6b9ce84","D2","batch4","","4829","tol_tohand","","","","tol_peg_1","4829","4829","0","[[0,0,0],[3,0],[1]]","8","[[3,2,0],[0,0],[1]]","20","0","","","","","","6","","","","","","","","",""
"","","","","","single-stim-button","339","860018","0.0-2.0-71.7-1.7","63d6e456a473cdecf6b9ce84","D2","batch4","","752","tol_toboard","","","","tol_peg_2","752","752","0","[[0,0,0],[3,2],[1]]","8","[[3,2,0],[0,0],[1]]","20","0","","","","","","6","","","","","","","","",""
"","","","","","single-stim-button","340","860870","0.0-2.0-71.8-0.8","63d6e456a473cdecf6b9ce84","D2","batch4","","850","tol_tohand","","","","tol_peg_3","850","850","0","[[0,0,0],[3,2],[0]]","9","[[3,2,0],[0,0],[1]]","20","0","","","","","","6","","","","","","","","",""
"","","","","","single-stim-button","341","861766","0.0-2.0-71.8-1.8","63d6e456a473cdecf6b9ce84","D2","batch4","","896","tol_toboard","","","","tol_peg_1","896","896","0","[[1,0,0],[3,2],[0]]","9","[[3,2,0],[0,0],[1]]","20","0","","","","","","6","","","","","","","","",""
"","","","","","single-stim-button","342","862550","0.0-2.0-71.9-0.9","63d6e456a473cdecf6b9ce84","D2","batch4","","783","tol_tohand","","","","tol_peg_2","783","783","0","[[1,0,0],[3,0],[0]]","10","[[3,2,0],[0,0],[1]]","20","0","","","","","","6","","","","","","","","",""
"","","","","","single-stim-button","343","863321","0.0-2.0-71.9-1.9","63d6e456a473cdecf6b9ce84","D2","batch4","","769","tol_toboard","","","","tol_peg_3","769","769","0","[[1,0,0],[3,0],[2]]","10","[[3,2,0],[0,0],[1]]","20","0","","","","","","6","","","","","","","","",""
"","","","","","single-stim-button","344","866209","0.0-2.0-71.10-0.10","63d6e456a473cdecf6b9ce84","D2","batch4","","2888","tol_tohand","","","","tol_peg_1","2888","2888","0","[[0,0,0],[3,0],[2]]","11","[[3,2,0],[0,0],[1]]","20","0","","","","","","6","","","","","","","","",""
"","","","","","single-stim-button","345","871852","0.0-2.0-71.10-1.10","63d6e456a473cdecf6b9ce84","D2","batch4","","5643","tol_toboard","","","","tol_peg_2","5643","5643","0","[[0,0,0],[3,1],[2]]","11","[[3,2,0],[0,0],[1]]","20","0","","","","","","6","","","","","","","","",""
"","","","","","single-stim-button","346","874252","0.0-2.0-71.11-0.11","63d6e456a473cdecf6b9ce84","D2","batch4","","2399","tol_tohand","","","","tol_peg_2","2399","2399","0","[[0,0,0],[3,0],[2]]","12","[[3,2,0],[0,0],[1]]","20","0","","","","","","6","","","","","","","","",""
"","","","","","single-stim-button","347","875234","0.0-2.0-71.11-1.11","63d6e456a473cdecf6b9ce84","D2","batch4","","981","tol_toboard","","","","tol_peg_1","981","981","0","[[1,0,0],[3,0],[2]]","12","[[3,2,0],[0,0],[1]]","20","0","","","","","","6","","","","","","","","",""
"","","","","","single-stim-button","348","875811","0.0-2.0-71.12-0.12","63d6e456a473cdecf6b9ce84","D2","batch4","","576","tol_tohand","","","","tol_peg_2","576","576","0","[[1,0,0],[0,0],[2]]","13","[[3,2,0],[0,0],[1]]","20","0","","","","","","6","","","","","","","","",""
"","","","","","single-stim-button","349","876684","0.0-2.0-71.12-1.12","63d6e456a473cdecf6b9ce84","D2","batch4","","872","tol_toboard","","","","tol_peg_1","872","872","0","[[1,3,0],[0,0],[2]]","13","[[3,2,0],[0,0],[1]]","20","0","","","","","","6","","","","","","","","",""
"","","","","","single-stim-button","350","879468","0.0-2.0-71.13-0.13","63d6e456a473cdecf6b9ce84","D2","batch4","","2783","tol_tohand","","","","tol_peg_1","2783","2783","0","[[1,0,0],[0,0],[2]]","14","[[3,2,0],[0,0],[1]]","20","0","","","","","","6","","","","","","","","",""
"","","","","","single-stim-button","351","882110","0.0-2.0-71.13-1.13","63d6e456a473cdecf6b9ce84","D2","batch4","","2640","tol_toboard","","","","tol_peg_2","2640","2640","0","[[1,0,0],[3,0],[2]]","14","[[3,2,0],[0,0],[1]]","20","0","","","","","","6","","","","","","","","",""
"","","","","","single-stim-button","352","884366","0.0-2.0-71.14-0.14","63d6e456a473cdecf6b9ce84","D2","batch4","","2256","tol_tohand","","","","tol_peg_1","2256","2256","0","[[0,0,0],[3,0],[2]]","15","[[3,2,0],[0,0],[1]]","20","0","","","","","","6","","","","","","","","",""
"","","","","","single-stim-button","353","885872","0.0-2.0-71.14-1.14","63d6e456a473cdecf6b9ce84","D2","batch4","","1505","tol_toboard","","","","tol_peg_2","1505","1505","0","[[0,0,0],[3,1],[2]]","15","[[3,2,0],[0,0],[1]]","20","0","","","","","","6","","","","","","","","",""
