"success","timeout","failed_images","failed_audio","failed_video","trial_type","trial_index","time_elapsed","internal_node_id","subject_id","study_id","session_id","view_history","rt","task","stimulus","response","correct","mouse_click","stim_duration","block_duration","timing_post_trial","current_position","tol_num_moves_made","tol_target","tol_problem_id","tol_rt","key_press","possible_responses","tol_correct","preplanning","tol_rt_per_trial","tol_min_moves","item","answer","spm_correct","spm_rt","fiar_detect_rt","fiar_detect_correct","total_correct_fiar_detect","post_trial_gap","choices"
"true","false","[]","[]","[]","preload","0","14252","0.0-0.0","63d7b8fd20b4612bc2949c29","A3","batch1","","","","","","","","","","","","","","","","","","","","","","","","","","","","","",""
"true","","","","","fullscreen","1","26538","0.0-1.0-0.0","63d7b8fd20b4612bc2949c29","A3","batch1","","","","","","","","","","","","","","","","","","","","","","","","","","","","","",""
"true","","","","","fullscreen","2","32473","0.0-2.0-0.0","63d7b8fd20b4612bc2949c29","A3","batch1","","","","","","","","","","","","","","","","","","","","","","","","","","","","","",""
"","","","","","instructions","3","135779","0.0-2.0-1.0-0.0-0.0","63d7b8fd20b4612bc2949c29","A3","batch1","[{""page_index"":0,""viewing_time"":26409.200000000186},{""page_index"":1,""viewing_time"":7392},{""page_index"":2,""viewing_time"":4487.899999999907},{""page_index"":3,""viewing_time"":16536.399999999907},{""page_index"":4,""viewing_time"":19991.899999999907},{""page_index"":5,""viewing_time"":21888.100000000093},{""page_index"":6,""viewing_time"":6600}]","103305.6000000001","tol-instructions","","","","","","","","","","","","","","","","","","","","","","","","","","",""
"","","","","","html-button-response","4","136907","0.0-2.0-1.0-1.0-0.0","63d7b8fd20b4612bc2949c29","A3","batch1","","1127.5","tol_enter_quiz","<p class=block-text> Let's answer a few questions <br>","0","","","","","","","","","","","","","","","","","","","","","","","","",""
"","","","","","html-button-response","5","140267","0.0-2.0-1.0-1.0-1.0","63d7b8fd20b4612bc2949c29","A3","batch1","","3359.2999999998137","tol_quiz","<p class = block-text>True or False: You can only move the ball on top of a peg. <br></p>","0","true","","","","","","","","","","","","","","","","","","","","","","","",""
"","","","","","html-button-response","6","141443","0.0-2.0-1.0-1.0-2.0","63d7b8fd20b4612bc2949c29","A3","batch1","","1175.3999999999069","tol_quiz_feedback","<p class = block-text>Correct! You can only move the ball on top of a peg.</p>","0","","","","","","","","","","","","","","","","","","","","","","","","",""
"","","","","","html-button-response","7","145539","0.0-2.0-1.0-1.0-3.0","63d7b8fd20b4612bc2949c29","A3","batch1","","4095.899999999907","tol_quiz","<p class = block-text>True or False: You should try to match your board with the target board with fewest moves possible. <br></p>","0","true","","","","","","","","","","","","","","","","","","","","","","","",""
"","","","","","html-button-response","8","146347","0.0-2.0-1.0-1.0-4.0","63d7b8fd20b4612bc2949c29","A3","batch1","","807","tol_quiz_feedback","<p class = block-text>Correct! </p>","0","","","","","","","","","","","","","","","","","","","","","","","","",""
"","","","","","html-button-response","9","148467","0.0-2.0-2.0","63d7b8fd20b4612bc2949c29","A3","batch1","","2119.100000000093","","<p class=block-text> Now that you've understood the game, let's practice a few easier examples before we start!<br> <br>","0","","","","","","","","","","","","","","","","","","","","","","","","",""
"","","","","","single-stim-button","10","151500","0.0-2.0-3.0-0.0","63d7b8fd20b4612bc2949c29","A3","batch1","","3032","tol_practice","","","","tol_peg_2","3032","3032","0","[[1,2,0],[0,0],[0]]","1","[[1,2,0],[0,0],[3]]","practice","3032","","","","","","","","","","","","","","",""
"","","","","","single-stim-button","11","153227","0.0-2.0-3.0-1.0","63d7b8fd20b4612bc2949c29","A3","batch1","","1727","tol_practice","","","","tol_peg_3","1727","1727","0","[[1,2,0],[0,0],[3]]","1","[[1,2,0],[0,0],[3]]","practice","1727","","","","","","","","","","","","","","",""
"","","","","","poldrack-single-stim","12","154236","0.0-2.0-4.0","63d7b8fd20b4612bc2949c29","A3","batch1","","-1","tol_feedback","","","true","","1000","1000","500","","","","","","-1","none","true","","0","","","","","","","","","",""
"","","","","","single-stim-button","13","160571","0.0-2.0-5.0-0.0","63d7b8fd20b4612bc2949c29","A3","batch1","","6335","tol_practice","","","","tol_peg_1","6335","6335","0","[[1,0,0],[3,0],[0]]","2","[[0,0,0],[3,1],[2]]","practice","6335","","","","","","","","","","","","","","",""
"","","","","","single-stim-button","14","161475","0.0-2.0-5.0-1.0","63d7b8fd20b4612bc2949c29","A3","batch1","","904","tol_practice","","","","tol_peg_3","904","904","0","[[1,0,0],[3,0],[2]]","2","[[0,0,0],[3,1],[2]]","practice","904","","","","","","","","","","","","","","",""
"","","","","","single-stim-button","15","171659","0.0-2.0-5.1-0.1","63d7b8fd20b4612bc2949c29","A3","batch1","","10183","tol_practice","","","","tol_peg_1","10183","10183","0","[[0,0,0],[3,0],[2]]","3","[[0,0,0],[3,1],[2]]","practice","10183","","","","","","","","","","","","","","",""
"","","","","","single-stim-button","16","172939","0.0-2.0-5.1-1.1","63d7b8fd20b4612bc2949c29","A3","batch1","","1280","tol_practice","","","","tol_peg_2","1280","1280","0","[[0,0,0],[3,1],[2]]","3","[[0,0,0],[3,1],[2]]","practice","1280","","","","","","","","","","","","","","",""
"","","","","","poldrack-single-stim","17","173948","0.0-2.0-6.0","63d7b8fd20b4612bc2949c29","A3","batch1","","-1","tol_feedback","","","true","","1000","1000","500","","","","","","-1","none","true","","0","","","","","","","","","",""
"","","","","","single-stim-button","18","178659","0.0-2.0-7.0-0.0","63d7b8fd20b4612bc2949c29","A3","batch1","","4710","tol_practice","","","","tol_peg_2","4710","4710","0","[[1,2,0],[0,0],[0]]","4","[[1,0,0],[2,0],[3]]","practice","4710","","","","","","","","","","","","","","",""
"","","","","","single-stim-button","19","179843","0.0-2.0-7.0-1.0","63d7b8fd20b4612bc2949c29","A3","batch1","","1184","tol_practice","","","","tol_peg_3","1184","1184","0","[[1,2,0],[0,0],[3]]","4","[[1,0,0],[2,0],[3]]","practice","1184","","","","","","","","","","","","","","",""
"","","","","","single-stim-button","20","180547","0.0-2.0-7.1-0.1","63d7b8fd20b4612bc2949c29","A3","batch1","","704","tol_practice","","","","tol_peg_1","704","704","0","[[1,0,0],[0,0],[3]]","5","[[1,0,0],[2,0],[3]]","practice","704","","","","","","","","","","","","","","",""
"","","","","","single-stim-button","21","181339","0.0-2.0-7.1-1.1","63d7b8fd20b4612bc2949c29","A3","batch1","","792","tol_practice","","","","tol_peg_2","792","792","0","[[1,0,0],[2,0],[3]]","5","[[1,0,0],[2,0],[3]]","practice","792","","","","","","","","","","","","","","",""
"","","","","","poldrack-single-stim","22","182340","0.0-2.0-8.0","63d7b8fd20b4612bc2949c29","A3","batch1","","-1","tol_feedback","","","true","","1000","1000","500","","","","","","-1","none","true","","0","","","","","","","","","",""
"","","","","","html-button-response","23","185195","0.0-2.0-9.0","63d7b8fd20b4612bc2949c29","A3","batch1","","2854.600000000093","tol_instruction","<div class = centerbox><p class = center-block-text>Great job! You are done with practice trials<br>You are about to start official trials.<br> <br> Problem <strong>1</strong> out of 25 problems</p></div>","0","","","","","","","","","","","","","","","","","","","","","","","","",""
"","","","","","single-stim-button","24","194907","0.0-2.0-10.0-0.0","63d7b8fd20b4612bc2949c29","A3","batch1","","8704","tol_tohand","","","","tol_peg_2","8704","8704","0","[[1,2,0],[0,0],[0]]","1","[[1,3,0],[2,0],[0]]","0","0","","","","","","3","","","","","","","","",""
"","","","","","single-stim-button","25","196707","0.0-2.0-10.0-1.0","63d7b8fd20b4612bc2949c29","A3","batch1","","1800","tol_toboard","","","","tol_peg_3","1800","1800","0","[[1,2,0],[0,0],[3]]","1","[[1,3,0],[2,0],[0]]","0","0","","","","","","3","","","","","","","","",""
"","","","","","single-stim-button","26","197275","0.0-2.0-10.1-0.1","63d7b8fd20b4612bc2949c29","A3","batch1","","568","tol_tohand","","","","tol_peg_1","568","568","0","[[1,0,0],[0,0],[3]]","2","[[1,3,0],[2,0],[0]]","0","0","","","","","","3","","","","","","","","",""
"","","","","","single-stim-button","27","197907","0.0-2.0-10.1-1.1","63d7b8fd20b4612bc2949c29","A3","batch1","","632","tol_toboard","","","","tol_peg_2","632","632","0","[[1,0,0],[2,0],[3]]","2","[[1,3,0],[2,0],[0]]","0","0","","","","","","3","","","","","","","","",""
"","","","","","single-stim-button","28","198827","0.0-2.0-10.2-0.2","63d7b8fd20b4612bc2949c29","A3","batch1","","920","tol_tohand","","","","tol_peg_3","920","920","0","[[1,0,0],[2,0],[0]]","3","[[1,3,0],[2,0],[0]]","0","0","","","","","","3","","","","","","","","",""
"","","","","","single-stim-button","29","199883","0.0-2.0-10.2-1.2","63d7b8fd20b4612bc2949c29","A3","batch1","","1056","tol_toboard","","","","tol_peg_1","1056","1056","0","[[1,3,0],[2,0],[0]]","3","[[1,3,0],[2,0],[0]]","0","0","","","","","","3","","","","","","","","",""
"","","","","","poldrack-single-stim","30","200890","0.0-2.0-11.0","63d7b8fd20b4612bc2949c29","A3","batch1","","-1","tol_feedback","","","true","","1000","1000","500","","","","","","-1","none","true","8704","10192","","","","","","","","","",""
"","","","","","html-button-response","31","201947","0.0-2.0-12.0","63d7b8fd20b4612bc2949c29","A3","batch1","","1057.1000000000931","tol_trial_num","<div class = centerbox><p class = center-block-text>problem <strong>2</strong> out of 25 problems</p></div>","0","","","","","","","","","","","","","","","","","","","","","","","","",""
"","","","","","single-stim-button","32","224267","0.0-2.0-13.0-0.0","63d7b8fd20b4612bc2949c29","A3","batch1","","22319","tol_tohand","","","","tol_peg_1","22319","22319","0","[[1,0,0],[3,0],[0]]","1","[[2,1,3],[0,0],[0]]","1","0","","","","","","5","","","","","","","","",""
"","","","","","single-stim-button","33","225155","0.0-2.0-13.0-1.0","63d7b8fd20b4612bc2949c29","A3","batch1","","887","tol_toboard","","","","tol_peg_3","887","887","0","[[1,0,0],[3,0],[2]]","1","[[2,1,3],[0,0],[0]]","1","0","","","","","","5","","","","","","","","",""
"","","","","","single-stim-button","34","227979","0.0-2.0-13.1-0.1","63d7b8fd20b4612bc2949c29","A3","batch1","","2823","tol_tohand","","","","tol_peg_1","2823","2823","0","[[0,0,0],[3,0],[2]]","2","[[2,1,3],[0,0],[0]]","1","0","","","","","","5","","","","","","","","",""
"","","","","","single-stim-button","35","228739","0.0-2.0-13.1-1.1","63d7b8fd20b4612bc2949c29","A3","batch1","","759","tol_toboard","","","","tol_peg_2","759","759","0","[[0,0,0],[3,1],[2]]","2","[[2,1,3],[0,0],[0]]","1","0","","","","","","5","","","","","","","","",""
"","","","","","single-stim-button","36","229467","0.0-2.0-13.2-0.2","63d7b8fd20b4612bc2949c29","A3","batch1","","728","tol_tohand","","","","tol_peg_3","728","728","0","[[0,0,0],[3,1],[0]]","3","[[2,1,3],[0,0],[0]]","1","0","","","","","","5","","","","","","","","",""
"","","","","","single-stim-button","37","230347","0.0-2.0-13.2-1.2","63d7b8fd20b4612bc2949c29","A3","batch1","","880","tol_toboard","","","","tol_peg_1","880","880","0","[[2,0,0],[3,1],[0]]","3","[[2,1,3],[0,0],[0]]","1","0","","","","","","5","","","","","","","","",""
"","","","","","single-stim-button","38","230948","0.0-2.0-13.3-0.3","63d7b8fd20b4612bc2949c29","A3","batch1","","600","tol_tohand","","","","tol_peg_2","600","600","0","[[2,0,0],[3,0],[0]]","4","[[2,1,3],[0,0],[0]]","1","0","","","","","","5","","","","","","","","",""
"","","","","","single-stim-button","39","231691","0.0-2.0-13.3-1.3","63d7b8fd20b4612bc2949c29","A3","batch1","","743","tol_toboard","","","","tol_peg_1","743","743","0","[[2,1,0],[3,0],[0]]","4","[[2,1,3],[0,0],[0]]","1","0","","","","","","5","","","","","","","","",""
"","","","","","single-stim-button","40","232283","0.0-2.0-13.4-0.4","63d7b8fd20b4612bc2949c29","A3","batch1","","592","tol_tohand","","","","tol_peg_2","592","592","0","[[2,1,0],[0,0],[0]]","5","[[2,1,3],[0,0],[0]]","1","0","","","","","","5","","","","","","","","",""
"","","","","","single-stim-button","41","233307","0.0-2.0-13.4-1.4","63d7b8fd20b4612bc2949c29","A3","batch1","","1023","tol_toboard","","","","tol_peg_1","1023","1023","0","[[2,1,3],[0,0],[0]]","5","[[2,1,3],[0,0],[0]]","1","0","","","","","","5","","","","","","","","",""
"","","","","","poldrack-single-stim","42","234308","0.0-2.0-14.0","63d7b8fd20b4612bc2949c29","A3","batch1","","-1","tol_feedback","","","true","","1000","1000","500","","","","","","-1","none","true","22319","27062","","","","","","","","","",""
"","","","","","html-button-response","43","235043","0.0-2.0-15.0","63d7b8fd20b4612bc2949c29","A3","batch1","","734.6000000000931","tol_trial_num","<div class = centerbox><p class = center-block-text>problem <strong>3</strong> out of 25 problems</p></div>","0","","","","","","","","","","","","","","","","","","","","","","","","",""
"","","","","","single-stim-button","44","244603","0.0-2.0-16.0-0.0","63d7b8fd20b4612bc2949c29","A3","batch1","","9560","tol_tohand","","","","tol_peg_1","9560","9560","0","[[2,0,0],[0,0],[1]]","1","[[1,2,0],[3,0],[0]]","2","0","","","","","","4","","","","","","","","",""
"","","","","","single-stim-button","45","245451","0.0-2.0-16.0-1.0","63d7b8fd20b4612bc2949c29","A3","batch1","","847","tol_toboard","","","","tol_peg_2","847","847","0","[[2,0,0],[3,0],[1]]","1","[[1,2,0],[3,0],[0]]","2","0","","","","","","4","","","","","","","","",""
"","","","","","single-stim-button","46","249843","0.0-2.0-16.1-0.1","63d7b8fd20b4612bc2949c29","A3","batch1","","4391","tol_tohand","","","","tol_peg_1","4391","4391","0","[[0,0,0],[3,0],[1]]","2","[[1,2,0],[3,0],[0]]","2","0","","","","","","4","","","","","","","","",""
"","","","","","single-stim-button","47","250611","0.0-2.0-16.1-1.1","63d7b8fd20b4612bc2949c29","A3","batch1","","767","tol_toboard","","","","tol_peg_2","767","767","0","[[0,0,0],[3,2],[1]]","2","[[1,2,0],[3,0],[0]]","2","0","","","","","","4","","","","","","","","",""
"","","","","","single-stim-button","48","251108","0.0-2.0-16.2-0.2","63d7b8fd20b4612bc2949c29","A3","batch1","","496","tol_tohand","","","","tol_peg_3","496","496","0","[[0,0,0],[3,2],[0]]","3","[[1,2,0],[3,0],[0]]","2","0","","","","","","4","","","","","","","","",""
"","","","","","single-stim-button","49","251723","0.0-2.0-16.2-1.2","63d7b8fd20b4612bc2949c29","A3","batch1","","615","tol_toboard","","","","tol_peg_1","615","615","0","[[1,0,0],[3,2],[0]]","3","[[1,2,0],[3,0],[0]]","2","0","","","","","","4","","","","","","","","",""
"","","","","","single-stim-button","50","252155","0.0-2.0-16.3-0.3","63d7b8fd20b4612bc2949c29","A3","batch1","","431","tol_tohand","","","","tol_peg_2","431","431","0","[[1,0,0],[3,0],[0]]","4","[[1,2,0],[3,0],[0]]","2","0","","","","","","4","","","","","","","","",""
"","","","","","single-stim-button","51","252939","0.0-2.0-16.3-1.3","63d7b8fd20b4612bc2949c29","A3","batch1","","784","tol_toboard","","","","tol_peg_1","784","784","0","[[1,2,0],[3,0],[0]]","4","[[1,2,0],[3,0],[0]]","2","0","","","","","","4","","","","","","","","",""
"","","","","","poldrack-single-stim","52","253948","0.0-2.0-17.0","63d7b8fd20b4612bc2949c29","A3","batch1","","-1","tol_feedback","","","true","","1000","1000","500","","","","","","-1","none","true","9560","14878","","","","","","","","","",""
"","","","","","html-button-response","53","255075","0.0-2.0-18.0","63d7b8fd20b4612bc2949c29","A3","batch1","","1127","tol_trial_num","<div class = centerbox><p class = center-block-text>problem <strong>4</strong> out of 25 problems</p></div>","0","","","","","","","","","","","","","","","","","","","","","","","","",""
"","","","","","single-stim-button","54","265235","0.0-2.0-19.0-0.0","63d7b8fd20b4612bc2949c29","A3","batch1","","10160","tol_tohand","","","","tol_peg_2","10160","10160","0","[[3,0,0],[2,0],[0]]","1","[[3,0,0],[1,0],[2]]","3","0","","","","","","3","","","","","","","","",""
"","","","","","single-stim-button","55","266860","0.0-2.0-19.0-1.0","63d7b8fd20b4612bc2949c29","A3","batch1","","1623","tol_toboard","","","","tol_peg_3","1623","1623","0","[[3,0,0],[2,0],[1]]","1","[[3,0,0],[1,0],[2]]","3","0","","","","","","3","","","","","","","","",""
"","","","","","single-stim-button","56","267275","0.0-2.0-19.1-0.1","63d7b8fd20b4612bc2949c29","A3","batch1","","415","tol_tohand","","","","tol_peg_2","415","415","0","[[3,0,0],[0,0],[1]]","2","[[3,0,0],[1,0],[2]]","3","0","","","","","","3","","","","","","","","",""
"","","","","","single-stim-button","57","268123","0.0-2.0-19.1-1.1","63d7b8fd20b4612bc2949c29","A3","batch1","","847","tol_toboard","","","","tol_peg_1","847","847","0","[[3,2,0],[0,0],[1]]","2","[[3,0,0],[1,0],[2]]","3","0","","","","","","3","","","","","","","","",""
"","","","","","single-stim-button","58","268707","0.0-2.0-19.2-0.2","63d7b8fd20b4612bc2949c29","A3","batch1","","583","tol_tohand","","","","tol_peg_3","583","583","0","[[3,2,0],[0,0],[0]]","3","[[3,0,0],[1,0],[2]]","3","0","","","","","","3","","","","","","","","",""
"","","","","","single-stim-button","59","269699","0.0-2.0-19.2-1.2","63d7b8fd20b4612bc2949c29","A3","batch1","","991","tol_toboard","","","","tol_peg_2","991","991","0","[[3,2,0],[1,0],[0]]","3","[[3,0,0],[1,0],[2]]","3","0","","","","","","3","","","","","","","","",""
"","","","","","single-stim-button","60","270395","0.0-2.0-19.3-0.3","63d7b8fd20b4612bc2949c29","A3","batch1","","695","tol_tohand","","","","tol_peg_1","695","695","0","[[3,0,0],[1,0],[0]]","4","[[3,0,0],[1,0],[2]]","3","0","","","","","","3","","","","","","","","",""
"","","","","","single-stim-button","61","271251","0.0-2.0-19.3-1.3","63d7b8fd20b4612bc2949c29","A3","batch1","","855","tol_toboard","","","","tol_peg_3","855","855","0","[[3,0,0],[1,0],[2]]","4","[[3,0,0],[1,0],[2]]","3","0","","","","","","3","","","","","","","","",""
"","","","","","poldrack-single-stim","62","272252","0.0-2.0-20.0","63d7b8fd20b4612bc2949c29","A3","batch1","","-1","tol_feedback","","","true","","1000","1000","500","","","","","","-1","none","true","10160","11853","","","","","","","","","",""
"","","","","","html-button-response","63","272843","0.0-2.0-21.0","63d7b8fd20b4612bc2949c29","A3","batch1","","590.4000000003725","tol_trial_num","<div class = centerbox><p class = center-block-text>problem <strong>5</strong> out of 25 problems</p></div>","0","","","","","","","","","","","","","","","","","","","","","","","","",""
"","","","","","single-stim-button","64","285299","0.0-2.0-22.0-0.0","63d7b8fd20b4612bc2949c29","A3","batch1","","12456","tol_tohand","","","","tol_peg_3","12456","12456","0","[[1,0,0],[2,0],[0]]","1","[[0,0,0],[1,2],[3]]","4","0","","","","","","7","","","","","","","","",""
"","","","","","single-stim-button","65","286051","0.0-2.0-22.0-1.0","63d7b8fd20b4612bc2949c29","A3","batch1","","751","tol_toboard","","","","tol_peg_2","751","751","0","[[1,0,0],[2,3],[0]]","1","[[0,0,0],[1,2],[3]]","4","0","","","","","","7","","","","","","","","",""
"","","","","","single-stim-button","66","287259","0.0-2.0-22.1-0.1","63d7b8fd20b4612bc2949c29","A3","batch1","","1207","tol_tohand","","","","tol_peg_1","1207","1207","0","[[0,0,0],[2,3],[0]]","2","[[0,0,0],[1,2],[3]]","4","0","","","","","","7","","","","","","","","",""
"","","","","","single-stim-button","67","290579","0.0-2.0-22.1-1.1","63d7b8fd20b4612bc2949c29","A3","batch1","","3319","tol_toboard","","","","tol_peg_3","3319","3319","0","[[0,0,0],[2,3],[1]]","2","[[0,0,0],[1,2],[3]]","4","0","","","","","","7","","","","","","","","",""
"","","","","","single-stim-button","68","291027","0.0-2.0-22.2-0.2","63d7b8fd20b4612bc2949c29","A3","batch1","","447","tol_tohand","","","","tol_peg_2","447","447","0","[[0,0,0],[2,0],[1]]","3","[[0,0,0],[1,2],[3]]","4","0","","","","","","7","","","","","","","","",""
"","","","","","single-stim-button","69","299340","0.0-2.0-22.2-1.2","63d7b8fd20b4612bc2949c29","A3","batch1","","8311","tol_toboard","","","","tol_peg_1","8311","8311","0","[[3,0,0],[2,0],[1]]","3","[[0,0,0],[1,2],[3]]","4","0","","","","","","7","","","","","","","","",""
"","","","","","single-stim-button","70","310692","0.0-2.0-22.3-0.3","63d7b8fd20b4612bc2949c29","A3","batch1","","11352","tol_tohand","","","","tol_peg_1","11352","11352","0","[[0,0,0],[2,0],[1]]","4","[[0,0,0],[1,2],[3]]","4","0","","","","","","7","","","","","","","","",""
"","","","","","single-stim-button","71","311252","0.0-2.0-22.3-1.3","63d7b8fd20b4612bc2949c29","A3","batch1","","560","tol_toboard","","","","tol_peg_2","560","560","0","[[0,0,0],[2,3],[1]]","4","[[0,0,0],[1,2],[3]]","4","0","","","","","","7","","","","","","","","",""
"","","","","","single-stim-button","72","312092","0.0-2.0-22.4-0.4","63d7b8fd20b4612bc2949c29","A3","batch1","","840","tol_tohand","","","","tol_peg_3","840","840","0","[[0,0,0],[2,3],[0]]","5","[[0,0,0],[1,2],[3]]","4","0","","","","","","7","","","","","","","","",""
"","","","","","single-stim-button","73","312756","0.0-2.0-22.4-1.4","63d7b8fd20b4612bc2949c29","A3","batch1","","664","tol_toboard","","","","tol_peg_1","664","664","0","[[1,0,0],[2,3],[0]]","5","[[0,0,0],[1,2],[3]]","4","0","","","","","","7","","","","","","","","",""
"","","","","","single-stim-button","74","313276","0.0-2.0-22.5-0.5","63d7b8fd20b4612bc2949c29","A3","batch1","","520","tol_tohand","","","","tol_peg_2","520","520","0","[[1,0,0],[2,0],[0]]","6","[[0,0,0],[1,2],[3]]","4","0","","","","","","7","","","","","","","","",""
"","","","","","single-stim-button","75","313756","0.0-2.0-22.5-1.5","63d7b8fd20b4612bc2949c29","A3","batch1","","480","tol_toboard","","","","tol_peg_3","480","480","0","[[1,0,0],[2,0],[3]]","6","[[0,0,0],[1,2],[3]]","4","0","","","","","","7","","","","","","","","",""
"","","","","","single-stim-button","76","327692","0.0-2.0-22.6-0.6","63d7b8fd20b4612bc2949c29","A3","batch1","","13936","tol_tohand","","","","tol_peg_2","13936","13936","0","[[1,0,0],[0,0],[3]]","7","[[0,0,0],[1,2],[3]]","4","0","","","","","","7","","","","","","","","",""
"","","","","","single-stim-button","77","328476","0.0-2.0-22.6-1.6","63d7b8fd20b4612bc2949c29","A3","batch1","","784","tol_toboard","","","","tol_peg_1","784","784","0","[[1,2,0],[0,0],[3]]","7","[[0,0,0],[1,2],[3]]","4","0","","","","","","7","","","","","","","","",""
"","","","","","single-stim-button","78","329092","0.0-2.0-22.7-0.7","63d7b8fd20b4612bc2949c29","A3","batch1","","616","tol_tohand","","","","tol_peg_3","616","616","0","[[1,2,0],[0,0],[0]]","8","[[0,0,0],[1,2],[3]]","4","0","","","","","","7","","","","","","","","",""
"","","","","","single-stim-button","79","329812","0.0-2.0-22.7-1.7","63d7b8fd20b4612bc2949c29","A3","batch1","","720","tol_toboard","","","","tol_peg_2","720","720","0","[[1,2,0],[3,0],[0]]","8","[[0,0,0],[1,2],[3]]","4","0","","","","","","7","","","","","","","","",""
"","","","","","single-stim-button","80","331436","0.0-2.0-22.8-0.8","63d7b8fd20b4612bc2949c29","A3","batch1","","1624","tol_tohand","","","","tol_peg_1","1624","1624","0","[[1,0,0],[3,0],[0]]","9","[[0,0,0],[1,2],[3]]","4","0","","","","","","7","","","","","","","","",""
"","","","","","single-stim-button","81","332468","0.0-2.0-22.8-1.8","63d7b8fd20b4612bc2949c29","A3","batch1","","1032","tol_toboard","","","","tol_peg_2","1032","1032","0","[[1,0,0],[3,2],[0]]","9","[[0,0,0],[1,2],[3]]","4","0","","","","","","7","","","","","","","","",""
"","","","","","single-stim-button","82","332876","0.0-2.0-22.9-0.9","63d7b8fd20b4612bc2949c29","A3","batch1","","408","tol_tohand","","","","tol_peg_1","408","408","0","[[0,0,0],[3,2],[0]]","10","[[0,0,0],[1,2],[3]]","4","0","","","","","","7","","","","","","","","",""
"","","","","","single-stim-button","83","333436","0.0-2.0-22.9-1.9","63d7b8fd20b4612bc2949c29","A3","batch1","","560","tol_toboard","","","","tol_peg_3","560","560","0","[[0,0,0],[3,2],[1]]","10","[[0,0,0],[1,2],[3]]","4","0","","","","","","7","","","","","","","","",""
"","","","","","single-stim-button","84","333988","0.0-2.0-22.10-0.10","63d7b8fd20b4612bc2949c29","A3","batch1","","552","tol_tohand","","","","tol_peg_2","552","552","0","[[0,0,0],[3,0],[1]]","11","[[0,0,0],[1,2],[3]]","4","0","","","","","","7","","","","","","","","",""
"","","","","","single-stim-button","85","337812","0.0-2.0-22.10-1.10","63d7b8fd20b4612bc2949c29","A3","batch1","","3824","tol_toboard","","","","tol_peg_1","3824","3824","0","[[2,0,0],[3,0],[1]]","11","[[0,0,0],[1,2],[3]]","4","0","","","","","","7","","","","","","","","",""
"","","","","","single-stim-button","86","338260","0.0-2.0-22.11-0.11","63d7b8fd20b4612bc2949c29","A3","batch1","","448","tol_tohand","","","","tol_peg_2","448","448","0","[[2,0,0],[0,0],[1]]","12","[[0,0,0],[1,2],[3]]","4","0","","","","","","7","","","","","","","","",""
"","","","","","single-stim-button","87","338740","0.0-2.0-22.11-1.11","63d7b8fd20b4612bc2949c29","A3","batch1","","480","tol_toboard","","","","tol_peg_1","480","480","0","[[2,3,0],[0,0],[1]]","12","[[0,0,0],[1,2],[3]]","4","0","","","","","","7","","","","","","","","",""
"","","","","","single-stim-button","88","339364","0.0-2.0-22.12-0.12","63d7b8fd20b4612bc2949c29","A3","batch1","","624","tol_tohand","","","","tol_peg_3","624","624","0","[[2,3,0],[0,0],[0]]","13","[[0,0,0],[1,2],[3]]","4","0","","","","","","7","","","","","","","","",""
"","","","","","single-stim-button","89","339796","0.0-2.0-22.12-1.12","63d7b8fd20b4612bc2949c29","A3","batch1","","432","tol_toboard","","","","tol_peg_2","432","432","0","[[2,3,0],[1,0],[0]]","13","[[0,0,0],[1,2],[3]]","4","0","","","","","","7","","","","","","","","",""
"","","","","","single-stim-button","90","341284","0.0-2.0-22.13-0.13","63d7b8fd20b4612bc2949c29","A3","batch1","","1488","tol_tohand","","","","tol_peg_1","1488","1488","0","[[2,0,0],[1,0],[0]]","14","[[0,0,0],[1,2],[3]]","4","0","","","","","","7","","","","","","","","",""
"","","","","","single-stim-button","91","342004","0.0-2.0-22.13-1.13","63d7b8fd20b4612bc2949c29","A3","batch1","","720","tol_toboard","","","","tol_peg_3","720","720","0","[[2,0,0],[1,0],[3]]","14","[[0,0,0],[1,2],[3]]","4","0","","","","","","7","","","","","","","","",""
"","","","","","single-stim-button","92","342500","0.0-2.0-22.14-0.14","63d7b8fd20b4612bc2949c29","A3","batch1","","496","tol_tohand","","","","tol_peg_1","496","496","0","[[0,0,0],[1,0],[3]]","15","[[0,0,0],[1,2],[3]]","4","0","","","","","","7","","","","","","","","",""
"","","","","","single-stim-button","93","342836","0.0-2.0-22.14-1.14","63d7b8fd20b4612bc2949c29","A3","batch1","","336","tol_toboard","","","","tol_peg_2","336","336","0","[[0,0,0],[1,2],[3]]","15","[[0,0,0],[1,2],[3]]","4","0","","","","","","7","","","","","","","","",""
"","","","","","poldrack-single-stim","94","343837","0.0-2.0-23.0","63d7b8fd20b4612bc2949c29","A3","batch1","","-1","tol_feedback","","","true","","1000","1000","500","","","","","","-1","none","true","12456","47014","","","","","","","","","",""
"","","","","","html-button-response","95","344572","0.0-2.0-24.0","63d7b8fd20b4612bc2949c29","A3","batch1","","734.2999999998137","tol_trial_num","<div class = centerbox><p class = center-block-text>problem <strong>6</strong> out of 25 problems</p></div>","0","","","","","","","","","","","","","","","","","","","","","","","","",""
"","","","","","single-stim-button","96","350132","0.0-2.0-25.0-0.0","63d7b8fd20b4612bc2949c29","A3","batch1","","5560","tol_tohand","","","","tol_peg_3","5560","5560","0","[[0,0,0],[1,2],[0]]","1","[[1,0,0],[2,3],[0]]","5","0","","","","","","6","","","","","","","","",""
"","","","","","single-stim-button","97","350780","0.0-2.0-25.0-1.0","63d7b8fd20b4612bc2949c29","A3","batch1","","648","tol_toboard","","","","tol_peg_1","648","648","0","[[3,0,0],[1,2],[0]]","1","[[1,0,0],[2,3],[0]]","5","0","","","","","","6","","","","","","","","",""
"","","","","","single-stim-button","98","351268","0.0-2.0-25.1-0.1","63d7b8fd20b4612bc2949c29","A3","batch1","","488","tol_tohand","","","","tol_peg_2","488","488","0","[[3,0,0],[1,0],[0]]","2","[[1,0,0],[2,3],[0]]","5","0","","","","","","6","","","","","","","","",""
"","","","","","single-stim-button","99","353524","0.0-2.0-25.1-1.1","63d7b8fd20b4612bc2949c29","A3","batch1","","2256","tol_toboard","","","","tol_peg_3","2256","2256","0","[[3,0,0],[1,0],[2]]","2","[[1,0,0],[2,3],[0]]","5","0","","","","","","6","","","","","","","","",""
"","","","","","single-stim-button","100","353884","0.0-2.0-25.2-0.2","63d7b8fd20b4612bc2949c29","A3","batch1","","360","tol_tohand","","","","tol_peg_2","360","360","0","[[3,0,0],[0,0],[2]]","3","[[1,0,0],[2,3],[0]]","5","0","","","","","","6","","","","","","","","",""
"","","","","","single-stim-button","101","354468","0.0-2.0-25.2-1.2","63d7b8fd20b4612bc2949c29","A3","batch1","","584","tol_toboard","","","","tol_peg_1","584","584","0","[[3,1,0],[0,0],[2]]","3","[[1,0,0],[2,3],[0]]","5","0","","","","","","6","","","","","","","","",""
"","","","","","single-stim-button","102","354996","0.0-2.0-25.3-0.3","63d7b8fd20b4612bc2949c29","A3","batch1","","528","tol_tohand","","","","tol_peg_3","528","528","0","[[3,1,0],[0,0],[0]]","4","[[1,0,0],[2,3],[0]]","5","0","","","","","","6","","","","","","","","",""
"","","","","","single-stim-button","103","355628","0.0-2.0-25.3-1.3","63d7b8fd20b4612bc2949c29","A3","batch1","","632","tol_toboard","","","","tol_peg_2","632","632","0","[[3,1,0],[2,0],[0]]","4","[[1,0,0],[2,3],[0]]","5","0","","","","","","6","","","","","","","","",""
"","","","","","single-stim-button","104","356580","0.0-2.0-25.4-0.4","63d7b8fd20b4612bc2949c29","A3","batch1","","952","tol_tohand","","","","tol_peg_1","952","952","0","[[3,0,0],[2,0],[0]]","5","[[1,0,0],[2,3],[0]]","5","0","","","","","","6","","","","","","","","",""
"","","","","","single-stim-button","105","360436","0.0-2.0-25.4-1.4","63d7b8fd20b4612bc2949c29","A3","batch1","","3856","tol_toboard","","","","tol_peg_3","3856","3856","0","[[3,0,0],[2,0],[1]]","5","[[1,0,0],[2,3],[0]]","5","0","","","","","","6","","","","","","","","",""
"","","","","","single-stim-button","106","361108","0.0-2.0-25.5-0.5","63d7b8fd20b4612bc2949c29","A3","batch1","","672","tol_tohand","","","","tol_peg_1","672","672","0","[[0,0,0],[2,0],[1]]","6","[[1,0,0],[2,3],[0]]","5","0","","","","","","6","","","","","","","","",""
"","","","","","single-stim-button","107","361524","0.0-2.0-25.5-1.5","63d7b8fd20b4612bc2949c29","A3","batch1","","416","tol_toboard","","","","tol_peg_2","416","416","0","[[0,0,0],[2,3],[1]]","6","[[1,0,0],[2,3],[0]]","5","0","","","","","","6","","","","","","","","",""
"","","","","","single-stim-button","108","362220","0.0-2.0-25.6-0.6","63d7b8fd20b4612bc2949c29","A3","batch1","","696","tol_tohand","","","","tol_peg_3","696","696","0","[[0,0,0],[2,3],[0]]","7","[[1,0,0],[2,3],[0]]","5","0","","","","","","6","","","","","","","","",""
"","","","","","single-stim-button","109","362892","0.0-2.0-25.6-1.6","63d7b8fd20b4612bc2949c29","A3","batch1","","672","tol_toboard","","","","tol_peg_1","672","672","0","[[1,0,0],[2,3],[0]]","7","[[1,0,0],[2,3],[0]]","5","0","","","","","","6","","","","","","","","",""
"","","","","","poldrack-single-stim","110","363894","0.0-2.0-26.0","63d7b8fd20b4612bc2949c29","A3","batch1","","-1","tol_feedback","","","true","","1000","1000","500","","","","","","-1","none","true","5560","9256","","","","","","","","","",""
"","","","","","html-button-response","111","364636","0.0-2.0-27.0","63d7b8fd20b4612bc2949c29","A3","batch1","","741.1000000000931","tol_trial_num","<div class = centerbox><p class = center-block-text>problem <strong>7</strong> out of 25 problems</p></div>","0","","","","","","","","","","","","","","","","","","","","","","","","",""
"","","","","","single-stim-button","112","375140","0.0-2.0-28.0-0.0","63d7b8fd20b4612bc2949c29","A3","batch1","","10504","tol_tohand","","","","tol_peg_1","10504","10504","0","[[2,0,0],[0,0],[3]]","1","[[1,2,0],[3,0],[0]]","6","0","","","","","","5","","","","","","","","",""
"","","","","","single-stim-button","113","375636","0.0-2.0-28.0-1.0","63d7b8fd20b4612bc2949c29","A3","batch1","","496","tol_toboard","","","","tol_peg_2","496","496","0","[[2,0,0],[1,0],[3]]","1","[[1,2,0],[3,0],[0]]","6","0","","","","","","5","","","","","","","","",""
"","","","","","single-stim-button","114","379724","0.0-2.0-28.1-0.1","63d7b8fd20b4612bc2949c29","A3","batch1","","4088","tol_tohand","","","","tol_peg_2","4088","4088","0","[[2,0,0],[0,0],[3]]","2","[[1,2,0],[3,0],[0]]","6","0","","","","","","5","","","","","","","","",""
"","","","","","single-stim-button","115","381324","0.0-2.0-28.1-1.1","63d7b8fd20b4612bc2949c29","A3","batch1","","1600","tol_toboard","","","","tol_peg_1","1600","1600","0","[[2,1,0],[0,0],[3]]","2","[[1,2,0],[3,0],[0]]","6","0","","","","","","5","","","","","","","","",""
"","","","","","single-stim-button","116","381892","0.0-2.0-28.2-0.2","63d7b8fd20b4612bc2949c29","A3","batch1","","568","tol_tohand","","","","tol_peg_3","568","568","0","[[2,1,0],[0,0],[0]]","3","[[1,2,0],[3,0],[0]]","6","0","","","","","","5","","","","","","","","",""
"","","","","","single-stim-button","117","382388","0.0-2.0-28.2-1.2","63d7b8fd20b4612bc2949c29","A3","batch1","","496","tol_toboard","","","","tol_peg_2","496","496","0","[[2,1,0],[3,0],[0]]","3","[[1,2,0],[3,0],[0]]","6","0","","","","","","5","","","","","","","","",""
"","","","","","single-stim-button","118","383460","0.0-2.0-28.3-0.3","63d7b8fd20b4612bc2949c29","A3","batch1","","1072","tol_tohand","","","","tol_peg_1","1072","1072","0","[[2,0,0],[3,0],[0]]","4","[[1,2,0],[3,0],[0]]","6","0","","","","","","5","","","","","","","","",""
"","","","","","single-stim-button","119","384684","0.0-2.0-28.3-1.3","63d7b8fd20b4612bc2949c29","A3","batch1","","1224","tol_toboard","","","","tol_peg_2","1224","1224","0","[[2,0,0],[3,1],[0]]","4","[[1,2,0],[3,0],[0]]","6","0","","","","","","5","","","","","","","","",""
"","","","","","single-stim-button","120","386476","0.0-2.0-28.4-0.4","63d7b8fd20b4612bc2949c29","A3","batch1","","1792","tol_tohand","","","","tol_peg_1","1792","1792","0","[[0,0,0],[3,1],[0]]","5","[[1,2,0],[3,0],[0]]","6","0","","","","","","5","","","","","","","","",""
"","","","","","single-stim-button","121","387108","0.0-2.0-28.4-1.4","63d7b8fd20b4612bc2949c29","A3","batch1","","632","tol_toboard","","","","tol_peg_3","632","632","0","[[0,0,0],[3,1],[2]]","5","[[1,2,0],[3,0],[0]]","6","0","","","","","","5","","","","","","","","",""
"","","","","","single-stim-button","122","387500","0.0-2.0-28.5-0.5","63d7b8fd20b4612bc2949c29","A3","batch1","","392","tol_tohand","","","","tol_peg_2","392","392","0","[[0,0,0],[3,0],[2]]","6","[[1,2,0],[3,0],[0]]","6","0","","","","","","5","","","","","","","","",""
"","","","","","single-stim-button","123","388524","0.0-2.0-28.5-1.5","63d7b8fd20b4612bc2949c29","A3","batch1","","1024","tol_toboard","","","","tol_peg_1","1024","1024","0","[[1,0,0],[3,0],[2]]","6","[[1,2,0],[3,0],[0]]","6","0","","","","","","5","","","","","","","","",""
"","","","","","single-stim-button","124","389028","0.0-2.0-28.6-0.6","63d7b8fd20b4612bc2949c29","A3","batch1","","504","tol_tohand","","","","tol_peg_3","504","504","0","[[1,0,0],[3,0],[0]]","7","[[1,2,0],[3,0],[0]]","6","0","","","","","","5","","","","","","","","",""
"","","","","","single-stim-button","125","389652","0.0-2.0-28.6-1.6","63d7b8fd20b4612bc2949c29","A3","batch1","","624","tol_toboard","","","","tol_peg_1","624","624","0","[[1,2,0],[3,0],[0]]","7","[[1,2,0],[3,0],[0]]","6","0","","","","","","5","","","","","","","","",""
"","","","","","poldrack-single-stim","126","390664","0.0-2.0-29.0","63d7b8fd20b4612bc2949c29","A3","batch1","","-1","tol_feedback","","","true","","1000","1000","500","","","","","","-1","none","true","10504","18920","","","","","","","","","",""
"","","","","","html-button-response","127","391860","0.0-2.0-30.0","63d7b8fd20b4612bc2949c29","A3","batch1","","1194.7999999998137","tol_trial_num","<div class = centerbox><p class = center-block-text>problem <strong>8</strong> out of 25 problems</p></div>","0","","","","","","","","","","","","","","","","","","","","","","","","",""
"","","","","","single-stim-button","128","395916","0.0-2.0-31.0-0.0","63d7b8fd20b4612bc2949c29","A3","batch1","","4056","tol_tohand","","","","tol_peg_3","4056","4056","0","[[0,0,0],[2,3],[0]]","1","[[1,2,0],[3,0],[0]]","7","0","","","","","","4","","","","","","","","",""
"","","","","","single-stim-button","129","397020","0.0-2.0-31.0-1.0","63d7b8fd20b4612bc2949c29","A3","batch1","","1104","tol_toboard","","","","tol_peg_1","1104","1104","0","[[1,0,0],[2,3],[0]]","1","[[1,2,0],[3,0],[0]]","7","0","","","","","","4","","","","","","","","",""
"","","","","","single-stim-button","130","399132","0.0-2.0-31.1-0.1","63d7b8fd20b4612bc2949c29","A3","batch1","","2112","tol_tohand","","","","tol_peg_2","2112","2112","0","[[1,0,0],[2,0],[0]]","2","[[1,2,0],[3,0],[0]]","7","0","","","","","","4","","","","","","","","",""
"","","","","","single-stim-button","131","402716","0.0-2.0-31.1-1.1","63d7b8fd20b4612bc2949c29","A3","batch1","","3584","tol_toboard","","","","tol_peg_3","3584","3584","0","[[1,0,0],[2,0],[3]]","2","[[1,2,0],[3,0],[0]]","7","0","","","","","","4","","","","","","","","",""
"","","","","","single-stim-button","132","403236","0.0-2.0-31.2-0.2","63d7b8fd20b4612bc2949c29","A3","batch1","","520","tol_tohand","","","","tol_peg_2","520","520","0","[[1,0,0],[0,0],[3]]","3","[[1,2,0],[3,0],[0]]","7","0","","","","","","4","","","","","","","","",""
"","","","","","single-stim-button","133","403756","0.0-2.0-31.2-1.2","63d7b8fd20b4612bc2949c29","A3","batch1","","520","tol_toboard","","","","tol_peg_1","520","520","0","[[1,2,0],[0,0],[3]]","3","[[1,2,0],[3,0],[0]]","7","0","","","","","","4","","","","","","","","",""
"","","","","","single-stim-button","134","404340","0.0-2.0-31.3-0.3","63d7b8fd20b4612bc2949c29","A3","batch1","","584","tol_tohand","","","","tol_peg_3","584","584","0","[[1,2,0],[0,0],[0]]","4","[[1,2,0],[3,0],[0]]","7","0","","","","","","4","","","","","","","","",""
"","","","","","single-stim-button","135","404836","0.0-2.0-31.3-1.3","63d7b8fd20b4612bc2949c29","A3","batch1","","496","tol_toboard","","","","tol_peg_2","496","496","0","[[1,2,0],[3,0],[0]]","4","[[1,2,0],[3,0],[0]]","7","0","","","","","","4","","","","","","","","",""
"","","","","","poldrack-single-stim","136","405837","0.0-2.0-32.0","63d7b8fd20b4612bc2949c29","A3","batch1","","-1","tol_feedback","","","true","","1000","1000","500","","","","","","-1","none","true","4056","7272","","","","","","","","","",""
"","","","","","html-button-response","137","406492","0.0-2.0-33.0","63d7b8fd20b4612bc2949c29","A3","batch1","","654.2999999998137","tol_trial_num","<div class = centerbox><p class = center-block-text>problem <strong>9</strong> out of 25 problems</p></div>","0","","","","","","","","","","","","","","","","","","","","","","","","",""
"","","","","","single-stim-button","138","417156","0.0-2.0-34.0-0.0","63d7b8fd20b4612bc2949c29","A3","batch1","","10664","tol_tohand","","","","tol_peg_3","10664","10664","0","[[3,2,0],[0,0],[0]]","1","[[2,1,0],[3,0],[0]]","8","0","","","","","","6","","","","","","","","",""
"","","","","","single-stim-button","139","417868","0.0-2.0-34.0-1.0","63d7b8fd20b4612bc2949c29","A3","batch1","","712","tol_toboard","","","","tol_peg_2","712","712","0","[[3,2,0],[1,0],[0]]","1","[[2,1,0],[3,0],[0]]","8","0","","","","","","6","","","","","","","","",""
"","","","","","single-stim-button","140","426428","0.0-2.0-34.1-0.1","63d7b8fd20b4612bc2949c29","A3","batch1","","8560","tol_tohand","","","","tol_peg_1","8560","8560","0","[[3,0,0],[1,0],[0]]","2","[[2,1,0],[3,0],[0]]","8","0","","","","","","6","","","","","","","","",""
"","","","","","single-stim-button","141","427324","0.0-2.0-34.1-1.1","63d7b8fd20b4612bc2949c29","A3","batch1","","895","tol_toboard","","","","tol_peg_2","895","895","0","[[3,0,0],[1,2],[0]]","2","[[2,1,0],[3,0],[0]]","8","0","","","","","","6","","","","","","","","",""
"","","","","","single-stim-button","142","427732","0.0-2.0-34.2-0.2","63d7b8fd20b4612bc2949c29","A3","batch1","","408","tol_tohand","","","","tol_peg_1","408","408","0","[[0,0,0],[1,2],[0]]","3","[[2,1,0],[3,0],[0]]","8","0","","","","","","6","","","","","","","","",""
"","","","","","single-stim-button","143","428484","0.0-2.0-34.2-1.2","63d7b8fd20b4612bc2949c29","A3","batch1","","752","tol_toboard","","","","tol_peg_3","752","752","0","[[0,0,0],[1,2],[3]]","3","[[2,1,0],[3,0],[0]]","8","0","","","","","","6","","","","","","","","",""
"","","","","","single-stim-button","144","428917","0.0-2.0-34.3-0.3","63d7b8fd20b4612bc2949c29","A3","batch1","","433","tol_tohand","","","","tol_peg_2","433","433","0","[[0,0,0],[1,0],[3]]","4","[[2,1,0],[3,0],[0]]","8","0","","","","","","6","","","","","","","","",""
"","","","","","single-stim-button","145","429492","0.0-2.0-34.3-1.3","63d7b8fd20b4612bc2949c29","A3","batch1","","575","tol_toboard","","","","tol_peg_1","575","575","0","[[2,0,0],[1,0],[3]]","4","[[2,1,0],[3,0],[0]]","8","0","","","","","","6","","","","","","","","",""
"","","","","","single-stim-button","146","430212","0.0-2.0-34.4-0.4","63d7b8fd20b4612bc2949c29","A3","batch1","","720","tol_tohand","","","","tol_peg_2","720","720","0","[[2,0,0],[0,0],[3]]","5","[[2,1,0],[3,0],[0]]","8","0","","","","","","6","","","","","","","","",""
"","","","","","single-stim-button","147","430716","0.0-2.0-34.4-1.4","63d7b8fd20b4612bc2949c29","A3","batch1","","504","tol_toboard","","","","tol_peg_1","504","504","0","[[2,1,0],[0,0],[3]]","5","[[2,1,0],[3,0],[0]]","8","0","","","","","","6","","","","","","","","",""
"","","","","","single-stim-button","148","431284","0.0-2.0-34.5-0.5","63d7b8fd20b4612bc2949c29","A3","batch1","","568","tol_tohand","","","","tol_peg_3","568","568","0","[[2,1,0],[0,0],[0]]","6","[[2,1,0],[3,0],[0]]","8","0","","","","","","6","","","","","","","","",""
"","","","","","single-stim-button","149","431908","0.0-2.0-34.5-1.5","63d7b8fd20b4612bc2949c29","A3","batch1","","624","tol_toboard","","","","tol_peg_2","624","624","0","[[2,1,0],[3,0],[0]]","6","[[2,1,0],[3,0],[0]]","8","0","","","","","","6","","","","","","","","",""
"","","","","","poldrack-single-stim","150","432909","0.0-2.0-35.0","63d7b8fd20b4612bc2949c29","A3","batch1","","-1","tol_feedback","","","true","","1000","1000","500","","","","","","-1","none","true","10664","21353","","","","","","","","","",""
"","","","","","html-button-response","151","433516","0.0-2.0-36.0","63d7b8fd20b4612bc2949c29","A3","batch1","","606.7000000001863","tol_trial_num","<div class = centerbox><p class = center-block-text>problem <strong>10</strong> out of 25 problems</p></div>","0","","","","","","","","","","","","","","","","","","","","","","","","",""
"","","","","","single-stim-button","152","439396","0.0-2.0-37.0-0.0","63d7b8fd20b4612bc2949c29","A3","batch1","","5880","tol_tohand","","","","tol_peg_2","5880","5880","0","[[3,0,0],[0,0],[2]]","1","[[3,0,0],[2,1],[0]]","9","0","","","","","","3","","","","","","","","",""
"","","","","","single-stim-button","153","439772","0.0-2.0-37.0-1.0","63d7b8fd20b4612bc2949c29","A3","batch1","","376","tol_toboard","","","","tol_peg_1","376","376","0","[[3,1,0],[0,0],[2]]","1","[[3,0,0],[2,1],[0]]","9","0","","","","","","3","","","","","","","","",""
"","","","","","single-stim-button","154","440508","0.0-2.0-37.1-0.1","63d7b8fd20b4612bc2949c29","A3","batch1","","736","tol_tohand","","","","tol_peg_3","736","736","0","[[3,1,0],[0,0],[0]]","2","[[3,0,0],[2,1],[0]]","9","0","","","","","","3","","","","","","","","",""
"","","","","","single-stim-button","155","441148","0.0-2.0-37.1-1.1","63d7b8fd20b4612bc2949c29","A3","batch1","","640","tol_toboard","","","","tol_peg_2","640","640","0","[[3,1,0],[2,0],[0]]","2","[[3,0,0],[2,1],[0]]","9","0","","","","","","3","","","","","","","","",""
"","","","","","single-stim-button","156","441628","0.0-2.0-37.2-0.2","63d7b8fd20b4612bc2949c29","A3","batch1","","479","tol_tohand","","","","tol_peg_1","479","479","0","[[3,0,0],[2,0],[0]]","3","[[3,0,0],[2,1],[0]]","9","0","","","","","","3","","","","","","","","",""
"","","","","","single-stim-button","157","442268","0.0-2.0-37.2-1.2","63d7b8fd20b4612bc2949c29","A3","batch1","","640","tol_toboard","","","","tol_peg_2","640","640","0","[[3,0,0],[2,1],[0]]","3","[[3,0,0],[2,1],[0]]","9","0","","","","","","3","","","","","","","","",""
"","","","","","poldrack-single-stim","158","443269","0.0-2.0-38.0","63d7b8fd20b4612bc2949c29","A3","batch1","","-1","tol_feedback","","","true","","1000","1000","500","","","","","","-1","none","true","5880","7095","","","","","","","","","",""
"","","","","","html-button-response","159","444020","0.0-2.0-39.0","63d7b8fd20b4612bc2949c29","A3","batch1","","750.3000000002794","tol_trial_num","<div class = centerbox><p class = center-block-text>problem <strong>11</strong> out of 25 problems</p></div>","0","","","","","","","","","","","","","","","","","","","","","","","","",""
"","","","","","single-stim-button","160","464932","0.0-2.0-40.0-0.0","63d7b8fd20b4612bc2949c29","A3","batch1","","20912","tol_tohand","","","","tol_peg_2","20912","20912","0","[[1,2,0],[0,0],[0]]","1","[[2,0,0],[1,3],[0]]","10","0","","","","","","6","","","","","","","","",""
"","","","","","single-stim-button","161","465796","0.0-2.0-40.0-1.0","63d7b8fd20b4612bc2949c29","A3","batch1","","863","tol_toboard","","","","tol_peg_3","863","863","0","[[1,2,0],[0,0],[3]]","1","[[2,0,0],[1,3],[0]]","10","0","","","","","","6","","","","","","","","",""
"","","","","","single-stim-button","162","479468","0.0-2.0-40.1-0.1","63d7b8fd20b4612bc2949c29","A3","batch1","","13672","tol_tohand","","","","tol_peg_3","13672","13672","0","[[1,2,0],[0,0],[0]]","2","[[2,0,0],[1,3],[0]]","10","0","","","","","","6","","","","","","","","",""
"","","","","","single-stim-button","163","481116","0.0-2.0-40.1-1.1","63d7b8fd20b4612bc2949c29","A3","batch1","","1647","tol_toboard","","","","tol_peg_2","1647","1647","0","[[1,2,0],[3,0],[0]]","2","[[2,0,0],[1,3],[0]]","10","0","","","","","","6","","","","","","","","",""
"","","","","","single-stim-button","164","481517","0.0-2.0-40.2-0.2","63d7b8fd20b4612bc2949c29","A3","batch1","","400","tol_tohand","","","","tol_peg_1","400","400","0","[[1,0,0],[3,0],[0]]","3","[[2,0,0],[1,3],[0]]","10","0","","","","","","6","","","","","","","","",""
"","","","","","single-stim-button","165","481980","0.0-2.0-40.2-1.2","63d7b8fd20b4612bc2949c29","A3","batch1","","463","tol_toboard","","","","tol_peg_3","463","463","0","[[1,0,0],[3,0],[2]]","3","[[2,0,0],[1,3],[0]]","10","0","","","","","","6","","","","","","","","",""
"","","","","","single-stim-button","166","502037","0.0-2.0-40.3-0.3","63d7b8fd20b4612bc2949c29","A3","batch1","","20056","tol_tohand","","","","tol_peg_1","20056","20056","0","[[0,0,0],[3,0],[2]]","4","[[2,0,0],[1,3],[0]]","10","0","","","","","","6","","","","","","","","",""
"","","","","","single-stim-button","167","502733","0.0-2.0-40.3-1.3","63d7b8fd20b4612bc2949c29","A3","batch1","","696","tol_toboard","","","","tol_peg_2","696","696","0","[[0,0,0],[3,1],[2]]","4","[[2,0,0],[1,3],[0]]","10","0","","","","","","6","","","","","","","","",""
"","","","","","single-stim-button","168","503149","0.0-2.0-40.4-0.4","63d7b8fd20b4612bc2949c29","A3","batch1","","416","tol_tohand","","","","tol_peg_3","416","416","0","[[0,0,0],[3,1],[0]]","5","[[2,0,0],[1,3],[0]]","10","0","","","","","","6","","","","","","","","",""
"","","","","","single-stim-button","169","503909","0.0-2.0-40.4-1.4","63d7b8fd20b4612bc2949c29","A3","batch1","","760","tol_toboard","","","","tol_peg_1","760","760","0","[[2,0,0],[3,1],[0]]","5","[[2,0,0],[1,3],[0]]","10","0","","","","","","6","","","","","","","","",""
"","","","","","single-stim-button","170","504437","0.0-2.0-40.5-0.5","63d7b8fd20b4612bc2949c29","A3","batch1","","528","tol_tohand","","","","tol_peg_2","528","528","0","[[2,0,0],[3,0],[0]]","6","[[2,0,0],[1,3],[0]]","10","0","","","","","","6","","","","","","","","",""
"","","","","","single-stim-button","171","505381","0.0-2.0-40.5-1.5","63d7b8fd20b4612bc2949c29","A3","batch1","","944","tol_toboard","","","","tol_peg_3","944","944","0","[[2,0,0],[3,0],[1]]","6","[[2,0,0],[1,3],[0]]","10","0","","","","","","6","","","","","","","","",""
"","","","","","single-stim-button","172","505909","0.0-2.0-40.6-0.6","63d7b8fd20b4612bc2949c29","A3","batch1","","528","tol_tohand","","","","tol_peg_2","528","528","0","[[2,0,0],[0,0],[1]]","7","[[2,0,0],[1,3],[0]]","10","0","","","","","","6","","","","","","","","",""
"","","","","","single-stim-button","173","506517","0.0-2.0-40.6-1.6","63d7b8fd20b4612bc2949c29","A3","batch1","","608","tol_toboard","","","","tol_peg_1","608","608","0","[[2,3,0],[0,0],[1]]","7","[[2,0,0],[1,3],[0]]","10","0","","","","","","6","","","","","","","","",""
"","","","","","single-stim-button","174","507061","0.0-2.0-40.7-0.7","63d7b8fd20b4612bc2949c29","A3","batch1","","544","tol_tohand","","","","tol_peg_3","544","544","0","[[2,3,0],[0,0],[0]]","8","[[2,0,0],[1,3],[0]]","10","0","","","","","","6","","","","","","","","",""
"","","","","","single-stim-button","175","507597","0.0-2.0-40.7-1.7","63d7b8fd20b4612bc2949c29","A3","batch1","","536","tol_toboard","","","","tol_peg_2","536","536","0","[[2,3,0],[1,0],[0]]","8","[[2,0,0],[1,3],[0]]","10","0","","","","","","6","","","","","","","","",""
"","","","","","single-stim-button","176","508085","0.0-2.0-40.8-0.8","63d7b8fd20b4612bc2949c29","A3","batch1","","488","tol_tohand","","","","tol_peg_1","488","488","0","[[2,0,0],[1,0],[0]]","9","[[2,0,0],[1,3],[0]]","10","0","","","","","","6","","","","","","","","",""
"","","","","","single-stim-button","177","508925","0.0-2.0-40.8-1.8","63d7b8fd20b4612bc2949c29","A3","batch1","","840","tol_toboard","","","","tol_peg_2","840","840","0","[[2,0,0],[1,3],[0]]","9","[[2,0,0],[1,3],[0]]","10","0","","","","","","6","","","","","","","","",""
"","","","","","poldrack-single-stim","178","509938","0.0-2.0-41.0","63d7b8fd20b4612bc2949c29","A3","batch1","","-1","tol_feedback","","","true","","1000","1000","500","","","","","","-1","none","true","20912","57544","","","","","","","","","",""
"","","","","","html-button-response","179","510877","0.0-2.0-42.0","63d7b8fd20b4612bc2949c29","A3","batch1","","938.2000000001863","tol_trial_num","<div class = centerbox><p class = center-block-text>problem <strong>12</strong> out of 25 problems</p></div>","0","","","","","","","","","","","","","","","","","","","","","","","","",""
"","","","","","single-stim-button","180","530149","0.0-2.0-43.0-0.0","63d7b8fd20b4612bc2949c29","A3","batch1","","19272","tol_tohand","","","","tol_peg_1","19272","19272","0","[[1,0,0],[3,0],[0]]","1","[[2,3,0],[0,0],[1]]","11","0","","","","","","4","","","","","","","","",""
"","","","","","single-stim-button","181","531389","0.0-2.0-43.0-1.0","63d7b8fd20b4612bc2949c29","A3","batch1","","1239","tol_toboard","","","","tol_peg_2","1239","1239","0","[[1,0,0],[3,2],[0]]","1","[[2,3,0],[0,0],[1]]","11","0","","","","","","4","","","","","","","","",""
"","","","","","single-stim-button","182","531869","0.0-2.0-43.1-0.1","63d7b8fd20b4612bc2949c29","A3","batch1","","480","tol_tohand","","","","tol_peg_1","480","480","0","[[0,0,0],[3,2],[0]]","2","[[2,3,0],[0,0],[1]]","11","0","","","","","","4","","","","","","","","",""
"","","","","","single-stim-button","183","532341","0.0-2.0-43.1-1.1","63d7b8fd20b4612bc2949c29","A3","batch1","","472","tol_toboard","","","","tol_peg_3","472","472","0","[[0,0,0],[3,2],[1]]","2","[[2,3,0],[0,0],[1]]","11","0","","","","","","4","","","","","","","","",""
"","","","","","single-stim-button","184","533493","0.0-2.0-43.2-0.2","63d7b8fd20b4612bc2949c29","A3","batch1","","1152","tol_tohand","","","","tol_peg_2","1152","1152","0","[[0,0,0],[3,0],[1]]","3","[[2,3,0],[0,0],[1]]","11","0","","","","","","4","","","","","","","","",""
"","","","","","single-stim-button","185","534045","0.0-2.0-43.2-1.2","63d7b8fd20b4612bc2949c29","A3","batch1","","552","tol_toboard","","","","tol_peg_1","552","552","0","[[2,0,0],[3,0],[1]]","3","[[2,3,0],[0,0],[1]]","11","0","","","","","","4","","","","","","","","",""
"","","","","","single-stim-button","186","534589","0.0-2.0-43.3-0.3","63d7b8fd20b4612bc2949c29","A3","batch1","","544","tol_tohand","","","","tol_peg_2","544","544","0","[[2,0,0],[0,0],[1]]","4","[[2,3,0],[0,0],[1]]","11","0","","","","","","4","","","","","","","","",""
"","","","","","single-stim-button","187","535021","0.0-2.0-43.3-1.3","63d7b8fd20b4612bc2949c29","A3","batch1","","432","tol_toboard","","","","tol_peg_1","432","432","0","[[2,3,0],[0,0],[1]]","4","[[2,3,0],[0,0],[1]]","11","0","","","","","","4","","","","","","","","",""
"","","","","","poldrack-single-stim","188","536022","0.0-2.0-44.0","63d7b8fd20b4612bc2949c29","A3","batch1","","-1","tol_feedback","","","true","","1000","1000","500","","","","","","-1","none","true","19272","21448","","","","","","","","","",""
"","","","","","html-button-response","189","536861","0.0-2.0-45.0","63d7b8fd20b4612bc2949c29","A3","batch1","","838.7000000001863","tol_trial_num","<div class = centerbox><p class = center-block-text>problem <strong>13</strong> out of 25 problems</p></div>","0","","","","","","","","","","","","","","","","","","","","","","","","",""
"","","","","","single-stim-button","190","551077","0.0-2.0-46.0-0.0","63d7b8fd20b4612bc2949c29","A3","batch1","","14216","tol_tohand","","","","tol_peg_1","14216","14216","0","[[1,0,0],[3,0],[0]]","1","[[0,0,0],[2,3],[1]]","12","0","","","","","","4","","","","","","","","",""
"","","","","","single-stim-button","191","583486","0.0-2.0-46.0-1.0","63d7b8fd20b4612bc2949c29","A3","batch1","","32407","tol_toboard","","","","tol_peg_3","32407","32407","0","[[1,0,0],[3,0],[2]]","1","[[0,0,0],[2,3],[1]]","12","0","","","","","","4","","","","","","","","",""
"","","","","","single-stim-button","192","583981","0.0-2.0-46.1-0.1","63d7b8fd20b4612bc2949c29","A3","batch1","","495","tol_tohand","","","","tol_peg_2","495","495","0","[[1,0,0],[0,0],[2]]","2","[[0,0,0],[2,3],[1]]","12","0","","","","","","4","","","","","","","","",""
"","","","","","single-stim-button","193","584566","0.0-2.0-46.1-1.1","63d7b8fd20b4612bc2949c29","A3","batch1","","583","tol_toboard","","","","tol_peg_1","583","583","0","[[1,3,0],[0,0],[2]]","2","[[0,0,0],[2,3],[1]]","12","0","","","","","","4","","","","","","","","",""
"","","","","","single-stim-button","194","584997","0.0-2.0-46.2-0.2","63d7b8fd20b4612bc2949c29","A3","batch1","","431","tol_tohand","","","","tol_peg_3","431","431","0","[[1,3,0],[0,0],[0]]","3","[[0,0,0],[2,3],[1]]","12","0","","","","","","4","","","","","","","","",""
"","","","","","single-stim-button","195","585414","0.0-2.0-46.2-1.2","63d7b8fd20b4612bc2949c29","A3","batch1","","415","tol_toboard","","","","tol_peg_2","415","415","0","[[1,3,0],[2,0],[0]]","3","[[0,0,0],[2,3],[1]]","12","0","","","","","","4","","","","","","","","",""
"","","","","","single-stim-button","196","586573","0.0-2.0-46.3-0.3","63d7b8fd20b4612bc2949c29","A3","batch1","","1159","tol_tohand","","","","tol_peg_1","1159","1159","0","[[1,0,0],[2,0],[0]]","4","[[0,0,0],[2,3],[1]]","12","0","","","","","","4","","","","","","","","",""
"","","","","","single-stim-button","197","587926","0.0-2.0-46.3-1.3","63d7b8fd20b4612bc2949c29","A3","batch1","","1352","tol_toboard","","","","tol_peg_2","1352","1352","0","[[1,0,0],[2,3],[0]]","4","[[0,0,0],[2,3],[1]]","12","0","","","","","","4","","","","","","","","",""
"","","","","","single-stim-button","198","588301","0.0-2.0-46.4-0.4","63d7b8fd20b4612bc2949c29","A3","batch1","","375","tol_tohand","","","","tol_peg_1","375","375","0","[[0,0,0],[2,3],[0]]","5","[[0,0,0],[2,3],[1]]","12","0","","","","","","4","","","","","","","","",""
"","","","","","single-stim-button","199","589006","0.0-2.0-46.4-1.4","63d7b8fd20b4612bc2949c29","A3","batch1","","703","tol_toboard","","","","tol_peg_3","703","703","0","[[0,0,0],[2,3],[1]]","5","[[0,0,0],[2,3],[1]]","12","0","","","","","","4","","","","","","","","",""
"","","","","","poldrack-single-stim","200","590008","0.0-2.0-47.0","63d7b8fd20b4612bc2949c29","A3","batch1","","-1","tol_feedback","","","true","","1000","1000","500","","","","","","-1","none","true","14216","16676","","","","","","","","","",""
"","","","","","html-button-response","201","599902","0.0-2.0-48.0","63d7b8fd20b4612bc2949c29","A3","batch1","","9892.799999999814","attention_check","<p class = block-text>How many balls are in your board<br></p>","1","true","","","","","","","","","","","","","","","","","","","","","","","",""
"","","","","","html-button-response","202","601134","0.0-2.0-49.0","63d7b8fd20b4612bc2949c29","A3","batch1","","1231.5","tol_trial_num","<div class = centerbox><p class = center-block-text>problem <strong>14</strong> out of 25 problems</p></div>","0","","","","","","","","","","","","","","","","","","","","","","","","",""
"","","","","","single-stim-button","203","607798","0.0-2.0-50.0-0.0","63d7b8fd20b4612bc2949c29","A3","batch1","","6663","tol_tohand","","","","tol_peg_1","6663","6663","0","[[2,0,0],[3,0],[0]]","1","[[1,2,0],[3,0],[0]]","13","0","","","","","","4","","","","","","","","",""
"","","","","","single-stim-button","204","608974","0.0-2.0-50.0-1.0","63d7b8fd20b4612bc2949c29","A3","batch1","","1176","tol_toboard","","","","tol_peg_3","1176","1176","0","[[2,0,0],[3,0],[1]]","1","[[1,2,0],[3,0],[0]]","13","0","","","","","","4","","","","","","","","",""
"","","","","","single-stim-button","205","609438","0.0-2.0-50.1-0.1","63d7b8fd20b4612bc2949c29","A3","batch1","","463","tol_tohand","","","","tol_peg_1","463","463","0","[[0,0,0],[3,0],[1]]","2","[[1,2,0],[3,0],[0]]","13","0","","","","","","4","","","","","","","","",""
"","","","","","single-stim-button","206","609894","0.0-2.0-50.1-1.1","63d7b8fd20b4612bc2949c29","A3","batch1","","456","tol_toboard","","","","tol_peg_2","456","456","0","[[0,0,0],[3,2],[1]]","2","[[1,2,0],[3,0],[0]]","13","0","","","","","","4","","","","","","","","",""
"","","","","","single-stim-button","207","610382","0.0-2.0-50.2-0.2","63d7b8fd20b4612bc2949c29","A3","batch1","","488","tol_tohand","","","","tol_peg_3","488","488","0","[[0,0,0],[3,2],[0]]","3","[[1,2,0],[3,0],[0]]","13","0","","","","","","4","","","","","","","","",""
"","","","","","single-stim-button","208","610918","0.0-2.0-50.2-1.2","63d7b8fd20b4612bc2949c29","A3","batch1","","535","tol_toboard","","","","tol_peg_1","535","535","0","[[1,0,0],[3,2],[0]]","3","[[1,2,0],[3,0],[0]]","13","0","","","","","","4","","","","","","","","",""
"","","","","","single-stim-button","209","611406","0.0-2.0-50.3-0.3","63d7b8fd20b4612bc2949c29","A3","batch1","","488","tol_tohand","","","","tol_peg_2","488","488","0","[[1,0,0],[3,0],[0]]","4","[[1,2,0],[3,0],[0]]","13","0","","","","","","4","","","","","","","","",""
"","","","","","single-stim-button","210","612702","0.0-2.0-50.3-1.3","63d7b8fd20b4612bc2949c29","A3","batch1","","1296","tol_toboard","","","","tol_peg_1","1296","1296","0","[[1,2,0],[3,0],[0]]","4","[[1,2,0],[3,0],[0]]","13","0","","","","","","4","","","","","","","","",""
"","","","","","poldrack-single-stim","211","613703","0.0-2.0-51.0","63d7b8fd20b4612bc2949c29","A3","batch1","","-1","tol_feedback","","","true","","1000","1000","500","","","","","","-1","none","true","6663","8102","","","","","","","","","",""
"","","","","","html-button-response","212","614686","0.0-2.0-52.0","63d7b8fd20b4612bc2949c29","A3","batch1","","982.2999999998137","tol_trial_num","<div class = centerbox><p class = center-block-text>problem <strong>15</strong> out of 25 problems</p></div>","0","","","","","","","","","","","","","","","","","","","","","","","","",""
"","","","","","single-stim-button","213","620382","0.0-2.0-53.0-0.0","63d7b8fd20b4612bc2949c29","A3","batch1","","5696","tol_tohand","","","","tol_peg_1","5696","5696","0","[[1,0,0],[3,0],[0]]","1","[[2,0,0],[3,0],[1]]","14","0","","","","","","3","","","","","","","","",""
"","","","","","single-stim-button","214","620862","0.0-2.0-53.0-1.0","63d7b8fd20b4612bc2949c29","A3","batch1","","480","tol_toboard","","","","tol_peg_2","480","480","0","[[1,0,0],[3,2],[0]]","1","[[2,0,0],[3,0],[1]]","14","0","","","","","","3","","","","","","","","",""
"","","","","","single-stim-button","215","621310","0.0-2.0-53.1-0.1","63d7b8fd20b4612bc2949c29","A3","batch1","","448","tol_tohand","","","","tol_peg_1","448","448","0","[[0,0,0],[3,2],[0]]","2","[[2,0,0],[3,0],[1]]","14","0","","","","","","3","","","","","","","","",""
"","","","","","single-stim-button","216","621942","0.0-2.0-53.1-1.1","63d7b8fd20b4612bc2949c29","A3","batch1","","632","tol_toboard","","","","tol_peg_3","632","632","0","[[0,0,0],[3,2],[1]]","2","[[2,0,0],[3,0],[1]]","14","0","","","","","","3","","","","","","","","",""
"","","","","","single-stim-button","217","622374","0.0-2.0-53.2-0.2","63d7b8fd20b4612bc2949c29","A3","batch1","","432","tol_tohand","","","","tol_peg_2","432","432","0","[[0,0,0],[3,0],[1]]","3","[[2,0,0],[3,0],[1]]","14","0","","","","","","3","","","","","","","","",""
"","","","","","single-stim-button","218","622918","0.0-2.0-53.2-1.2","63d7b8fd20b4612bc2949c29","A3","batch1","","544","tol_toboard","","","","tol_peg_1","544","544","0","[[2,0,0],[3,0],[1]]","3","[[2,0,0],[3,0],[1]]","14","0","","","","","","3","","","","","","","","",""
"","","","","","poldrack-single-stim","219","623926","0.0-2.0-54.0","63d7b8fd20b4612bc2949c29","A3","batch1","","-1","tol_feedback","","","true","","1000","1000","500","","","","","","-1","none","true","5696","6576","","","","","","","","","",""
"","","","","","html-button-response","220","624462","0.0-2.0-55.0","63d7b8fd20b4612bc2949c29","A3","batch1","","535.2000000001863","tol_trial_num","<div class = centerbox><p class = center-block-text>problem <strong>16</strong> out of 25 problems</p></div>","0","","","","","","","","","","","","","","","","","","","","","","","","",""
"","","","","","single-stim-button","221","632870","0.0-2.0-56.0-0.0","63d7b8fd20b4612bc2949c29","A3","batch1","","8408","tol_tohand","","","","tol_peg_2","8408","8408","0","[[0,0,0],[2,0],[1]]","1","[[2,3,0],[1,0],[0]]","15","0","","","","","","7","","","","","","","","",""
"","","","","","single-stim-button","222","637926","0.0-2.0-56.0-1.0","63d7b8fd20b4612bc2949c29","A3","batch1","","5056","tol_toboard","","","","tol_peg_1","5056","5056","0","[[3,0,0],[2,0],[1]]","1","[[2,3,0],[1,0],[0]]","15","0","","","","","","7","","","","","","","","",""
"","","","","","single-stim-button","223","639822","0.0-2.0-56.1-0.1","63d7b8fd20b4612bc2949c29","A3","batch1","","1896","tol_tohand","","","","tol_peg_2","1896","1896","0","[[3,0,0],[0,0],[1]]","2","[[2,3,0],[1,0],[0]]","15","0","","","","","","7","","","","","","","","",""
"","","","","","single-stim-button","224","640318","0.0-2.0-56.1-1.1","63d7b8fd20b4612bc2949c29","A3","batch1","","496","tol_toboard","","","","tol_peg_1","496","496","0","[[3,2,0],[0,0],[1]]","2","[[2,3,0],[1,0],[0]]","15","0","","","","","","7","","","","","","","","",""
"","","","","","single-stim-button","225","640862","0.0-2.0-56.2-0.2","63d7b8fd20b4612bc2949c29","A3","batch1","","544","tol_tohand","","","","tol_peg_3","544","544","0","[[3,2,0],[0,0],[0]]","3","[[2,3,0],[1,0],[0]]","15","0","","","","","","7","","","","","","","","",""
"","","","","","single-stim-button","226","641406","0.0-2.0-56.2-1.2","63d7b8fd20b4612bc2949c29","A3","batch1","","543","tol_toboard","","","","tol_peg_2","543","543","0","[[3,2,0],[1,0],[0]]","3","[[2,3,0],[1,0],[0]]","15","0","","","","","","7","","","","","","","","",""
"","","","","","single-stim-button","227","642974","0.0-2.0-56.3-0.3","63d7b8fd20b4612bc2949c29","A3","batch1","","1568","tol_tohand","","","","tol_peg_1","1568","1568","0","[[3,0,0],[1,0],[0]]","4","[[2,3,0],[1,0],[0]]","15","0","","","","","","7","","","","","","","","",""
"","","","","","single-stim-button","228","644302","0.0-2.0-56.3-1.3","63d7b8fd20b4612bc2949c29","A3","batch1","","1328","tol_toboard","","","","tol_peg_2","1328","1328","0","[[3,0,0],[1,2],[0]]","4","[[2,3,0],[1,0],[0]]","15","0","","","","","","7","","","","","","","","",""
"","","","","","single-stim-button","229","644798","0.0-2.0-56.4-0.4","63d7b8fd20b4612bc2949c29","A3","batch1","","496","tol_tohand","","","","tol_peg_1","496","496","0","[[0,0,0],[1,2],[0]]","5","[[2,3,0],[1,0],[0]]","15","0","","","","","","7","","","","","","","","",""
"","","","","","single-stim-button","230","646814","0.0-2.0-56.4-1.4","63d7b8fd20b4612bc2949c29","A3","batch1","","2016","tol_toboard","","","","tol_peg_3","2016","2016","0","[[0,0,0],[1,2],[3]]","5","[[2,3,0],[1,0],[0]]","15","0","","","","","","7","","","","","","","","",""
"","","","","","single-stim-button","231","647166","0.0-2.0-56.5-0.5","63d7b8fd20b4612bc2949c29","A3","batch1","","352","tol_tohand","","","","tol_peg_2","352","352","0","[[0,0,0],[1,0],[3]]","6","[[2,3,0],[1,0],[0]]","15","0","","","","","","7","","","","","","","","",""
"","","","","","single-stim-button","232","648158","0.0-2.0-56.5-1.5","63d7b8fd20b4612bc2949c29","A3","batch1","","992","tol_toboard","","","","tol_peg_1","992","992","0","[[2,0,0],[1,0],[3]]","6","[[2,3,0],[1,0],[0]]","15","0","","","","","","7","","","","","","","","",""
"","","","","","single-stim-button","233","648750","0.0-2.0-56.6-0.6","63d7b8fd20b4612bc2949c29","A3","batch1","","592","tol_tohand","","","","tol_peg_3","592","592","0","[[2,0,0],[1,0],[0]]","7","[[2,3,0],[1,0],[0]]","15","0","","","","","","7","","","","","","","","",""
"","","","","","single-stim-button","234","649294","0.0-2.0-56.6-1.6","63d7b8fd20b4612bc2949c29","A3","batch1","","544","tol_toboard","","","","tol_peg_1","544","544","0","[[2,3,0],[1,0],[0]]","7","[[2,3,0],[1,0],[0]]","15","0","","","","","","7","","","","","","","","",""
"","","","","","poldrack-single-stim","235","650308","0.0-2.0-57.0","63d7b8fd20b4612bc2949c29","A3","batch1","","-1","tol_feedback","","","true","","1000","1000","500","","","","","","-1","none","true","8408","13856","","","","","","","","","",""
"","","","","","html-button-response","236","651078","0.0-2.0-58.0","63d7b8fd20b4612bc2949c29","A3","batch1","","769.2000000001863","tol_trial_num","<div class = centerbox><p class = center-block-text>problem <strong>17</strong> out of 25 problems</p></div>","0","","","","","","","","","","","","","","","","","","","","","","","","",""
"","","","","","single-stim-button","237","666078","0.0-2.0-59.0-0.0","63d7b8fd20b4612bc2949c29","A3","batch1","","15000","tol_tohand","","","","tol_peg_2","15000","15000","0","[[1,2,0],[0,0],[0]]","1","[[3,1,0],[2,0],[0]]","16","0","","","","","","5","","","","","","","","",""
"","","","","","single-stim-button","238","666926","0.0-2.0-59.0-1.0","63d7b8fd20b4612bc2949c29","A3","batch1","","848","tol_toboard","","","","tol_peg_3","848","848","0","[[1,2,0],[0,0],[3]]","1","[[3,1,0],[2,0],[0]]","16","0","","","","","","5","","","","","","","","",""
"","","","","","single-stim-button","239","668270","0.0-2.0-59.1-0.1","63d7b8fd20b4612bc2949c29","A3","batch1","","1344","tol_tohand","","","","tol_peg_1","1344","1344","0","[[1,0,0],[0,0],[3]]","2","[[3,1,0],[2,0],[0]]","16","0","","","","","","5","","","","","","","","",""
"","","","","","single-stim-button","240","668886","0.0-2.0-59.1-1.1","63d7b8fd20b4612bc2949c29","A3","batch1","","616","tol_toboard","","","","tol_peg_2","616","616","0","[[1,0,0],[2,0],[3]]","2","[[3,1,0],[2,0],[0]]","16","0","","","","","","5","","","","","","","","",""
"","","","","","single-stim-button","241","671638","0.0-2.0-59.2-0.2","63d7b8fd20b4612bc2949c29","A3","batch1","","2752","tol_tohand","","","","tol_peg_1","2752","2752","0","[[0,0,0],[2,0],[3]]","3","[[3,1,0],[2,0],[0]]","16","0","","","","","","5","","","","","","","","",""
"","","","","","single-stim-button","242","672246","0.0-2.0-59.2-1.2","63d7b8fd20b4612bc2949c29","A3","batch1","","608","tol_toboard","","","","tol_peg_2","608","608","0","[[0,0,0],[2,1],[3]]","3","[[3,1,0],[2,0],[0]]","16","0","","","","","","5","","","","","","","","",""
"","","","","","single-stim-button","243","672798","0.0-2.0-59.3-0.3","63d7b8fd20b4612bc2949c29","A3","batch1","","552","tol_tohand","","","","tol_peg_3","552","552","0","[[0,0,0],[2,1],[0]]","4","[[3,1,0],[2,0],[0]]","16","0","","","","","","5","","","","","","","","",""
"","","","","","single-stim-button","244","673542","0.0-2.0-59.3-1.3","63d7b8fd20b4612bc2949c29","A3","batch1","","744","tol_toboard","","","","tol_peg_1","744","744","0","[[3,0,0],[2,1],[0]]","4","[[3,1,0],[2,0],[0]]","16","0","","","","","","5","","","","","","","","",""
"","","","","","single-stim-button","245","673990","0.0-2.0-59.4-0.4","63d7b8fd20b4612bc2949c29","A3","batch1","","448","tol_tohand","","","","tol_peg_2","448","448","0","[[3,0,0],[2,0],[0]]","5","[[3,1,0],[2,0],[0]]","16","0","","","","","","5","","","","","","","","",""
"","","","","","single-stim-button","246","674534","0.0-2.0-59.4-1.4","63d7b8fd20b4612bc2949c29","A3","batch1","","544","tol_toboard","","","","tol_peg_1","544","544","0","[[3,1,0],[2,0],[0]]","5","[[3,1,0],[2,0],[0]]","16","0","","","","","","5","","","","","","","","",""
"","","","","","poldrack-single-stim","247","675535","0.0-2.0-60.0","63d7b8fd20b4612bc2949c29","A3","batch1","","-1","tol_feedback","","","true","","1000","1000","500","","","","","","-1","none","true","15000","20096","","","","","","","","","",""
"","","","","","html-button-response","248","676310","0.0-2.0-61.0","63d7b8fd20b4612bc2949c29","A3","batch1","","774.6000000000931","tol_trial_num","<div class = centerbox><p class = center-block-text>problem <strong>18</strong> out of 25 problems</p></div>","0","","","","","","","","","","","","","","","","","","","","","","","","",""
"","","","","","single-stim-button","249","698598","0.0-2.0-62.0-0.0","63d7b8fd20b4612bc2949c29","A3","batch1","","22288","tol_tohand","","","","tol_peg_2","22288","22288","0","[[1,2,0],[0,0],[0]]","1","[[3,0,0],[2,0],[1]]","17","0","","","","","","5","","","","","","","","",""
"","","","","","single-stim-button","250","699382","0.0-2.0-62.0-1.0","63d7b8fd20b4612bc2949c29","A3","batch1","","783","tol_toboard","","","","tol_peg_3","783","783","0","[[1,2,0],[0,0],[3]]","1","[[3,0,0],[2,0],[1]]","17","0","","","","","","5","","","","","","","","",""
"","","","","","single-stim-button","251","700030","0.0-2.0-62.1-0.1","63d7b8fd20b4612bc2949c29","A3","batch1","","648","tol_tohand","","","","tol_peg_1","648","648","0","[[1,0,0],[0,0],[3]]","2","[[3,0,0],[2,0],[1]]","17","0","","","","","","5","","","","","","","","",""
"","","","","","single-stim-button","252","701062","0.0-2.0-62.1-1.1","63d7b8fd20b4612bc2949c29","A3","batch1","","1032","tol_toboard","","","","tol_peg_2","1032","1032","0","[[1,0,0],[2,0],[3]]","2","[[3,0,0],[2,0],[1]]","17","0","","","","","","5","","","","","","","","",""
"","","","","","single-stim-button","253","701734","0.0-2.0-62.2-0.2","63d7b8fd20b4612bc2949c29","A3","batch1","","672","tol_tohand","","","","tol_peg_1","672","672","0","[[0,0,0],[2,0],[3]]","3","[[3,0,0],[2,0],[1]]","17","0","","","","","","5","","","","","","","","",""
"","","","","","single-stim-button","254","702958","0.0-2.0-62.2-1.2","63d7b8fd20b4612bc2949c29","A3","batch1","","1224","tol_toboard","","","","tol_peg_2","1224","1224","0","[[0,0,0],[2,1],[3]]","3","[[3,0,0],[2,0],[1]]","17","0","","","","","","5","","","","","","","","",""
"","","","","","single-stim-button","255","703502","0.0-2.0-62.3-0.3","63d7b8fd20b4612bc2949c29","A3","batch1","","544","tol_tohand","","","","tol_peg_3","544","544","0","[[0,0,0],[2,1],[0]]","4","[[3,0,0],[2,0],[1]]","17","0","","","","","","5","","","","","","","","",""
"","","","","","single-stim-button","256","704446","0.0-2.0-62.3-1.3","63d7b8fd20b4612bc2949c29","A3","batch1","","943","tol_toboard","","","","tol_peg_1","943","943","0","[[3,0,0],[2,1],[0]]","4","[[3,0,0],[2,0],[1]]","17","0","","","","","","5","","","","","","","","",""
"","","","","","single-stim-button","257","705110","0.0-2.0-62.4-0.4","63d7b8fd20b4612bc2949c29","A3","batch1","","664","tol_tohand","","","","tol_peg_2","664","664","0","[[3,0,0],[2,0],[0]]","5","[[3,0,0],[2,0],[1]]","17","0","","","","","","5","","","","","","","","",""
"","","","","","single-stim-button","258","705686","0.0-2.0-62.4-1.4","63d7b8fd20b4612bc2949c29","A3","batch1","","576","tol_toboard","","","","tol_peg_3","576","576","0","[[3,0,0],[2,0],[1]]","5","[[3,0,0],[2,0],[1]]","17","0","","","","","","5","","","","","","","","",""
"","","","","","poldrack-single-stim","259","706699","0.0-2.0-63.0","63d7b8fd20b4612bc2949c29","A3","batch1","","-1","tol_feedback","","","true","","1000","1000","500","","","","","","-1","none","true","22288","24816","","","","","","","","","",""
"","","","","","html-button-response","260","707574","0.0-2.0-64.0","63d7b8fd20b4612bc2949c29","A3","batch1","","874.3999999999069","tol_trial_num","<div class = centerbox><p class = center-block-text>problem <strong>19</strong> out of 25 problems</p></div>","0","","","","","","","","","","","","","","","","","","","","","","","","",""
"","","","","","single-stim-button","261","723590","0.0-2.0-65.0-0.0","63d7b8fd20b4612bc2949c29","A3","batch1","","16016","tol_tohand","","","","tol_peg_1","16016","16016","0","[[1,0,0],[3,0],[0]]","1","[[0,0,0],[1,2],[3]]","18","0","","","","","","7","","","","","","","","",""
"","","","","","single-stim-button","262","726558","0.0-2.0-65.0-1.0","63d7b8fd20b4612bc2949c29","A3","batch1","","2967","tol_toboard","","","","tol_peg_3","2967","2967","0","[[1,0,0],[3,0],[2]]","1","[[0,0,0],[1,2],[3]]","18","0","","","","","","7","","","","","","","","",""
"","","","","","single-stim-button","263","727510","0.0-2.0-65.1-0.1","63d7b8fd20b4612bc2949c29","A3","batch1","","951","tol_tohand","","","","tol_peg_1","951","951","0","[[0,0,0],[3,0],[2]]","2","[[0,0,0],[1,2],[3]]","18","0","","","","","","7","","","","","","","","",""
"","","","","","single-stim-button","264","727918","0.0-2.0-65.1-1.1","63d7b8fd20b4612bc2949c29","A3","batch1","","408","tol_toboard","","","","tol_peg_2","408","408","0","[[0,0,0],[3,1],[2]]","2","[[0,0,0],[1,2],[3]]","18","0","","","","","","7","","","","","","","","",""
"","","","","","single-stim-button","265","728350","0.0-2.0-65.2-0.2","63d7b8fd20b4612bc2949c29","A3","batch1","","431","tol_tohand","","","","tol_peg_3","431","431","0","[[0,0,0],[3,1],[0]]","3","[[0,0,0],[1,2],[3]]","18","0","","","","","","7","","","","","","","","",""
"","","","","","single-stim-button","266","729606","0.0-2.0-65.2-1.2","63d7b8fd20b4612bc2949c29","A3","batch1","","1255","tol_toboard","","","","tol_peg_1","1255","1255","0","[[2,0,0],[3,1],[0]]","3","[[0,0,0],[1,2],[3]]","18","0","","","","","","7","","","","","","","","",""
"","","","","","single-stim-button","267","730646","0.0-2.0-65.3-0.3","63d7b8fd20b4612bc2949c29","A3","batch1","","1040","tol_tohand","","","","tol_peg_2","1040","1040","0","[[2,0,0],[3,0],[0]]","4","[[0,0,0],[1,2],[3]]","18","0","","","","","","7","","","","","","","","",""
"","","","","","single-stim-button","268","737382","0.0-2.0-65.3-1.3","63d7b8fd20b4612bc2949c29","A3","batch1","","6735","tol_toboard","","","","tol_peg_1","6735","6735","0","[[2,1,0],[3,0],[0]]","4","[[0,0,0],[1,2],[3]]","18","0","","","","","","7","","","","","","","","",""
"","","","","","single-stim-button","269","738030","0.0-2.0-65.4-0.4","63d7b8fd20b4612bc2949c29","A3","batch1","","647","tol_tohand","","","","tol_peg_2","647","647","0","[[2,1,0],[0,0],[0]]","5","[[0,0,0],[1,2],[3]]","18","0","","","","","","7","","","","","","","","",""
"","","","","","single-stim-button","270","739286","0.0-2.0-65.4-1.4","63d7b8fd20b4612bc2949c29","A3","batch1","","1256","tol_toboard","","","","tol_peg_3","1256","1256","0","[[2,1,0],[0,0],[3]]","5","[[0,0,0],[1,2],[3]]","18","0","","","","","","7","","","","","","","","",""
"","","","","","single-stim-button","271","739910","0.0-2.0-65.5-0.5","63d7b8fd20b4612bc2949c29","A3","batch1","","623","tol_tohand","","","","tol_peg_1","623","623","0","[[2,0,0],[0,0],[3]]","6","[[0,0,0],[1,2],[3]]","18","0","","","","","","7","","","","","","","","",""
"","","","","","single-stim-button","272","740366","0.0-2.0-65.5-1.5","63d7b8fd20b4612bc2949c29","A3","batch1","","456","tol_toboard","","","","tol_peg_2","456","456","0","[[2,0,0],[1,0],[3]]","6","[[0,0,0],[1,2],[3]]","18","0","","","","","","7","","","","","","","","",""
"","","","","","single-stim-button","273","740806","0.0-2.0-65.6-0.6","63d7b8fd20b4612bc2949c29","A3","batch1","","439","tol_tohand","","","","tol_peg_1","439","439","0","[[0,0,0],[1,0],[3]]","7","[[0,0,0],[1,2],[3]]","18","0","","","","","","7","","","","","","","","",""
"","","","","","single-stim-button","274","741334","0.0-2.0-65.6-1.6","63d7b8fd20b4612bc2949c29","A3","batch1","","528","tol_toboard","","","","tol_peg_2","528","528","0","[[0,0,0],[1,2],[3]]","7","[[0,0,0],[1,2],[3]]","18","0","","","","","","7","","","","","","","","",""
"","","","","","poldrack-single-stim","275","742336","0.0-2.0-66.0","63d7b8fd20b4612bc2949c29","A3","batch1","","-1","tol_feedback","","","true","","1000","1000","500","","","","","","-1","none","true","16016","20147","","","","","","","","","",""
"","","","","","html-button-response","276","743126","0.0-2.0-67.0","63d7b8fd20b4612bc2949c29","A3","batch1","","790.2999999998137","tol_trial_num","<div class = centerbox><p class = center-block-text>problem <strong>20</strong> out of 25 problems</p></div>","0","","","","","","","","","","","","","","","","","","","","","","","","",""
"","","","","","single-stim-button","277","756166","0.0-2.0-68.0-0.0","63d7b8fd20b4612bc2949c29","A3","batch1","","13039","tol_tohand","","","","tol_peg_1","13039","13039","0","[[1,0,0],[3,0],[0]]","1","[[2,1,0],[0,0],[3]]","19","0","","","","","","5","","","","","","","","",""
"","","","","","single-stim-button","278","758311","0.0-2.0-68.0-1.0","63d7b8fd20b4612bc2949c29","A3","batch1","","2143","tol_toboard","","","","tol_peg_2","2143","2143","0","[[1,0,0],[3,2],[0]]","1","[[2,1,0],[0,0],[3]]","19","0","","","","","","5","","","","","","","","",""
"","","","","","single-stim-button","279","758734","0.0-2.0-68.1-0.1","63d7b8fd20b4612bc2949c29","A3","batch1","","423","tol_tohand","","","","tol_peg_1","423","423","0","[[0,0,0],[3,2],[0]]","2","[[2,1,0],[0,0],[3]]","19","0","","","","","","5","","","","","","","","",""
"","","","","","single-stim-button","280","759422","0.0-2.0-68.1-1.1","63d7b8fd20b4612bc2949c29","A3","batch1","","687","tol_toboard","","","","tol_peg_3","687","687","0","[[0,0,0],[3,2],[1]]","2","[[2,1,0],[0,0],[3]]","19","0","","","","","","5","","","","","","","","",""
"","","","","","single-stim-button","281","759886","0.0-2.0-68.2-0.2","63d7b8fd20b4612bc2949c29","A3","batch1","","463","tol_tohand","","","","tol_peg_2","463","463","0","[[0,0,0],[3,0],[1]]","3","[[2,1,0],[0,0],[3]]","19","0","","","","","","5","","","","","","","","",""
"","","","","","single-stim-button","282","760534","0.0-2.0-68.2-1.2","63d7b8fd20b4612bc2949c29","A3","batch1","","647","tol_toboard","","","","tol_peg_1","647","647","0","[[2,0,0],[3,0],[1]]","3","[[2,1,0],[0,0],[3]]","19","0","","","","","","5","","","","","","","","",""
"","","","","","single-stim-button","283","761278","0.0-2.0-68.3-0.3","63d7b8fd20b4612bc2949c29","A3","batch1","","743","tol_tohand","","","","tol_peg_3","743","743","0","[[2,0,0],[3,0],[0]]","4","[[2,1,0],[0,0],[3]]","19","0","","","","","","5","","","","","","","","",""
"","","","","","single-stim-button","284","761950","0.0-2.0-68.3-1.3","63d7b8fd20b4612bc2949c29","A3","batch1","","671","tol_toboard","","","","tol_peg_1","671","671","0","[[2,1,0],[3,0],[0]]","4","[[2,1,0],[0,0],[3]]","19","0","","","","","","5","","","","","","","","",""
"","","","","","single-stim-button","285","762639","0.0-2.0-68.4-0.4","63d7b8fd20b4612bc2949c29","A3","batch1","","687","tol_tohand","","","","tol_peg_2","687","687","0","[[2,1,0],[0,0],[0]]","5","[[2,1,0],[0,0],[3]]","19","0","","","","","","5","","","","","","","","",""
"","","","","","single-stim-button","286","763270","0.0-2.0-68.4-1.4","63d7b8fd20b4612bc2949c29","A3","batch1","","631","tol_toboard","","","","tol_peg_3","631","631","0","[[2,1,0],[0,0],[3]]","5","[[2,1,0],[0,0],[3]]","19","0","","","","","","5","","","","","","","","",""
"","","","","","poldrack-single-stim","287","764272","0.0-2.0-69.0","63d7b8fd20b4612bc2949c29","A3","batch1","","-1","tol_feedback","","","true","","1000","1000","500","","","","","","-1","none","true","13039","15355","","","","","","","","","",""
"","","","","","html-button-response","288","764966","0.0-2.0-70.0","63d7b8fd20b4612bc2949c29","A3","batch1","","694.2000000001863","tol_trial_num","<div class = centerbox><p class = center-block-text>problem <strong>21</strong> out of 25 problems</p></div>","0","","","","","","","","","","","","","","","","","","","","","","","","",""
"","","","","","single-stim-button","289","790327","0.0-2.0-71.0-0.0","63d7b8fd20b4612bc2949c29","A3","batch1","","25359","tol_tohand","","","","tol_peg_2","25359","25359","0","[[1,2,0],[0,0],[0]]","1","[[3,2,0],[0,0],[1]]","20","0","","","","","","6","","","","","","","","",""
"","","","","","single-stim-button","290","791543","0.0-2.0-71.0-1.0","63d7b8fd20b4612bc2949c29","A3","batch1","","1215","tol_toboard","","","","tol_peg_3","1215","1215","0","[[1,2,0],[0,0],[3]]","1","[[3,2,0],[0,0],[1]]","20","0","","","","","","6","","","","","","","","",""
"","","","","","single-stim-button","291","792007","0.0-2.0-71.1-0.1","63d7b8fd20b4612bc2949c29","A3","batch1","","464","tol_tohand","","","","tol_peg_1","464","464","0","[[1,0,0],[0,0],[3]]","2","[[3,2,0],[0,0],[1]]","20","0","","","","","","6","","","","","","","","",""
"","","","","","single-stim-button","292","792599","0.0-2.0-71.1-1.1","63d7b8fd20b4612bc2949c29","A3","batch1","","592","tol_toboard","","","","tol_peg_2","592","592","0","[[1,0,0],[2,0],[3]]","2","[[3,2,0],[0,0],[1]]","20","0","","","","","","6","","","","","","","","",""
"","","","","","single-stim-button","293","793759","0.0-2.0-71.2-0.2","63d7b8fd20b4612bc2949c29","A3","batch1","","1160","tol_tohand","","","","tol_peg_1","1160","1160","0","[[0,0,0],[2,0],[3]]","3","[[3,2,0],[0,0],[1]]","20","0","","","","","","6","","","","","","","","",""
"","","","","","single-stim-button","294","794407","0.0-2.0-71.2-1.2","63d7b8fd20b4612bc2949c29","A3","batch1","","647","tol_toboard","","","","tol_peg_2","647","647","0","[[0,0,0],[2,1],[3]]","3","[[3,2,0],[0,0],[1]]","20","0","","","","","","6","","","","","","","","",""
"","","","","","single-stim-button","295","794943","0.0-2.0-71.3-0.3","63d7b8fd20b4612bc2949c29","A3","batch1","","535","tol_tohand","","","","tol_peg_3","535","535","0","[[0,0,0],[2,1],[0]]","4","[[3,2,0],[0,0],[1]]","20","0","","","","","","6","","","","","","","","",""
"","","","","","single-stim-button","296","795599","0.0-2.0-71.3-1.3","63d7b8fd20b4612bc2949c29","A3","batch1","","656","tol_toboard","","","","tol_peg_1","656","656","0","[[3,0,0],[2,1],[0]]","4","[[3,2,0],[0,0],[1]]","20","0","","","","","","6","","","","","","","","",""
"","","","","","single-stim-button","297","796983","0.0-2.0-71.4-0.4","63d7b8fd20b4612bc2949c29","A3","batch1","","1384","tol_tohand","","","","tol_peg_2","1384","1384","0","[[3,0,0],[2,0],[0]]","5","[[3,2,0],[0,0],[1]]","20","0","","","","","","6","","","","","","","","",""
"","","","","","single-stim-button","298","797503","0.0-2.0-71.4-1.4","63d7b8fd20b4612bc2949c29","A3","batch1","","520","tol_toboard","","","","tol_peg_3","520","520","0","[[3,0,0],[2,0],[1]]","5","[[3,2,0],[0,0],[1]]","20","0","","","","","","6","","","","","","","","",""
"","","","","","single-stim-button","299","798087","0.0-2.0-71.5-0.5","63d7b8fd20b4612bc2949c29","A3","batch1","","584","tol_tohand","","","","tol_peg_2","584","584","0","[[3,0,0],[0,0],[1]]","6","[[3,2,0],[0,0],[1]]","20","0","","","","","","6","","","","","","","","",""
"","","","","","single-stim-button","300","798791","0.0-2.0-71.5-1.5","63d7b8fd20b4612bc2949c29","A3","batch1","","704","tol_toboard","","","","tol_peg_1","704","704","0","[[3,2,0],[0,0],[1]]","6","[[3,2,0],[0,0],[1]]","20","0","","","","","","6","","","","","","","","",""
"","","","","","poldrack-single-stim","301","799792","0.0-2.0-72.0","63d7b8fd20b4612bc2949c29","A3","batch1","","-1","tol_feedback","","","true","","1000","1000","500","","","","","","-1","none","true","25359","29486","","","","","","","","","",""
"","","","","","html-button-response","302","800375","0.0-2.0-73.0","63d7b8fd20b4612bc2949c29","A3","batch1","","582.2000000001863","tol_trial_num","<div class = centerbox><p class = center-block-text>problem <strong>22</strong> out of 25 problems</p></div>","0","","","","","","","","","","","","","","","","","","","","","","","","",""
"","","","","","single-stim-button","303","829943","0.0-2.0-74.0-0.0","63d7b8fd20b4612bc2949c29","A3","batch1","","29568","tol_tohand","","","","tol_peg_2","29568","29568","0","[[1,0,0],[2,0],[0]]","1","[[0,0,0],[1,2],[3]]","21","0","","","","","","6","","","","","","","","",""
"","","","","","single-stim-button","304","830551","0.0-2.0-74.0-1.0","63d7b8fd20b4612bc2949c29","A3","batch1","","608","tol_toboard","","","","tol_peg_1","608","608","0","[[1,3,0],[2,0],[0]]","1","[[0,0,0],[1,2],[3]]","21","0","","","","","","6","","","","","","","","",""
"","","","","","single-stim-button","305","831071","0.0-2.0-74.1-0.1","63d7b8fd20b4612bc2949c29","A3","batch1","","520","tol_tohand","","","","tol_peg_2","520","520","0","[[1,3,0],[0,0],[0]]","2","[[0,0,0],[1,2],[3]]","21","0","","","","","","6","","","","","","","","",""
"","","","","","single-stim-button","306","849375","0.0-2.0-74.1-1.1","63d7b8fd20b4612bc2949c29","A3","batch1","","18304","tol_toboard","","","","tol_peg_3","18304","18304","0","[[1,3,0],[0,0],[2]]","2","[[0,0,0],[1,2],[3]]","21","0","","","","","","6","","","","","","","","",""
"","","","","","single-stim-button","307","851519","0.0-2.0-74.2-0.2","63d7b8fd20b4612bc2949c29","A3","batch1","","2144","tol_tohand","","","","tol_peg_1","2144","2144","0","[[1,0,0],[0,0],[2]]","3","[[0,0,0],[1,2],[3]]","21","0","","","","","","6","","","","","","","","",""
"","","","","","single-stim-button","308","852815","0.0-2.0-74.2-1.2","63d7b8fd20b4612bc2949c29","A3","batch1","","1296","tol_toboard","","","","tol_peg_2","1296","1296","0","[[1,0,0],[3,0],[2]]","3","[[0,0,0],[1,2],[3]]","21","0","","","","","","6","","","","","","","","",""
"","","","","","single-stim-button","309","855119","0.0-2.0-74.3-0.3","63d7b8fd20b4612bc2949c29","A3","batch1","","2303","tol_tohand","","","","tol_peg_3","2303","2303","0","[[1,0,0],[3,0],[0]]","4","[[0,0,0],[1,2],[3]]","21","0","","","","","","6","","","","","","","","",""
"","","","","","single-stim-button","310","862695","0.0-2.0-74.3-1.3","63d7b8fd20b4612bc2949c29","A3","batch1","","7576","tol_toboard","","","","tol_peg_2","7576","7576","0","[[1,0,0],[3,2],[0]]","4","[[0,0,0],[1,2],[3]]","21","0","","","","","","6","","","","","","","","",""
"","","","","","single-stim-button","311","863119","0.0-2.0-74.4-0.4","63d7b8fd20b4612bc2949c29","A3","batch1","","423","tol_tohand","","","","tol_peg_1","423","423","0","[[0,0,0],[3,2],[0]]","5","[[0,0,0],[1,2],[3]]","21","0","","","","","","6","","","","","","","","",""
"","","","","","single-stim-button","312","863687","0.0-2.0-74.4-1.4","63d7b8fd20b4612bc2949c29","A3","batch1","","567","tol_toboard","","","","tol_peg_3","567","567","0","[[0,0,0],[3,2],[1]]","5","[[0,0,0],[1,2],[3]]","21","0","","","","","","6","","","","","","","","",""
"","","","","","single-stim-button","313","866391","0.0-2.0-74.5-0.5","63d7b8fd20b4612bc2949c29","A3","batch1","","2704","tol_tohand","","","","tol_peg_2","2704","2704","0","[[0,0,0],[3,0],[1]]","6","[[0,0,0],[1,2],[3]]","21","0","","","","","","6","","","","","","","","",""
"","","","","","single-stim-button","314","867071","0.0-2.0-74.5-1.5","63d7b8fd20b4612bc2949c29","A3","batch1","","680","tol_toboard","","","","tol_peg_1","680","680","0","[[2,0,0],[3,0],[1]]","6","[[0,0,0],[1,2],[3]]","21","0","","","","","","6","","","","","","","","",""
"","","","","","single-stim-button","315","871591","0.0-2.0-74.6-0.6","63d7b8fd20b4612bc2949c29","A3","batch1","","4520","tol_tohand","","","","tol_peg_3","4520","4520","0","[[2,0,0],[3,0],[0]]","7","[[0,0,0],[1,2],[3]]","21","0","","","","","","6","","","","","","","","",""
"","","","","","single-stim-button","316","872567","0.0-2.0-74.6-1.6","63d7b8fd20b4612bc2949c29","A3","batch1","","976","tol_toboard","","","","tol_peg_1","976","976","0","[[2,1,0],[3,0],[0]]","7","[[0,0,0],[1,2],[3]]","21","0","","","","","","6","","","","","","","","",""
"","","","","","single-stim-button","317","873023","0.0-2.0-74.7-0.7","63d7b8fd20b4612bc2949c29","A3","batch1","","456","tol_tohand","","","","tol_peg_2","456","456","0","[[2,1,0],[0,0],[0]]","8","[[0,0,0],[1,2],[3]]","21","0","","","","","","6","","","","","","","","",""
"","","","","","single-stim-button","318","873559","0.0-2.0-74.7-1.7","63d7b8fd20b4612bc2949c29","A3","batch1","","536","tol_toboard","","","","tol_peg_3","536","536","0","[[2,1,0],[0,0],[3]]","8","[[0,0,0],[1,2],[3]]","21","0","","","","","","6","","","","","","","","",""
"","","","","","single-stim-button","319","874239","0.0-2.0-74.8-0.8","63d7b8fd20b4612bc2949c29","A3","batch1","","680","tol_tohand","","","","tol_peg_1","680","680","0","[[2,0,0],[0,0],[3]]","9","[[0,0,0],[1,2],[3]]","21","0","","","","","","6","","","","","","","","",""
"","","","","","single-stim-button","320","875119","0.0-2.0-74.8-1.8","63d7b8fd20b4612bc2949c29","A3","batch1","","880","tol_toboard","","","","tol_peg_2","880","880","0","[[2,0,0],[1,0],[3]]","9","[[0,0,0],[1,2],[3]]","21","0","","","","","","6","","","","","","","","",""
"","","","","","single-stim-button","321","875535","0.0-2.0-74.9-0.9","63d7b8fd20b4612bc2949c29","A3","batch1","","416","tol_tohand","","","","tol_peg_1","416","416","0","[[0,0,0],[1,0],[3]]","10","[[0,0,0],[1,2],[3]]","21","0","","","","","","6","","","","","","","","",""
"","","","","","single-stim-button","322","875919","0.0-2.0-74.9-1.9","63d7b8fd20b4612bc2949c29","A3","batch1","","384","tol_toboard","","","","tol_peg_2","384","384","0","[[0,0,0],[1,2],[3]]","10","[[0,0,0],[1,2],[3]]","21","0","","","","","","6","","","","","","","","",""
"","","","","","poldrack-single-stim","323","876933","0.0-2.0-75.0","63d7b8fd20b4612bc2949c29","A3","batch1","","-1","tol_feedback","","","true","","1000","1000","500","","","","","","-1","none","true","29568","43734","","","","","","","","","",""
"","","","","","html-button-response","324","877695","0.0-2.0-76.0","63d7b8fd20b4612bc2949c29","A3","batch1","","761.5","tol_trial_num","<div class = centerbox><p class = center-block-text>problem <strong>23</strong> out of 25 problems</p></div>","0","","","","","","","","","","","","","","","","","","","","","","","","",""
"","","","","","single-stim-button","325","883151","0.0-2.0-77.0-0.0","63d7b8fd20b4612bc2949c29","A3","batch1","","5456","tol_tohand","","","","tol_peg_1","5456","5456","0","[[1,0,0],[3,0],[0]]","1","[[1,3,2],[0,0],[0]]","22","0","","","","","","3","","","","","","","","",""
"","","","","","single-stim-button","326","883591","0.0-2.0-77.0-1.0","63d7b8fd20b4612bc2949c29","A3","batch1","","440","tol_toboard","","","","tol_peg_3","440","440","0","[[1,0,0],[3,0],[2]]","1","[[1,3,2],[0,0],[0]]","22","0","","","","","","3","","","","","","","","",""
"","","","","","single-stim-button","327","884127","0.0-2.0-77.1-0.1","63d7b8fd20b4612bc2949c29","A3","batch1","","536","tol_tohand","","","","tol_peg_2","536","536","0","[[1,0,0],[0,0],[2]]","2","[[1,3,2],[0,0],[0]]","22","0","","","","","","3","","","","","","","","",""
"","","","","","single-stim-button","328","884727","0.0-2.0-77.1-1.1","63d7b8fd20b4612bc2949c29","A3","batch1","","600","tol_toboard","","","","tol_peg_1","600","600","0","[[1,3,0],[0,0],[2]]","2","[[1,3,2],[0,0],[0]]","22","0","","","","","","3","","","","","","","","",""
"","","","","","single-stim-button","329","885391","0.0-2.0-77.2-0.2","63d7b8fd20b4612bc2949c29","A3","batch1","","664","tol_tohand","","","","tol_peg_3","664","664","0","[[1,3,0],[0,0],[0]]","3","[[1,3,2],[0,0],[0]]","22","0","","","","","","3","","","","","","","","",""
"","","","","","single-stim-button","330","885919","0.0-2.0-77.2-1.2","63d7b8fd20b4612bc2949c29","A3","batch1","","528","tol_toboard","","","","tol_peg_1","528","528","0","[[1,3,2],[0,0],[0]]","3","[[1,3,2],[0,0],[0]]","22","0","","","","","","3","","","","","","","","",""
"","","","","","poldrack-single-stim","331","886920","0.0-2.0-78.0","63d7b8fd20b4612bc2949c29","A3","batch1","","-1","tol_feedback","","","true","","1000","1000","500","","","","","","-1","none","true","5456","6656","","","","","","","","","",""
"","","","","","html-button-response","332","887511","0.0-2.0-79.0","63d7b8fd20b4612bc2949c29","A3","batch1","","590.7000000001863","tol_trial_num","<div class = centerbox><p class = center-block-text>problem <strong>24</strong> out of 25 problems</p></div>","0","","","","","","","","","","","","","","","","","","","","","","","","",""
"","","","","","single-stim-button","333","903887","0.0-2.0-80.0-0.0","63d7b8fd20b4612bc2949c29","A3","batch1","","16376","tol_tohand","","","","tol_peg_3","16376","16376","0","[[0,0,0],[2,3],[0]]","1","[[2,0,0],[3,0],[1]]","23","0","","","","","","7","","","","","","","","",""
"","","","","","single-stim-button","334","904607","0.0-2.0-80.0-1.0","63d7b8fd20b4612bc2949c29","A3","batch1","","720","tol_toboard","","","","tol_peg_1","720","720","0","[[1,0,0],[2,3],[0]]","1","[[2,0,0],[3,0],[1]]","23","0","","","","","","7","","","","","","","","",""
"","","","","","single-stim-button","335","905247","0.0-2.0-80.1-0.1","63d7b8fd20b4612bc2949c29","A3","batch1","","640","tol_tohand","","","","tol_peg_2","640","640","0","[[1,0,0],[2,0],[0]]","2","[[2,0,0],[3,0],[1]]","23","0","","","","","","7","","","","","","","","",""
"","","","","","single-stim-button","336","907087","0.0-2.0-80.1-1.1","63d7b8fd20b4612bc2949c29","A3","batch1","","1840","tol_toboard","","","","tol_peg_3","1840","1840","0","[[1,0,0],[2,0],[3]]","2","[[2,0,0],[3,0],[1]]","23","0","","","","","","7","","","","","","","","",""
"","","","","","single-stim-button","337","907487","0.0-2.0-80.2-0.2","63d7b8fd20b4612bc2949c29","A3","batch1","","400","tol_tohand","","","","tol_peg_2","400","400","0","[[1,0,0],[0,0],[3]]","3","[[2,0,0],[3,0],[1]]","23","0","","","","","","7","","","","","","","","",""
"","","","","","single-stim-button","338","910527","0.0-2.0-80.2-1.2","63d7b8fd20b4612bc2949c29","A3","batch1","","3040","tol_toboard","","","","tol_peg_1","3040","3040","0","[[1,2,0],[0,0],[3]]","3","[[2,0,0],[3,0],[1]]","23","0","","","","","","7","","","","","","","","",""
"","","","","","single-stim-button","339","911127","0.0-2.0-80.3-0.3","63d7b8fd20b4612bc2949c29","A3","batch1","","600","tol_tohand","","","","tol_peg_3","600","600","0","[[1,2,0],[0,0],[0]]","4","[[2,0,0],[3,0],[1]]","23","0","","","","","","7","","","","","","","","",""
"","","","","","single-stim-button","340","911791","0.0-2.0-80.3-1.3","63d7b8fd20b4612bc2949c29","A3","batch1","","664","tol_toboard","","","","tol_peg_2","664","664","0","[[1,2,0],[3,0],[0]]","4","[[2,0,0],[3,0],[1]]","23","0","","","","","","7","","","","","","","","",""
"","","","","","single-stim-button","341","913535","0.0-2.0-80.4-0.4","63d7b8fd20b4612bc2949c29","A3","batch1","","1743","tol_tohand","","","","tol_peg_1","1743","1743","0","[[1,0,0],[3,0],[0]]","5","[[2,0,0],[3,0],[1]]","23","0","","","","","","7","","","","","","","","",""
"","","","","","single-stim-button","342","914120","0.0-2.0-80.4-1.4","63d7b8fd20b4612bc2949c29","A3","batch1","","583","tol_toboard","","","","tol_peg_2","583","583","0","[[1,0,0],[3,2],[0]]","5","[[2,0,0],[3,0],[1]]","23","0","","","","","","7","","","","","","","","",""
"","","","","","single-stim-button","343","914536","0.0-2.0-80.5-0.5","63d7b8fd20b4612bc2949c29","A3","batch1","","415","tol_tohand","","","","tol_peg_1","415","415","0","[[0,0,0],[3,2],[0]]","6","[[2,0,0],[3,0],[1]]","23","0","","","","","","7","","","","","","","","",""
"","","","","","single-stim-button","344","915167","0.0-2.0-80.5-1.5","63d7b8fd20b4612bc2949c29","A3","batch1","","631","tol_toboard","","","","tol_peg_3","631","631","0","[[0,0,0],[3,2],[1]]","6","[[2,0,0],[3,0],[1]]","23","0","","","","","","7","","","","","","","","",""
"","","","","","single-stim-button","345","915855","0.0-2.0-80.6-0.6","63d7b8fd20b4612bc2949c29","A3","batch1","","687","tol_tohand","","","","tol_peg_2","687","687","0","[[0,0,0],[3,0],[1]]","7","[[2,0,0],[3,0],[1]]","23","0","","","","","","7","","","","","","","","",""
"","","","","","single-stim-button","346","916343","0.0-2.0-80.6-1.6","63d7b8fd20b4612bc2949c29","A3","batch1","","487","tol_toboard","","","","tol_peg_1","487","487","0","[[2,0,0],[3,0],[1]]","7","[[2,0,0],[3,0],[1]]","23","0","","","","","","7","","","","","","","","",""
"","","","","","poldrack-single-stim","347","917351","0.0-2.0-81.0","63d7b8fd20b4612bc2949c29","A3","batch1","","-1","tol_feedback","","","true","","1000","1000","500","","","","","","-1","none","true","16376","20861","","","","","","","","","",""
"","","","","","html-button-response","348","918151","0.0-2.0-82.0","63d7b8fd20b4612bc2949c29","A3","batch1","","800","tol_trial_num","<div class = centerbox><p class = center-block-text>problem <strong>25</strong> out of 25 problems</p></div>","0","","","","","","","","","","","","","","","","","","","","","","","","",""
"","","","","","single-stim-button","349","932519","0.0-2.0-83.0-0.0","63d7b8fd20b4612bc2949c29","A3","batch1","","14367","tol_tohand","","","","tol_peg_2","14367","14367","0","[[1,2,0],[0,0],[0]]","1","[[3,0,0],[1,0],[2]]","24","0","","","","","","7","","","","","","","","",""
"","","","","","single-stim-button","350","933736","0.0-2.0-83.0-1.0","63d7b8fd20b4612bc2949c29","A3","batch1","","1215","tol_toboard","","","","tol_peg_3","1215","1215","0","[[1,2,0],[0,0],[3]]","1","[[3,0,0],[1,0],[2]]","24","0","","","","","","7","","","","","","","","",""
"","","","","","single-stim-button","351","934808","0.0-2.0-83.1-0.1","63d7b8fd20b4612bc2949c29","A3","batch1","","1071","tol_tohand","","","","tol_peg_1","1071","1071","0","[[1,0,0],[0,0],[3]]","2","[[3,0,0],[1,0],[2]]","24","0","","","","","","7","","","","","","","","",""
"","","","","","single-stim-button","352","935456","0.0-2.0-83.1-1.1","63d7b8fd20b4612bc2949c29","A3","batch1","","647","tol_toboard","","","","tol_peg_2","647","647","0","[[1,0,0],[2,0],[3]]","2","[[3,0,0],[1,0],[2]]","24","0","","","","","","7","","","","","","","","",""
"","","","","","single-stim-button","353","937608","0.0-2.0-83.2-0.2","63d7b8fd20b4612bc2949c29","A3","batch1","","2151","tol_tohand","","","","tol_peg_1","2151","2151","0","[[0,0,0],[2,0],[3]]","3","[[3,0,0],[1,0],[2]]","24","0","","","","","","7","","","","","","","","",""
"","","","","","single-stim-button","354","938160","0.0-2.0-83.2-1.2","63d7b8fd20b4612bc2949c29","A3","batch1","","551","tol_toboard","","","","tol_peg_2","551","551","0","[[0,0,0],[2,1],[3]]","3","[[3,0,0],[1,0],[2]]","24","0","","","","","","7","","","","","","","","",""
"","","","","","single-stim-button","355","939248","0.0-2.0-83.3-0.3","63d7b8fd20b4612bc2949c29","A3","batch1","","1087","tol_tohand","","","","tol_peg_3","1087","1087","0","[[0,0,0],[2,1],[0]]","4","[[3,0,0],[1,0],[2]]","24","0","","","","","","7","","","","","","","","",""
