"success","timeout","failed_images","failed_audio","failed_video","trial_type","trial_index","time_elapsed","internal_node_id","subject_id","study_id","session_id","view_history","rt","stimulus","response","task","correct","answer","item","fiar_detect_rt","fiar_detect_correct","total_correct_fiar_detect","post_trial_gap","choices","spm_correct","spm_rt","mouse_click","stim_duration","block_duration","timing_post_trial","current_position","tol_num_moves_made","tol_target","tol_problem_id","tol_rt","key_press","possible_responses","tol_correct","preplanning","tol_rt_per_trial","tol_min_moves"
"true","false","[]","[]","[]","preload","0","10400","0.0-0.0","63d83eafdd418ada3528719e","B2","batch2","","","","","","","","","","","","","","","","","","","","","","","","","","","","","",""
"true","","","","","fullscreen","1","28074","0.0-1.0-0.0","63d83eafdd418ada3528719e","B2","batch2","","","","","","","","","","","","","","","","","","","","","","","","","","","","","",""
"true","","","","","fullscreen","2","31904","0.0-2.0-0.0","63d83eafdd418ada3528719e","B2","batch2","","","","","","","","","","","","","","","","","","","","","","","","","","","","","",""
"","","","","","instructions","3","48484","0.0-2.0-1.0-0.0","63d83eafdd418ada3528719e","B2","batch2","[{""page_index"":0,""viewing_time"":10071.40000000596},{""page_index"":1,""viewing_time"":6507.0999999940395}]","16578.80000001192","","","","","","","","","","","","","","","","","","","","","","","","","","","",""
"","","","","","html-button-response","4","50338","0.0-2.0-1.0-1.0-0.0","63d83eafdd418ada3528719e","B2","batch2","","1853.7000000178814","<p class=block-text> Let's answer a few questions <br>","0","pattern_enter_quiz","","","","","","","","","","","","","","","","","","","","","","","","",""
"","","","","","html-button-response","5","54501","0.0-2.0-1.0-1.0-1.0","63d83eafdd418ada3528719e","B2","batch2","","4161.9000000059605","<p class = block-text>True or False: You will have as much time as you want to make each choice. <br></p>","1","pattern_quiz","true","","","","","","","","","","","","","","","","","","","","","","","",""
"","","","","","html-button-response","6","55854","0.0-2.0-1.0-1.0-2.0","63d83eafdd418ada3528719e","B2","batch2","","1351.7999999821186","<p class = block-text>Correct! You should make your choice <strong> as fast as you can</strong>.</p>","0","pattern_quiz_feedback","","","","","","","","","","","","","","","","","","","","","","","","",""
"","","","","","html-button-response","7","58288","0.0-2.0-1.0-1.0-3.0","63d83eafdd418ada3528719e","B2","batch2","","2432","<p class = block-text>True or False: You will look for 4 pieces in black or white color connected in a row either horizontally, vertically or diagonally. <br></p>","0","pattern_quiz","true","","","","","","","","","","","","","","","","","","","","","","","",""
"","","","","","html-button-response","8","59448","0.0-2.0-1.0-1.0-4.0","63d83eafdd418ada3528719e","B2","batch2","","1159.5999999940395","<p class = block-text>Correct! </p>","0","pattern_quiz_feedback","","","","","","","","","","","","","","","","","","","","","","","","",""
"","","","","","html-button-response","9","61565","0.0-2.0-2.0","63d83eafdd418ada3528719e","B2","batch2","","2114.9000000059605","<p class=block-text> Now that you've understood the game, let's do a few practice trials before we start!<br> <br>","0","pattern_enter_practice","","","","","","","","","","","","","","","","","","","","","","","","",""
"","","","","","image-keyboard-response","10","64210","0.0-2.0-3.0-0.0","63d83eafdd418ada3528719e","B2","batch2","","2635.199999988079","stim/prac_yes_20_dia_b1.png","f","pattern_practice","true","f","","","","","","","","","","","","","","","","","","","","","","",""
"","","","","","html-keyboard-response","11","65229","0.0-2.0-3.0-1.0","63d83eafdd418ada3528719e","B2","batch2","","null","<p style=""font-size:30px;color:green;"">Correct!</p>","null","pattern_feedback","","","","","","","","","","","","","","","","","","","","","","","","",""
"","","","","","image-keyboard-response","12","66434","0.0-2.0-3.0-0.1","63d83eafdd418ada3528719e","B2","batch2","","1203.0999999940395","stim/prac_yes_16_ver_w1.png","f","pattern_practice","true","f","","","","","","","","","","","","","","","","","","","","","","",""
"","","","","","html-keyboard-response","13","67458","0.0-2.0-3.0-1.1","63d83eafdd418ada3528719e","B2","batch2","","null","<p style=""font-size:30px;color:green;"">Correct!</p>","null","pattern_feedback","","","","","","","","","","","","","","","","","","","","","","","","",""
"","","","","","image-keyboard-response","14","68366","0.0-2.0-3.0-0.2","63d83eafdd418ada3528719e","B2","batch2","","906","stim/prac_no_16_1.png","j","pattern_practice","true","j","","","","","","","","","","","","","","","","","","","","","","",""
"","","","","","html-keyboard-response","15","69386","0.0-2.0-3.0-1.2","63d83eafdd418ada3528719e","B2","batch2","","null","<p style=""font-size:30px;color:green;"">Correct!</p>","null","pattern_feedback","","","","","","","","","","","","","","","","","","","","","","","","",""
"","","","","","image-keyboard-response","16","70368","0.0-2.0-3.0-0.3","63d83eafdd418ada3528719e","B2","batch2","","979.6999999880791","stim/prac_no_18_1.png","j","pattern_practice","true","j","","","","","","","","","","","","","","","","","","","","","","",""
"","","","","","html-keyboard-response","17","71392","0.0-2.0-3.0-1.3","63d83eafdd418ada3528719e","B2","batch2","","null","<p style=""font-size:30px;color:green;"">Correct!</p>","null","pattern_feedback","","","","","","","","","","","","","","","","","","","","","","","","",""
"","","","","","image-keyboard-response","18","71942","0.0-2.0-3.0-0.4","63d83eafdd418ada3528719e","B2","batch2","","548","stim/prac_yes_18_hor_w1.png","f","pattern_practice","true","f","","","","","","","","","","","","","","","","","","","","","","",""
"","","","","","html-keyboard-response","19","72961","0.0-2.0-3.0-1.4","63d83eafdd418ada3528719e","B2","batch2","","null","<p style=""font-size:30px;color:green;"">Correct!</p>","null","pattern_feedback","","","","","","","","","","","","","","","","","","","","","","","","",""
"","","","","","html-button-response","20","76872","0.0-2.0-4.0","63d83eafdd418ada3528719e","B2","batch2","","3909.2999999821186","<p class=block-text> Good job! You are done with practice trials!<br>
        You responded correctly on 100% of the trials.<br>
        Press the button below to start official trials. Now you won't see any feedback about your response</p>","0","pattern_enter_official_trials","","","","","","","","","","","","","","","","","","","","","","","","",""
"","","","","","html-keyboard-response","21","77674","0.0-2.0-5.0-0.0","63d83eafdd418ada3528719e","B2","batch2","","null","<p class=block-text>Trial 1 out of 78</p>","null","pattern_show_trial_num","","","","","","","","","","","","","","","","","","","","","","","","",""
"","","","","","image-keyboard-response","22","79091","0.0-2.0-5.0-1.0","63d83eafdd418ada3528719e","B2","batch2","","1415.5999999940395","stim/yes_49_hor_w1_b.png","f","pattern_response","true","f","pattern_70","1415.5999999940395","true","1","","","","","","","","","","","","","","","","","","",""
"","","","","","html-keyboard-response","23","80407","0.0-2.0-5.0-0.1","63d83eafdd418ada3528719e","B2","batch2","","null","<p class=block-text>Trial 2 out of 78</p>","null","pattern_show_trial_num","","","","","","","","","","","","","","","","","","","","","","","","",""
"","","","","","image-keyboard-response","24","82027","0.0-2.0-5.0-1.1","63d83eafdd418ada3528719e","B2","batch2","","1618.699999988079","stim/no_58_1_w.png","j","pattern_response","true","j","pattern_35","1618.699999988079","true","2","","","","","","","","","","","","","","","","","","",""
"","","","","","html-keyboard-response","25","83347","0.0-2.0-5.0-0.2","63d83eafdd418ada3528719e","B2","batch2","","null","<p class=block-text>Trial 3 out of 78</p>","null","pattern_show_trial_num","","","","","","","","","","","","","","","","","","","","","","","","",""
"","","","","","image-keyboard-response","26","84793","0.0-2.0-5.0-1.2","63d83eafdd418ada3528719e","B2","batch2","","1444.5999999940395","stim/no_36_1_b.png","j","pattern_response","true","j","pattern_17","1444.5999999940395","true","3","","","","","","","","","","","","","","","","","","",""
"","","","","","html-keyboard-response","27","86109","0.0-2.0-5.0-0.3","63d83eafdd418ada3528719e","B2","batch2","","null","<p class=block-text>Trial 4 out of 78</p>","null","pattern_show_trial_num","","","","","","","","","","","","","","","","","","","","","","","","",""
"","","","","","image-keyboard-response","28","87652","0.0-2.0-5.0-1.3","63d83eafdd418ada3528719e","B2","batch2","","1541.699999988079","stim/no_15_1_w.png","f","pattern_response","false","j","pattern_03","1541.699999988079","false","3","","","","","","","","","","","","","","","","","","",""
"","","","","","html-keyboard-response","29","88964","0.0-2.0-5.0-0.4","63d83eafdd418ada3528719e","B2","batch2","","null","<p class=block-text>Trial 5 out of 78</p>","null","pattern_show_trial_num","","","","","","","","","","","","","","","","","","","","","","","","",""
"","","","","","image-keyboard-response","30","91300","0.0-2.0-5.0-1.4","63d83eafdd418ada3528719e","B2","batch2","","2333.899999976158","stim/no_33_1_b.png","j","pattern_response","true","j","pattern_15","2333.899999976158","true","4","","","","","","","","","","","","","","","","","","",""
"","","","","","html-keyboard-response","31","92609","0.0-2.0-5.0-0.5","63d83eafdd418ada3528719e","B2","batch2","","null","<p class=block-text>Trial 6 out of 78</p>","null","pattern_show_trial_num","","","","","","","","","","","","","","","","","","","","","","","","",""
"","","","","","image-keyboard-response","32","93650","0.0-2.0-5.0-1.5","63d83eafdd418ada3528719e","B2","batch2","","1039.300000011921","stim/yes_30_ver_b1_b.png","f","pattern_response","true","f","pattern_54","1039.300000011921","true","5","","","","","","","","","","","","","","","","","","",""
"","","","","","html-keyboard-response","33","94968","0.0-2.0-5.0-0.6","63d83eafdd418ada3528719e","B2","batch2","","null","<p class=block-text>Trial 7 out of 78</p>","null","pattern_show_trial_num","","","","","","","","","","","","","","","","","","","","","","","","",""
"","","","","","image-keyboard-response","34","96820","0.0-2.0-5.0-1.6","63d83eafdd418ada3528719e","B2","batch2","","1850.0999999940395","stim/yes_44_ver_w1_w.png","j","pattern_response","false","f","pattern_66","1850.0999999940395","false","5","","","","","","","","","","","","","","","","","","",""
"","","","","","html-keyboard-response","35","98138","0.0-2.0-5.0-0.7","63d83eafdd418ada3528719e","B2","batch2","","null","<p class=block-text>Trial 8 out of 78</p>","null","pattern_show_trial_num","","","","","","","","","","","","","","","","","","","","","","","","",""
"","","","","","image-keyboard-response","36","98950","0.0-2.0-5.0-1.7","63d83eafdd418ada3528719e","B2","batch2","","810.7000000178814","stim/yes_12_hor_w1_w.png","f","pattern_response","true","f","pattern_42","810.7000000178814","true","6","","","","","","","","","","","","","","","","","","",""
"","","","","","html-keyboard-response","37","100267","0.0-2.0-5.0-0.8","63d83eafdd418ada3528719e","B2","batch2","","null","<p class=block-text>Trial 9 out of 78</p>","null","pattern_show_trial_num","","","","","","","","","","","","","","","","","","","","","","","","",""
"","","","","","image-keyboard-response","38","102273","0.0-2.0-5.0-1.8","63d83eafdd418ada3528719e","B2","batch2","","2005","stim/yes_53_ver_b1_b.png","f","pattern_response","true","f","pattern_74","2005","true","7","","","","","","","","","","","","","","","","","","",""
"","","","","","html-keyboard-response","39","103600","0.0-2.0-5.0-0.9","63d83eafdd418ada3528719e","B2","batch2","","null","<p class=block-text>Trial 10 out of 78</p>","null","pattern_show_trial_num","","","","","","","","","","","","","","","","","","","","","","","","",""
"","","","","","image-keyboard-response","40","104442","0.0-2.0-5.0-1.9","63d83eafdd418ada3528719e","B2","batch2","","840.5999999940395","stim/yes_29_hor_b1_b.png","f","pattern_response","true","f","pattern_52","840.5999999940395","true","8","","","","","","","","","","","","","","","","","","",""
"","","","","","html-keyboard-response","41","105763","0.0-2.0-5.0-0.10","63d83eafdd418ada3528719e","B2","batch2","","null","<p class=block-text>Trial 11 out of 78</p>","null","pattern_show_trial_num","","","","","","","","","","","","","","","","","","","","","","","","",""
"","","","","","image-keyboard-response","42","106967","0.0-2.0-5.0-1.10","63d83eafdd418ada3528719e","B2","batch2","","1202.7999999821186","stim/no_25_1_b.png","j","pattern_response","true","j","pattern_09","1202.7999999821186","true","9","","","","","","","","","","","","","","","","","","",""
"","","","","","html-keyboard-response","43","108287","0.0-2.0-5.0-0.11","63d83eafdd418ada3528719e","B2","batch2","","null","<p class=block-text>Trial 12 out of 78</p>","null","pattern_show_trial_num","","","","","","","","","","","","","","","","","","","","","","","","",""
"","","","","","image-keyboard-response","44","109466","0.0-2.0-5.0-1.11","63d83eafdd418ada3528719e","B2","batch2","","1177.300000011921","stim/no_12_1.png","j","pattern_response","true","j","pattern_01","1177.300000011921","true","10","","","","","","","","","","","","","","","","","","",""
"","","","","","html-keyboard-response","45","110774","0.0-2.0-5.0-0.12","63d83eafdd418ada3528719e","B2","batch2","","null","<p class=block-text>Trial 13 out of 78</p>","null","pattern_show_trial_num","","","","","","","","","","","","","","","","","","","","","","","","",""
"","","","","","image-keyboard-response","46","111998","0.0-2.0-5.0-1.12","63d83eafdd418ada3528719e","B2","batch2","","1223.0999999940395","stim/yes_33_dia_w1_w.png","j","pattern_response","false","f","pattern_56","1223.0999999940395","false","10","","","","","","","","","","","","","","","","","","",""
"","","","","","html-keyboard-response","47","113312","0.0-2.0-5.0-0.13","63d83eafdd418ada3528719e","B2","batch2","","null","<p class=block-text>Trial 14 out of 78</p>","null","pattern_show_trial_num","","","","","","","","","","","","","","","","","","","","","","","","",""
"","","","","","image-keyboard-response","48","115120","0.0-2.0-5.0-1.13","63d83eafdd418ada3528719e","B2","batch2","","1806.4000000059605","stim/no_28_2.png","j","pattern_response","true","j","pattern_11","1806.4000000059605","true","11","","","","","","","","","","","","","","","","","","",""
"","","","","","html-keyboard-response","49","116441","0.0-2.0-5.0-0.14","63d83eafdd418ada3528719e","B2","batch2","","null","<p class=block-text>Trial 15 out of 78</p>","null","pattern_show_trial_num","","","","","","","","","","","","","","","","","","","","","","","","",""
"","","","","","image-keyboard-response","50","118191","0.0-2.0-5.0-1.14","63d83eafdd418ada3528719e","B2","batch2","","1747.7999999821186","stim/yes_51_dia_b1.png","j","pattern_response","false","f","pattern_72","1747.7999999821186","false","11","","","","","","","","","","","","","","","","","","",""
"","","","","","html-keyboard-response","51","119514","0.0-2.0-5.0-0.15","63d83eafdd418ada3528719e","B2","batch2","","null","<p class=block-text>Trial 16 out of 78</p>","null","pattern_show_trial_num","","","","","","","","","","","","","","","","","","","","","","","","",""
"","","","","","image-keyboard-response","52","122038","0.0-2.0-5.0-1.15","63d83eafdd418ada3528719e","B2","batch2","","2522.0999999940395","stim/no_47_1_b.png","j","pattern_response","true","j","pattern_27","2522.0999999940395","true","12","","","","","","","","","","","","","","","","","","",""
"","","","","","html-keyboard-response","53","123356","0.0-2.0-5.0-0.16","63d83eafdd418ada3528719e","B2","batch2","","null","<p class=block-text>Trial 17 out of 78</p>","null","pattern_show_trial_num","","","","","","","","","","","","","","","","","","","","","","","","",""
"","","","","","image-keyboard-response","54","125620","0.0-2.0-5.0-1.16","63d83eafdd418ada3528719e","B2","batch2","","2261.699999988079","stim/no_45_1_w.png","j","pattern_response","true","j","pattern_25","2261.699999988079","true","13","","","","","","","","","","","","","","","","","","",""
"","","","","","html-keyboard-response","55","126938","0.0-2.0-5.0-0.17","63d83eafdd418ada3528719e","B2","batch2","","null","<p class=block-text>Trial 18 out of 78</p>","null","pattern_show_trial_num","","","","","","","","","","","","","","","","","","","","","","","","",""
"","","","","","image-keyboard-response","56","128667","0.0-2.0-5.0-1.17","63d83eafdd418ada3528719e","B2","batch2","","1726.5999999940395","stim/no_18_1_b.png","j","pattern_response","true","j","pattern_05","1726.5999999940395","true","14","","","","","","","","","","","","","","","","","","",""
"","","","","","html-keyboard-response","57","129980","0.0-2.0-5.0-0.18","63d83eafdd418ada3528719e","B2","batch2","","null","<p class=block-text>Trial 19 out of 78</p>","null","pattern_show_trial_num","","","","","","","","","","","","","","","","","","","","","","","","",""
"","","","","","image-keyboard-response","58","133355","0.0-2.0-5.0-1.18","63d83eafdd418ada3528719e","B2","batch2","","3372.800000011921","stim/yes_42_dia_w1_w.png","f","pattern_response","true","f","pattern_64","3372.800000011921","true","15","","","","","","","","","","","","","","","","","","",""
"","","","","","html-keyboard-response","59","134658","0.0-2.0-5.0-0.19","63d83eafdd418ada3528719e","B2","batch2","","null","<p class=block-text>Trial 20 out of 78</p>","null","pattern_show_trial_num","","","","","","","","","","","","","","","","","","","","","","","","",""
"","","","","","image-keyboard-response","60","135830","0.0-2.0-5.0-1.19","63d83eafdd418ada3528719e","B2","batch2","","1169.7000000178814","stim/yes_26_dia_w2_w.png","f","pattern_response","true","f","pattern_50","1169.7000000178814","true","16","","","","","","","","","","","","","","","","","","",""
"","","","","","html-keyboard-response","61","137145","0.0-2.0-5.0-0.20","63d83eafdd418ada3528719e","B2","batch2","","null","<p class=block-text>Trial 21 out of 78</p>","null","pattern_show_trial_num","","","","","","","","","","","","","","","","","","","","","","","","",""
"","","","","","image-keyboard-response","62","138576","0.0-2.0-5.0-1.20","63d83eafdd418ada3528719e","B2","batch2","","1429.199999988079","stim/yes_23_ver_b1.png","j","pattern_response","false","f","pattern_48","1429.199999988079","false","16","","","","","","","","","","","","","","","","","","",""
"","","","","","html-keyboard-response","63","139889","0.0-2.0-5.0-0.21","63d83eafdd418ada3528719e","B2","batch2","","null","<p class=block-text>Trial 22 out of 78</p>","null","pattern_show_trial_num","","","","","","","","","","","","","","","","","","","","","","","","",""
"","","","","","image-keyboard-response","64","140834","0.0-2.0-5.0-1.21","63d83eafdd418ada3528719e","B2","batch2","","943.2000000178814","stim/yes_37_hor_w1_w.png","f","pattern_response","true","f","pattern_60","943.2000000178814","true","17","","","","","","","","","","","","","","","","","","",""
"","","","","","html-keyboard-response","65","142150","0.0-2.0-5.0-0.22","63d83eafdd418ada3528719e","B2","batch2","","null","<p class=block-text>Trial 23 out of 78</p>","null","pattern_show_trial_num","","","","","","","","","","","","","","","","","","","","","","","","",""
"","","","","","image-keyboard-response","66","146314","0.0-2.0-5.0-1.22","63d83eafdd418ada3528719e","B2","batch2","","4163.200000017881","stim/no_39_1_w.png","j","pattern_response","true","j","pattern_21","4163.200000017881","true","18","","","","","","","","","","","","","","","","","","",""
"","","","","","html-keyboard-response","67","147634","0.0-2.0-5.0-0.23","63d83eafdd418ada3528719e","B2","batch2","","null","<p class=block-text>Trial 24 out of 78</p>","null","pattern_show_trial_num","","","","","","","","","","","","","","","","","","","","","","","","",""
"","","","","","image-keyboard-response","68","150580","0.0-2.0-5.0-1.23","63d83eafdd418ada3528719e","B2","batch2","","2944.5","stim/yes_58_dia_w1_w.png","j","pattern_response","false","f","pattern_76","2944.5","false","18","","","","","","","","","","","","","","","","","","",""
"","","","","","html-keyboard-response","69","151906","0.0-2.0-5.0-0.24","63d83eafdd418ada3528719e","B2","batch2","","null","<p class=block-text>Trial 25 out of 78</p>","null","pattern_show_trial_num","","","","","","","","","","","","","","","","","","","","","","","","",""
"","","","","","image-keyboard-response","70","152750","0.0-2.0-5.0-1.24","63d83eafdd418ada3528719e","B2","batch2","","842.3000000119209","stim/yes_17_ver_b1_b.png","f","pattern_response","true","f","pattern_46","842.3000000119209","true","19","","","","","","","","","","","","","","","","","","",""
"","","","","","html-keyboard-response","71","154072","0.0-2.0-5.0-0.25","63d83eafdd418ada3528719e","B2","batch2","","null","<p class=block-text>Trial 26 out of 78</p>","null","pattern_show_trial_num","","","","","","","","","","","","","","","","","","","","","","","","",""
"","","","","","image-keyboard-response","72","155334","0.0-2.0-5.0-1.25","63d83eafdd418ada3528719e","B2","batch2","","1260.5999999940395","stim/yes_39_hor_w1_w.png","f","pattern_response","true","f","pattern_62","1260.5999999940395","true","20","","","","","","","","","","","","","","","","","","",""
"","","","","","html-keyboard-response","73","156645","0.0-2.0-5.0-0.26","63d83eafdd418ada3528719e","B2","batch2","","null","<p class=block-text>Trial 27 out of 78</p>","null","pattern_show_trial_num","","","","","","","","","","","","","","","","","","","","","","","","",""
"","","","","","image-keyboard-response","74","159163","0.0-2.0-5.0-1.26","63d83eafdd418ada3528719e","B2","batch2","","2516.699999988079","stim/no_53_1_b.png","j","pattern_response","true","j","pattern_33","2516.699999988079","true","21","","","","","","","","","","","","","","","","","","",""
"","","","","","html-keyboard-response","75","160477","0.0-2.0-5.0-0.27","63d83eafdd418ada3528719e","B2","batch2","","null","<p class=block-text>Trial 28 out of 78</p>","null","pattern_show_trial_num","","","","","","","","","","","","","","","","","","","","","","","","",""
"","","","","","image-keyboard-response","76","162669","0.0-2.0-5.0-1.27","63d83eafdd418ada3528719e","B2","batch2","","2190.7999999821186","stim/no_37_2_w.png","j","pattern_response","true","j","pattern_19","2190.7999999821186","true","22","","","","","","","","","","","","","","","","","","",""
"","","","","","html-keyboard-response","77","163988","0.0-2.0-5.0-0.28","63d83eafdd418ada3528719e","B2","batch2","","null","<p class=block-text>Trial 29 out of 78</p>","null","pattern_show_trial_num","","","","","","","","","","","","","","","","","","","","","","","","",""
"","","","","","image-keyboard-response","78","164999","0.0-2.0-5.0-1.28","63d83eafdd418ada3528719e","B2","batch2","","1009.4000000059605","stim/yes_36_ver_w1_w.png","f","pattern_response","true","f","pattern_58","1009.4000000059605","true","23","","","","","","","","","","","","","","","","","","",""
"","","","","","html-keyboard-response","79","166309","0.0-2.0-5.0-0.29","63d83eafdd418ada3528719e","B2","batch2","","null","<p class=block-text>Trial 30 out of 78</p>","null","pattern_show_trial_num","","","","","","","","","","","","","","","","","","","","","","","","",""
"","","","","","image-keyboard-response","80","167310","0.0-2.0-5.0-1.29","63d83eafdd418ada3528719e","B2","batch2","","999.9000000059605","stim/yes_15_dia_b1u_b.png","f","pattern_response","true","f","pattern_44","999.9000000059605","true","24","","","","","","","","","","","","","","","","","","",""
"","","","","","html-keyboard-response","81","168632","0.0-2.0-5.0-0.30","63d83eafdd418ada3528719e","B2","batch2","","null","<p class=block-text>Trial 31 out of 78</p>","null","pattern_show_trial_num","","","","","","","","","","","","","","","","","","","","","","","","",""
"","","","","","image-keyboard-response","82","171643","0.0-2.0-5.0-1.30","63d83eafdd418ada3528719e","B2","batch2","","3009.2000000178814","stim/no_49_2_b.png","j","pattern_response","true","j","pattern_29","3009.2000000178814","true","25","","","","","","","","","","","","","","","","","","",""
"","","","","","html-keyboard-response","83","172959","0.0-2.0-5.0-0.31","63d83eafdd418ada3528719e","B2","batch2","","null","<p class=block-text>Trial 32 out of 78</p>","null","pattern_show_trial_num","","","","","","","","","","","","","","","","","","","","","","","","",""
"","","","","","image-keyboard-response","84","175610","0.0-2.0-5.0-1.31","63d83eafdd418ada3528719e","B2","batch2","","2648.800000011921","stim/no_30_1_b.png","j","pattern_response","true","j","pattern_13","2648.800000011921","true","26","","","","","","","","","","","","","","","","","","",""
"","","","","","html-keyboard-response","85","176935","0.0-2.0-5.0-0.32","63d83eafdd418ada3528719e","B2","batch2","","null","<p class=block-text>Trial 33 out of 78</p>","null","pattern_show_trial_num","","","","","","","","","","","","","","","","","","","","","","","","",""
"","","","","","image-keyboard-response","86","180298","0.0-2.0-5.0-1.32","63d83eafdd418ada3528719e","B2","batch2","","3361.100000023842","stim/no_51_1.png","j","pattern_response","true","j","pattern_31","3361.100000023842","true","27","","","","","","","","","","","","","","","","","","",""
"","","","","","html-keyboard-response","87","181621","0.0-2.0-5.0-0.33","63d83eafdd418ada3528719e","B2","batch2","","null","<p class=block-text>Trial 34 out of 78</p>","null","pattern_show_trial_num","","","","","","","","","","","","","","","","","","","","","","","","",""
"","","","","","image-keyboard-response","88","182676","0.0-2.0-5.0-1.33","63d83eafdd418ada3528719e","B2","batch2","","1054.0999999940395","stim/yes_70_ver_b1.png","f","pattern_response","true","f","pattern_80","1054.0999999940395","true","28","","","","","","","","","","","","","","","","","","",""
"","","","","","html-keyboard-response","89","183996","0.0-2.0-5.0-0.34","63d83eafdd418ada3528719e","B2","batch2","","null","<p class=block-text>Trial 35 out of 78</p>","null","pattern_show_trial_num","","","","","","","","","","","","","","","","","","","","","","","","",""
"","","","","","image-keyboard-response","90","185416","0.0-2.0-5.0-1.34","63d83eafdd418ada3528719e","B2","batch2","","1417.800000011921","stim/no_22_1_b.png","j","pattern_response","true","j","pattern_07","1417.800000011921","true","29","","","","","","","","","","","","","","","","","","",""
"","","","","","html-keyboard-response","91","186741","0.0-2.0-5.0-0.35","63d83eafdd418ada3528719e","B2","batch2","","null","<p class=block-text>Trial 36 out of 78</p>","null","pattern_show_trial_num","","","","","","","","","","","","","","","","","","","","","","","","",""
"","","","","","image-keyboard-response","92","187834","0.0-2.0-5.0-1.35","63d83eafdd418ada3528719e","B2","batch2","","1092","stim/yes_46_ver_b1_b.png","f","pattern_response","true","f","pattern_68","1092","true","30","","","","","","","","","","","","","","","","","","",""
"","","","","","html-keyboard-response","93","189150","0.0-2.0-5.0-0.36","63d83eafdd418ada3528719e","B2","batch2","","null","<p class=block-text>Trial 37 out of 78</p>","null","pattern_show_trial_num","","","","","","","","","","","","","","","","","","","","","","","","",""
"","","","","","image-keyboard-response","94","191026","0.0-2.0-5.0-1.36","63d83eafdd418ada3528719e","B2","batch2","","1874.199999988079","stim/no_43_2_b.png","j","pattern_response","true","j","pattern_23","1874.199999988079","true","31","","","","","","","","","","","","","","","","","","",""
"","","","","","html-keyboard-response","95","192342","0.0-2.0-5.0-0.37","63d83eafdd418ada3528719e","B2","batch2","","null","<p class=block-text>Trial 38 out of 78</p>","null","pattern_show_trial_num","","","","","","","","","","","","","","","","","","","","","","","","",""
"","","","","","image-keyboard-response","96","195014","0.0-2.0-5.0-1.37","63d83eafdd418ada3528719e","B2","batch2","","2670.199999988079","stim/yes_63_dia_b1.png","j","pattern_response","false","f","pattern_78","2670.199999988079","false","31","","","","","","","","","","","","","","","","","","",""
"","","","","","html-keyboard-response","97","196331","0.0-2.0-5.0-0.38","63d83eafdd418ada3528719e","B2","batch2","","null","<p class=block-text>Trial 39 out of 78</p>","null","pattern_show_trial_num","","","","","","","","","","","","","","","","","","","","","","","","",""
"","","","","","image-keyboard-response","98","198635","0.0-2.0-5.0-1.38","63d83eafdd418ada3528719e","B2","batch2","","2302.800000011921","stim/no_67_1.png","j","pattern_response","true","j","pattern_39","2302.800000011921","true","32","","","","","","","","","","","","","","","","","","",""
"","","","","","image-keyboard-response","99","201053","0.0-2.0-6.0","63d83eafdd418ada3528719e","B2","batch2","","1912.699999988079","stim/empty_board.png","j","attention_check","true","j","","","","","500","[""f"",""j""]","","","","","","","","","","","","","","","","",""
"","","","","","html-keyboard-response","100","201865","0.0-2.0-7.0-0.0","63d83eafdd418ada3528719e","B2","batch2","","null","<p class=block-text>Trial 40 out of 78</p>","null","pattern_show_trial_num","","","","","","","","","","","","","","","","","","","","","","","","",""
"","","","","","image-keyboard-response","101","203726","0.0-2.0-7.0-1.0","63d83eafdd418ada3528719e","B2","batch2","","1858.800000011921","stim/yes_67_hor_b1.png","f","pattern_response","true","f","pattern_79","1858.800000011921","true","33","","","","","","","","","","","","","","","","","","",""
"","","","","","html-keyboard-response","102","205047","0.0-2.0-7.0-0.1","63d83eafdd418ada3528719e","B2","batch2","","null","<p class=block-text>Trial 41 out of 78</p>","null","pattern_show_trial_num","","","","","","","","","","","","","","","","","","","","","","","","",""
"","","","","","image-keyboard-response","103","206749","0.0-2.0-7.0-1.1","63d83eafdd418ada3528719e","B2","batch2","","1700.7000000178814","stim/no_34_1_b.png","j","pattern_response","true","j","pattern_16","1700.7000000178814","true","34","","","","","","","","","","","","","","","","","","",""
"","","","","","html-keyboard-response","104","208071","0.0-2.0-7.0-0.2","63d83eafdd418ada3528719e","B2","batch2","","null","<p class=block-text>Trial 42 out of 78</p>","null","pattern_show_trial_num","","","","","","","","","","","","","","","","","","","","","","","","",""
"","","","","","image-keyboard-response","105","210582","0.0-2.0-7.0-1.2","63d83eafdd418ada3528719e","B2","batch2","","2509","stim/no_62_1_w.png","j","pattern_response","true","j","pattern_36","2509","true","35","","","","","","","","","","","","","","","","","","",""
"","","","","","html-keyboard-response","106","211903","0.0-2.0-7.0-0.3","63d83eafdd418ada3528719e","B2","batch2","","null","<p class=block-text>Trial 43 out of 78</p>","null","pattern_show_trial_num","","","","","","","","","","","","","","","","","","","","","","","","",""
"","","","","","image-keyboard-response","107","212792","0.0-2.0-7.0-1.3","63d83eafdd418ada3528719e","B2","batch2","","888.0999999940395","stim/no_17_1_w.png","j","pattern_response","true","j","pattern_04","888.0999999940395","true","36","","","","","","","","","","","","","","","","","","",""
"","","","","","html-keyboard-response","108","214120","0.0-2.0-7.0-0.4","63d83eafdd418ada3528719e","B2","batch2","","null","<p class=block-text>Trial 44 out of 78</p>","null","pattern_show_trial_num","","","","","","","","","","","","","","","","","","","","","","","","",""
"","","","","","image-keyboard-response","109","215500","0.0-2.0-7.0-1.4","63d83eafdd418ada3528719e","B2","batch2","","1378.5999999940395","stim/yes_43_ver_w1_w.png","f","pattern_response","true","f","pattern_65","1378.5999999940395","true","37","","","","","","","","","","","","","","","","","","",""
"","","","","","html-keyboard-response","110","216819","0.0-2.0-7.0-0.5","63d83eafdd418ada3528719e","B2","batch2","","null","<p class=block-text>Trial 45 out of 78</p>","null","pattern_show_trial_num","","","","","","","","","","","","","","","","","","","","","","","","",""
"","","","","","image-keyboard-response","111","219060","0.0-2.0-7.0-1.5","63d83eafdd418ada3528719e","B2","batch2","","2239.4000000059605","stim/no_42_1_w.png","j","pattern_response","true","j","pattern_22","2239.4000000059605","true","38","","","","","","","","","","","","","","","","","","",""
"","","","","","html-keyboard-response","112","220372","0.0-2.0-7.0-0.6","63d83eafdd418ada3528719e","B2","batch2","","null","<p class=block-text>Trial 46 out of 78</p>","null","pattern_show_trial_num","","","","","","","","","","","","","","","","","","","","","","","","",""
"","","","","","image-keyboard-response","113","221509","0.0-2.0-7.0-1.6","63d83eafdd418ada3528719e","B2","batch2","","1135","stim/yes_55_hor_w1_w.png","f","pattern_response","true","f","pattern_75","1135","true","39","","","","","","","","","","","","","","","","","","",""
"","","","","","html-keyboard-response","114","222826","0.0-2.0-7.0-0.7","63d83eafdd418ada3528719e","B2","batch2","","null","<p class=block-text>Trial 47 out of 78</p>","null","pattern_show_trial_num","","","","","","","","","","","","","","","","","","","","","","","","",""
"","","","","","image-keyboard-response","115","225602","0.0-2.0-7.0-1.7","63d83eafdd418ada3528719e","B2","batch2","","2775","stim/no_36_2_w.png","j","pattern_response","true","j","pattern_18","2775","true","40","","","","","","","","","","","","","","","","","","",""
"","","","","","html-keyboard-response","116","226916","0.0-2.0-7.0-0.8","63d83eafdd418ada3528719e","B2","batch2","","null","<p class=block-text>Trial 48 out of 78</p>","null","pattern_show_trial_num","","","","","","","","","","","","","","","","","","","","","","","","",""
"","","","","","image-keyboard-response","117","228041","0.0-2.0-7.0-1.8","63d83eafdd418ada3528719e","B2","batch2","","1123.2000000178814","stim/yes_28_ver_b1.png","f","pattern_response","true","f","pattern_51","1123.2000000178814","true","41","","","","","","","","","","","","","","","","","","",""
"","","","","","html-keyboard-response","118","229353","0.0-2.0-7.0-0.9","63d83eafdd418ada3528719e","B2","batch2","","null","<p class=block-text>Trial 49 out of 78</p>","null","pattern_show_trial_num","","","","","","","","","","","","","","","","","","","","","","","","",""
"","","","","","image-keyboard-response","119","233433","0.0-2.0-7.0-1.9","63d83eafdd418ada3528719e","B2","batch2","","4078","stim/no_52_1.png","j","pattern_response","true","j","pattern_32","4078","true","42","","","","","","","","","","","","","","","","","","",""
"","","","","","html-keyboard-response","120","234749","0.0-2.0-7.0-0.10","63d83eafdd418ada3528719e","B2","batch2","","null","<p class=block-text>Trial 50 out of 78</p>","null","pattern_show_trial_num","","","","","","","","","","","","","","","","","","","","","","","","",""
"","","","","","image-keyboard-response","121","238052","0.0-2.0-7.0-1.10","63d83eafdd418ada3528719e","B2","batch2","","3301.2000000178814","stim/no_50_1.png","j","pattern_response","true","j","pattern_30","3301.2000000178814","true","43","","","","","","","","","","","","","","","","","","",""
"","","","","","html-keyboard-response","122","239365","0.0-2.0-7.0-0.11","63d83eafdd418ada3528719e","B2","batch2","","null","<p class=block-text>Trial 51 out of 78</p>","null","pattern_show_trial_num","","","","","","","","","","","","","","","","","","","","","","","","",""
"","","","","","image-keyboard-response","123","240613","0.0-2.0-7.0-1.11","63d83eafdd418ada3528719e","B2","batch2","","1246","stim/yes_25_hor_b1_b.png","f","pattern_response","true","f","pattern_49","1246","true","44","","","","","","","","","","","","","","","","","","",""
"","","","","","html-keyboard-response","124","241935","0.0-2.0-7.0-0.12","63d83eafdd418ada3528719e","B2","batch2","","null","<p class=block-text>Trial 52 out of 78</p>","null","pattern_show_trial_num","","","","","","","","","","","","","","","","","","","","","","","","",""
"","","","","","image-keyboard-response","125","243562","0.0-2.0-7.0-1.12","63d83eafdd418ada3528719e","B2","batch2","","1624.7000000178814","stim/yes_31_hor_b1.png","f","pattern_response","true","f","pattern_55","1624.7000000178814","true","45","","","","","","","","","","","","","","","","","","",""
"","","","","","html-keyboard-response","126","244878","0.0-2.0-7.0-0.13","63d83eafdd418ada3528719e","B2","batch2","","null","<p class=block-text>Trial 53 out of 78</p>","null","pattern_show_trial_num","","","","","","","","","","","","","","","","","","","","","","","","",""
"","","","","","image-keyboard-response","127","246512","0.0-2.0-7.0-1.13","63d83eafdd418ada3528719e","B2","batch2","","1632.8999999761581","stim/yes_35_dia_b1.png","f","pattern_response","true","f","pattern_57","1632.8999999761581","true","46","","","","","","","","","","","","","","","","","","",""
"","","","","","html-keyboard-response","128","247826","0.0-2.0-7.0-0.14","63d83eafdd418ada3528719e","B2","batch2","","null","<p class=block-text>Trial 54 out of 78</p>","null","pattern_show_trial_num","","","","","","","","","","","","","","","","","","","","","","","","",""
"","","","","","image-keyboard-response","129","249038","0.0-2.0-7.0-1.14","63d83eafdd418ada3528719e","B2","batch2","","1210.7000000178814","stim/no_13_2_b.png","j","pattern_response","true","j","pattern_02","1210.7000000178814","true","47","","","","","","","","","","","","","","","","","","",""
"","","","","","html-keyboard-response","130","250356","0.0-2.0-7.0-0.15","63d83eafdd418ada3528719e","B2","batch2","","null","<p class=block-text>Trial 55 out of 78</p>","null","pattern_show_trial_num","","","","","","","","","","","","","","","","","","","","","","","","",""
"","","","","","image-keyboard-response","131","252328","0.0-2.0-7.0-1.15","63d83eafdd418ada3528719e","B2","batch2","","1970","stim/yes_40_dia_b1_b.png","j","pattern_response","false","f","pattern_63","1970","false","47","","","","","","","","","","","","","","","","","","",""
"","","","","","html-keyboard-response","132","253640","0.0-2.0-7.0-0.16","63d83eafdd418ada3528719e","B2","batch2","","null","<p class=block-text>Trial 56 out of 78</p>","null","pattern_show_trial_num","","","","","","","","","","","","","","","","","","","","","","","","",""
"","","","","","image-keyboard-response","133","256263","0.0-2.0-7.0-1.16","63d83eafdd418ada3528719e","B2","batch2","","2621.399999976158","stim/no_48_1_w.png","j","pattern_response","true","j","pattern_28","2621.399999976158","true","48","","","","","","","","","","","","","","","","","","",""
"","","","","","html-keyboard-response","134","257565","0.0-2.0-7.0-0.17","63d83eafdd418ada3528719e","B2","batch2","","null","<p class=block-text>Trial 57 out of 78</p>","null","pattern_show_trial_num","","","","","","","","","","","","","","","","","","","","","","","","",""
"","","","","","image-keyboard-response","135","260224","0.0-2.0-7.0-1.17","63d83eafdd418ada3528719e","B2","batch2","","2657.899999976158","stim/no_32_1_w.png","j","pattern_response","true","j","pattern_14","2657.899999976158","true","49","","","","","","","","","","","","","","","","","","",""
"","","","","","html-keyboard-response","136","261545","0.0-2.0-7.0-0.18","63d83eafdd418ada3528719e","B2","batch2","","null","<p class=block-text>Trial 58 out of 78</p>","null","pattern_show_trial_num","","","","","","","","","","","","","","","","","","","","","","","","",""
"","","","","","image-keyboard-response","137","263952","0.0-2.0-7.0-1.18","63d83eafdd418ada3528719e","B2","batch2","","2405.5","stim/no_29_1_b.png","j","pattern_response","true","j","pattern_12","2405.5","true","50","","","","","","","","","","","","","","","","","","",""
"","","","","","html-keyboard-response","138","265264","0.0-2.0-7.0-0.19","63d83eafdd418ada3528719e","B2","batch2","","null","<p class=block-text>Trial 59 out of 78</p>","null","pattern_show_trial_num","","","","","","","","","","","","","","","","","","","","","","","","",""
"","","","","","image-keyboard-response","139","268475","0.0-2.0-7.0-1.19","63d83eafdd418ada3528719e","B2","batch2","","3208.899999976158","stim/no_70_2.png","j","pattern_response","true","j","pattern_40","3208.899999976158","true","51","","","","","","","","","","","","","","","","","","",""
"","","","","","html-keyboard-response","140","269791","0.0-2.0-7.0-0.20","63d83eafdd418ada3528719e","B2","batch2","","null","<p class=block-text>Trial 60 out of 78</p>","null","pattern_show_trial_num","","","","","","","","","","","","","","","","","","","","","","","","",""
"","","","","","image-keyboard-response","141","272621","0.0-2.0-7.0-1.20","63d83eafdd418ada3528719e","B2","batch2","","2829","stim/yes_38_hor_b1_b.png","j","pattern_response","false","f","pattern_61","2829","false","51","","","","","","","","","","","","","","","","","","",""
"","","","","","html-keyboard-response","142","273933","0.0-2.0-7.0-0.21","63d83eafdd418ada3528719e","B2","batch2","","null","<p class=block-text>Trial 61 out of 78</p>","null","pattern_show_trial_num","","","","","","","","","","","","","","","","","","","","","","","","",""
"","","","","","image-keyboard-response","143","276385","0.0-2.0-7.0-1.21","63d83eafdd418ada3528719e","B2","batch2","","2450.300000011921","stim/yes_48_dia_w1_w.png","f","pattern_response","true","f","pattern_69","2450.300000011921","true","52","","","","","","","","","","","","","","","","","","",""
"","","","","","html-keyboard-response","144","277693","0.0-2.0-7.0-0.22","63d83eafdd418ada3528719e","B2","batch2","","null","<p class=block-text>Trial 62 out of 78</p>","null","pattern_show_trial_num","","","","","","","","","","","","","","","","","","","","","","","","",""
"","","","","","image-keyboard-response","145","279250","0.0-2.0-7.0-1.22","63d83eafdd418ada3528719e","B2","batch2","","1555.9000000059605","stim/yes_22_ver_w1.png","f","pattern_response","true","f","pattern_47","1555.9000000059605","true","53","","","","","","","","","","","","","","","","","","",""
"","","","","","html-keyboard-response","146","280567","0.0-2.0-7.0-0.23","63d83eafdd418ada3528719e","B2","batch2","","null","<p class=block-text>Trial 63 out of 78</p>","null","pattern_show_trial_num","","","","","","","","","","","","","","","","","","","","","","","","",""
"","","","","","image-keyboard-response","147","282310","0.0-2.0-7.0-1.23","63d83eafdd418ada3528719e","B2","batch2","","1741.800000011921","stim/no_26_1_w.png","j","pattern_response","true","j","pattern_10","1741.800000011921","true","54","","","","","","","","","","","","","","","","","","",""
"","","","","","html-keyboard-response","148","283635","0.0-2.0-7.0-0.24","63d83eafdd418ada3528719e","B2","batch2","","null","<p class=block-text>Trial 64 out of 78</p>","null","pattern_show_trial_num","","","","","","","","","","","","","","","","","","","","","","","","",""
"","","","","","image-keyboard-response","149","285882","0.0-2.0-7.0-1.24","63d83eafdd418ada3528719e","B2","batch2","","2245.5","stim/no_65_1_b.png","j","pattern_response","true","j","pattern_38","2245.5","true","55","","","","","","","","","","","","","","","","","","",""
"","","","","","html-keyboard-response","150","287191","0.0-2.0-7.0-0.25","63d83eafdd418ada3528719e","B2","batch2","","null","<p class=block-text>Trial 65 out of 78</p>","null","pattern_show_trial_num","","","","","","","","","","","","","","","","","","","","","","","","",""
"","","","","","image-keyboard-response","151","289086","0.0-2.0-7.0-1.25","63d83eafdd418ada3528719e","B2","batch2","","1893.5","stim/no_20_1_w.png","j","pattern_response","true","j","pattern_06","1893.5","true","56","","","","","","","","","","","","","","","","","","",""
"","","","","","html-keyboard-response","152","290388","0.0-2.0-7.0-0.26","63d83eafdd418ada3528719e","B2","batch2","","null","<p class=block-text>Trial 66 out of 78</p>","null","pattern_show_trial_num","","","","","","","","","","","","","","","","","","","","","","","","",""
"","","","","","image-keyboard-response","153","291683","0.0-2.0-7.0-1.26","63d83eafdd418ada3528719e","B2","batch2","","1293.2999999821186","stim/yes_17_dia_w1.png","f","pattern_response","true","f","pattern_45","1293.2999999821186","true","57","","","","","","","","","","","","","","","","","","",""
"","","","","","html-keyboard-response","154","292987","0.0-2.0-7.0-0.27","63d83eafdd418ada3528719e","B2","batch2","","null","<p class=block-text>Trial 67 out of 78</p>","null","pattern_show_trial_num","","","","","","","","","","","","","","","","","","","","","","","","",""
"","","","","","image-keyboard-response","155","295144","0.0-2.0-7.0-1.27","63d83eafdd418ada3528719e","B2","batch2","","2155.5","stim/yes_45_hor_b2_b.png","f","pattern_response","true","f","pattern_67","2155.5","true","58","","","","","","","","","","","","","","","","","","",""
"","","","","","html-keyboard-response","156","296446","0.0-2.0-7.0-0.28","63d83eafdd418ada3528719e","B2","batch2","","null","<p class=block-text>Trial 68 out of 78</p>","null","pattern_show_trial_num","","","","","","","","","","","","","","","","","","","","","","","","",""
"","","","","","image-keyboard-response","157","297727","0.0-2.0-7.0-1.28","63d83eafdd418ada3528719e","B2","batch2","","1279.300000011921","stim/yes_29_ver_w1.png","f","pattern_response","true","f","pattern_53","1279.300000011921","true","59","","","","","","","","","","","","","","","","","","",""
"","","","","","html-keyboard-response","158","299033","0.0-2.0-7.0-0.29","63d83eafdd418ada3528719e","B2","batch2","","null","<p class=block-text>Trial 69 out of 78</p>","null","pattern_show_trial_num","","","","","","","","","","","","","","","","","","","","","","","","",""
"","","","","","image-keyboard-response","159","300678","0.0-2.0-7.0-1.29","63d83eafdd418ada3528719e","B2","batch2","","1643.199999988079","stim/yes_52_ver_w1.png","f","pattern_response","true","f","pattern_73","1643.199999988079","true","60","","","","","","","","","","","","","","","","","","",""
"","","","","","html-keyboard-response","160","301979","0.0-2.0-7.0-0.30","63d83eafdd418ada3528719e","B2","batch2","","null","<p class=block-text>Trial 70 out of 78</p>","null","pattern_show_trial_num","","","","","","","","","","","","","","","","","","","","","","","","",""
"","","","","","image-keyboard-response","161","304000","0.0-2.0-7.0-1.30","63d83eafdd418ada3528719e","B2","batch2","","2019.5999999940395","stim/no_23_1.png","j","pattern_response","true","j","pattern_08","2019.5999999940395","true","61","","","","","","","","","","","","","","","","","","",""
"","","","","","html-keyboard-response","162","305301","0.0-2.0-7.0-0.31","63d83eafdd418ada3528719e","B2","batch2","","null","<p class=block-text>Trial 71 out of 78</p>","null","pattern_show_trial_num","","","","","","","","","","","","","","","","","","","","","","","","",""
"","","","","","image-keyboard-response","163","307917","0.0-2.0-7.0-1.31","63d83eafdd418ada3528719e","B2","batch2","","2614.2000000178814","stim/yes_50_dia_w1.png","j","pattern_response","false","f","pattern_71","2614.2000000178814","false","61","","","","","","","","","","","","","","","","","","",""
"","","","","","html-keyboard-response","164","309224","0.0-2.0-7.0-0.32","63d83eafdd418ada3528719e","B2","batch2","","null","<p class=block-text>Trial 72 out of 78</p>","null","pattern_show_trial_num","","","","","","","","","","","","","","","","","","","","","","","","",""
"","","","","","image-keyboard-response","165","310186","0.0-2.0-7.0-1.32","63d83eafdd418ada3528719e","B2","batch2","","951.9000000059605","stim/yes_14_hor_b1_w.png","f","pattern_response","true","f","pattern_43","951.9000000059605","true","62","","","","","","","","","","","","","","","","","","",""
"","","","","","html-keyboard-response","166","311487","0.0-2.0-7.0-0.33","63d83eafdd418ada3528719e","B2","batch2","","null","<p class=block-text>Trial 73 out of 78</p>","null","pattern_show_trial_num","","","","","","","","","","","","","","","","","","","","","","","","",""
"","","","","","image-keyboard-response","167","314737","0.0-2.0-7.0-1.33","63d83eafdd418ada3528719e","B2","batch2","","3249.100000023842","stim/yes_60_ver_b1_b.png","f","pattern_response","true","f","pattern_77","3249.100000023842","true","63","","","","","","","","","","","","","","","","","","",""
"","","","","","html-keyboard-response","168","316039","0.0-2.0-7.0-0.34","63d83eafdd418ada3528719e","B2","batch2","","null","<p class=block-text>Trial 74 out of 78</p>","null","pattern_show_trial_num","","","","","","","","","","","","","","","","","","","","","","","","",""
"","","","","","image-keyboard-response","169","319156","0.0-2.0-7.0-1.34","63d83eafdd418ada3528719e","B2","batch2","","3114.800000011921","stim/no_44_1.png","j","pattern_response","true","j","pattern_24","3114.800000011921","true","64","","","","","","","","","","","","","","","","","","",""
"","","","","","html-keyboard-response","170","320459","0.0-2.0-7.0-0.35","63d83eafdd418ada3528719e","B2","batch2","","null","<p class=block-text>Trial 75 out of 78</p>","null","pattern_show_trial_num","","","","","","","","","","","","","","","","","","","","","","","","",""
"","","","","","image-keyboard-response","171","322872","0.0-2.0-7.0-1.35","63d83eafdd418ada3528719e","B2","batch2","","2412.2999999821186","stim/no_46_1_b.png","j","pattern_response","true","j","pattern_26","2412.2999999821186","true","65","","","","","","","","","","","","","","","","","","",""
"","","","","","html-keyboard-response","172","324174","0.0-2.0-7.0-0.36","63d83eafdd418ada3528719e","B2","batch2","","null","<p class=block-text>Trial 76 out of 78</p>","null","pattern_show_trial_num","","","","","","","","","","","","","","","","","","","","","","","","",""
"","","","","","image-keyboard-response","173","326198","0.0-2.0-7.0-1.36","63d83eafdd418ada3528719e","B2","batch2","","2022.5999999940395","stim/yes_37_dia_w1.png","f","pattern_response","true","f","pattern_59","2022.5999999940395","true","66","","","","","","","","","","","","","","","","","","",""
"","","","","","html-keyboard-response","174","327509","0.0-2.0-7.0-0.37","63d83eafdd418ada3528719e","B2","batch2","","null","<p class=block-text>Trial 77 out of 78</p>","null","pattern_show_trial_num","","","","","","","","","","","","","","","","","","","","","","","","",""
"","","","","","image-keyboard-response","175","330416","0.0-2.0-7.0-1.37","63d83eafdd418ada3528719e","B2","batch2","","2905.699999988079","stim/no_55_1_w.png","j","pattern_response","true","j","pattern_34","2905.699999988079","true","67","","","","","","","","","","","","","","","","","","",""
"","","","","","html-keyboard-response","176","331717","0.0-2.0-7.0-0.38","63d83eafdd418ada3528719e","B2","batch2","","null","<p class=block-text>Trial 78 out of 78</p>","null","pattern_show_trial_num","","","","","","","","","","","","","","","","","","","","","","","","",""
"","","","","","image-keyboard-response","177","334807","0.0-2.0-7.0-1.38","63d83eafdd418ada3528719e","B2","batch2","","3088.5999999940395","stim/no_38_1_b.png","j","pattern_response","true","j","pattern_20","3088.5999999940395","true","68","","","","","","","","","","","","","","","","","","",""
"","","","","","html-button-response","178","345613","0.0-2.0-8.0","63d83eafdd418ada3528719e","B2","batch2","","10303.40000000596","<p class = block-text>This concludes the 4-in-a-row detection game.Thank you for your responses!<br>
            You responded correctly on 87% of the trials.<br>
            When you are ready, press ""Continue"" button to continue </p>","0","","","","","","","","","","","","","","","","","","","","","","","","","",""
"true","","","","","fullscreen","179","348869","0.0-3.0-0.0","63d83eafdd418ada3528719e","B2","batch2","","","","","spm_fullscreen","","","","","","","","","","","","","","","","","","","","","","","","",""
"","","","","","html-button-response","180","358399","0.0-3.0-1.0","63d83eafdd418ada3528719e","B2","batch2","","9528.299999982119","<p class = block-text><b>Instructions</b> <br>This is a widely used intelligence test in research. <br>In this test, a figure with a missing piece will be presented.<br>Below the figure are alternative pieces to complete the figure, only one of which is correct.<br> Different figures might involve different principles for obtaining the missing piece<br>Your job is to select the most logical piece to complete the figure.</p>","0","","","","","","","","","","","","","","","","","","","","","","","","","",""
"","","","","","html-keyboard-response","181","359199","0.0-3.0-2.0-0.0","63d83eafdd418ada3528719e","B2","batch2","","null","<p class=block-text>Trial 1 out of 60</p>","null","spm_show_trial_num","","","","","","","","","","","","","","","","","","","","","","","","",""
"","","","","","image-button-response","182","363310","0.0-3.0-2.0-1.0","63d83eafdd418ada3528719e","B2","batch2","","4108.5","img/question_1_1.jpeg","3","spm_respsonse","1","4","mat_01","","","","","","1","4108.5","","","","","","","","","","","","","","",""
"","","","","","html-keyboard-response","183","364363","0.0-3.0-2.0-0.1","63d83eafdd418ada3528719e","B2","batch2","","null","<p class=block-text>Trial 2 out of 60</p>","null","spm_show_trial_num","","","","","","","","","","","","","","","","","","","","","","","","",""
"","","","","","image-button-response","184","367020","0.0-3.0-2.0-1.1","63d83eafdd418ada3528719e","B2","batch2","","2655.699999988079","img/question_1_2.jpeg","4","spm_respsonse","1","5","mat_02","","","","","","1","2655.699999988079","","","","","","","","","","","","","","",""
"","","","","","html-keyboard-response","185","368072","0.0-3.0-2.0-0.2","63d83eafdd418ada3528719e","B2","batch2","","null","<p class=block-text>Trial 3 out of 60</p>","null","spm_show_trial_num","","","","","","","","","","","","","","","","","","","","","","","","",""
"","","","","","image-button-response","186","374644","0.0-3.0-2.0-1.2","63d83eafdd418ada3528719e","B2","batch2","","6570.0999999940395","img/question_1_3.jpeg","0","spm_respsonse","1","1","mat_03","","","","","","1","6570.0999999940395","","","","","","","","","","","","","","",""
"","","","","","html-keyboard-response","187","375704","0.0-3.0-2.0-0.3","63d83eafdd418ada3528719e","B2","batch2","","null","<p class=block-text>Trial 4 out of 60</p>","null","spm_show_trial_num","","","","","","","","","","","","","","","","","","","","","","","","",""
"","","","","","image-button-response","188","381150","0.0-3.0-2.0-1.3","63d83eafdd418ada3528719e","B2","batch2","","5444.199999988079","img/question_1_4.jpeg","1","spm_respsonse","1","2","mat_04","","","","","","1","5444.199999988079","","","","","","","","","","","","","","",""
"","","","","","html-keyboard-response","189","382210","0.0-3.0-2.0-0.4","63d83eafdd418ada3528719e","B2","batch2","","null","<p class=block-text>Trial 5 out of 60</p>","null","spm_show_trial_num","","","","","","","","","","","","","","","","","","","","","","","","",""
"","","","","","image-button-response","190","387896","0.0-3.0-2.0-1.4","63d83eafdd418ada3528719e","B2","batch2","","5684","img/question_1_5.jpeg","5","spm_respsonse","1","6","mat_05","","","","","","1","5684","","","","","","","","","","","","","","",""
"","","","","","html-keyboard-response","191","388948","0.0-3.0-2.0-0.5","63d83eafdd418ada3528719e","B2","batch2","","null","<p class=block-text>Trial 6 out of 60</p>","null","spm_show_trial_num","","","","","","","","","","","","","","","","","","","","","","","","",""
"","","","","","image-button-response","192","393194","0.0-3.0-2.0-1.5","63d83eafdd418ada3528719e","B2","batch2","","4243.0999999940395","img/question_1_6.jpeg","2","spm_respsonse","1","3","mat_06","","","","","","1","4243.0999999940395","","","","","","","","","","","","","","",""
"","","","","","html-keyboard-response","193","394246","0.0-3.0-2.0-0.6","63d83eafdd418ada3528719e","B2","batch2","","null","<p class=block-text>Trial 7 out of 60</p>","null","spm_show_trial_num","","","","","","","","","","","","","","","","","","","","","","","","",""
"","","","","","image-button-response","194","402853","0.0-3.0-2.0-1.6","63d83eafdd418ada3528719e","B2","batch2","","8604.699999988079","img/question_1_7.jpeg","5","spm_respsonse","1","6","mat_07","","","","","","1","8604.699999988079","","","","","","","","","","","","","","",""
"","","","","","html-keyboard-response","195","403905","0.0-3.0-2.0-0.7","63d83eafdd418ada3528719e","B2","batch2","","null","<p class=block-text>Trial 8 out of 60</p>","null","spm_show_trial_num","","","","","","","","","","","","","","","","","","","","","","","","",""
"","","","","","image-button-response","196","411861","0.0-3.0-2.0-1.7","63d83eafdd418ada3528719e","B2","batch2","","7954.100000023842","img/question_1_8.jpeg","1","spm_respsonse","1","2","mat_08","","","","","","1","7954.100000023842","","","","","","","","","","","","","","",""
"","","","","","html-keyboard-response","197","412927","0.0-3.0-2.0-0.8","63d83eafdd418ada3528719e","B2","batch2","","null","<p class=block-text>Trial 9 out of 60</p>","null","spm_show_trial_num","","","","","","","","","","","","","","","","","","","","","","","","",""
"","","","","","image-button-response","198","420050","0.0-3.0-2.0-1.8","63d83eafdd418ada3528719e","B2","batch2","","7120.5","img/question_1_9.jpeg","0","spm_respsonse","1","1","mat_09","","","","","","1","7120.5","","","","","","","","","","","","","","",""
"","","","","","html-keyboard-response","199","421103","0.0-3.0-2.0-0.9","63d83eafdd418ada3528719e","B2","batch2","","null","<p class=block-text>Trial 10 out of 60</p>","null","spm_show_trial_num","","","","","","","","","","","","","","","","","","","","","","","","",""
"","","","","","image-button-response","200","430704","0.0-3.0-2.0-1.9","63d83eafdd418ada3528719e","B2","batch2","","9600","img/question_1_10.jpeg","2","spm_respsonse","1","3","mat_10","","","","","","1","9600","","","","","","","","","","","","","","",""
"","","","","","html-keyboard-response","201","431771","0.0-3.0-2.0-0.10","63d83eafdd418ada3528719e","B2","batch2","","null","<p class=block-text>Trial 11 out of 60</p>","null","spm_show_trial_num","","","","","","","","","","","","","","","","","","","","","","","","",""
"","","","","","image-button-response","202","469412","0.0-3.0-2.0-1.10","63d83eafdd418ada3528719e","B2","batch2","","37639.10000002384","img/question_1_11.jpeg","3","spm_respsonse","1","4","mat_11","","","","","","1","37639.10000002384","","","","","","","","","","","","","","",""
"","","","","","html-keyboard-response","203","470465","0.0-3.0-2.0-0.11","63d83eafdd418ada3528719e","B2","batch2","","null","<p class=block-text>Trial 12 out of 60</p>","null","spm_show_trial_num","","","","","","","","","","","","","","","","","","","","","","","","",""
"","","","","","image-button-response","204","499738","0.0-3.0-2.0-1.11","63d83eafdd418ada3528719e","B2","batch2","","29271","img/question_1_12.jpeg","4","spm_respsonse","1","5","mat_12","","","","","","1","29271","","","","","","","","","","","","","","",""
"","","","","","html-keyboard-response","205","500800","0.0-3.0-2.0-0.12","63d83eafdd418ada3528719e","B2","batch2","","null","<p class=block-text>Trial 13 out of 60</p>","null","spm_show_trial_num","","","","","","","","","","","","","","","","","","","","","","","","",""
"","","","","","image-button-response","206","505586","0.0-3.0-2.0-1.12","63d83eafdd418ada3528719e","B2","batch2","","4784.199999988079","img/question_2_1.jpeg","1","spm_respsonse","1","2","mat_13","","","","","","1","4784.199999988079","","","","","","","","","","","","","","",""
"","","","","","html-keyboard-response","207","506638","0.0-3.0-2.0-0.13","63d83eafdd418ada3528719e","B2","batch2","","null","<p class=block-text>Trial 14 out of 60</p>","null","spm_show_trial_num","","","","","","","","","","","","","","","","","","","","","","","","",""
"","","","","","image-button-response","208","513884","0.0-3.0-2.0-1.13","63d83eafdd418ada3528719e","B2","batch2","","7244.4000000059605","img/question_2_2.jpeg","5","spm_respsonse","1","6","mat_14","","","","","","1","7244.4000000059605","","","","","","","","","","","","","","",""
"","","","","","html-keyboard-response","209","514936","0.0-3.0-2.0-0.14","63d83eafdd418ada3528719e","B2","batch2","","null","<p class=block-text>Trial 15 out of 60</p>","null","spm_show_trial_num","","","","","","","","","","","","","","","","","","","","","","","","",""
"","","","","","image-button-response","210","518688","0.0-3.0-2.0-1.14","63d83eafdd418ada3528719e","B2","batch2","","3750.699999988079","img/question_2_3.jpeg","0","spm_respsonse","1","1","mat_15","","","","","","1","3750.699999988079","","","","","","","","","","","","","","",""
"","","","","","html-keyboard-response","211","519748","0.0-3.0-2.0-0.15","63d83eafdd418ada3528719e","B2","batch2","","null","<p class=block-text>Trial 16 out of 60</p>","null","spm_show_trial_num","","","","","","","","","","","","","","","","","","","","","","","","",""
"","","","","","image-button-response","212","525826","0.0-3.0-2.0-1.15","63d83eafdd418ada3528719e","B2","batch2","","6075.5999999940395","img/question_2_4.jpeg","1","spm_respsonse","1","2","mat_16","","","","","","1","6075.5999999940395","","","","","","","","","","","","","","",""
"","","","","","html-keyboard-response","213","526877","0.0-3.0-2.0-0.16","63d83eafdd418ada3528719e","B2","batch2","","null","<p class=block-text>Trial 17 out of 60</p>","null","spm_show_trial_num","","","","","","","","","","","","","","","","","","","","","","","","",""
"","","","","","image-button-response","214","532138","0.0-3.0-2.0-1.16","63d83eafdd418ada3528719e","B2","batch2","","5258.800000011921","img/question_2_5.jpeg","0","spm_respsonse","1","1","mat_17","","","","","","1","5258.800000011921","","","","","","","","","","","","","","",""
"","","","","","html-keyboard-response","215","533197","0.0-3.0-2.0-0.17","63d83eafdd418ada3528719e","B2","batch2","","null","<p class=block-text>Trial 18 out of 60</p>","null","spm_show_trial_num","","","","","","","","","","","","","","","","","","","","","","","","",""
"","","","","","image-button-response","216","541886","0.0-3.0-2.0-1.17","63d83eafdd418ada3528719e","B2","batch2","","8686","img/question_2_6.jpeg","2","spm_respsonse","1","3","mat_18","","","","","","1","8686","","","","","","","","","","","","","","",""
"","","","","","html-keyboard-response","217","542938","0.0-3.0-2.0-0.18","63d83eafdd418ada3528719e","B2","batch2","","null","<p class=block-text>Trial 19 out of 60</p>","null","spm_show_trial_num","","","","","","","","","","","","","","","","","","","","","","","","",""
"","","","","","image-button-response","218","547405","0.0-3.0-2.0-1.18","63d83eafdd418ada3528719e","B2","batch2","","4463.0999999940395","img/question_2_7.jpeg","4","spm_respsonse","1","5","mat_19","","","","","","1","4463.0999999940395","","","","","","","","","","","","","","",""
"","","","","","html-keyboard-response","219","548457","0.0-3.0-2.0-0.19","63d83eafdd418ada3528719e","B2","batch2","","null","<p class=block-text>Trial 20 out of 60</p>","null","spm_show_trial_num","","","","","","","","","","","","","","","","","","","","","","","","",""
"","","","","","image-button-response","220","554821","0.0-3.0-2.0-1.19","63d83eafdd418ada3528719e","B2","batch2","","6361.0999999940395","img/question_2_8.jpeg","5","spm_respsonse","1","6","mat_20","","","","","","1","6361.0999999940395","","","","","","","","","","","","","","",""
"","","","","","html-keyboard-response","221","555872","0.0-3.0-2.0-0.20","63d83eafdd418ada3528719e","B2","batch2","","null","<p class=block-text>Trial 21 out of 60</p>","null","spm_show_trial_num","","","","","","","","","","","","","","","","","","","","","","","","",""
"","","","","","image-button-response","222","576908","0.0-3.0-2.0-1.20","63d83eafdd418ada3528719e","B2","batch2","","21034.30000001192","img/question_2_9.jpeg","3","spm_respsonse","1","4","mat_21","","","","","","1","21034.30000001192","","","","","","","","","","","","","","",""
"","","","","","html-keyboard-response","223","577962","0.0-3.0-2.0-0.21","63d83eafdd418ada3528719e","B2","batch2","","null","<p class=block-text>Trial 22 out of 60</p>","null","spm_show_trial_num","","","","","","","","","","","","","","","","","","","","","","","","",""
"","","","","","image-button-response","224","590475","0.0-3.0-2.0-1.21","63d83eafdd418ada3528719e","B2","batch2","","12510.09999999404","img/question_2_10.jpeg","2","spm_respsonse","1","3","mat_22","","","","","","1","12510.09999999404","","","","","","","","","","","","","","",""
"","","","","","html-keyboard-response","225","591530","0.0-3.0-2.0-0.22","63d83eafdd418ada3528719e","B2","batch2","","null","<p class=block-text>Trial 23 out of 60</p>","null","spm_show_trial_num","","","","","","","","","","","","","","","","","","","","","","","","",""
"","","","","","image-button-response","226","598045","0.0-3.0-2.0-1.22","63d83eafdd418ada3528719e","B2","batch2","","6512.299999982119","img/question_2_11.jpeg","3","spm_respsonse","1","4","mat_23","","","","","","1","6512.299999982119","","","","","","","","","","","","","","",""
"","","","","","html-keyboard-response","227","599107","0.0-3.0-2.0-0.23","63d83eafdd418ada3528719e","B2","batch2","","null","<p class=block-text>Trial 24 out of 60</p>","null","spm_show_trial_num","","","","","","","","","","","","","","","","","","","","","","","","",""
"","","","","","image-button-response","228","616927","0.0-3.0-2.0-1.23","63d83eafdd418ada3528719e","B2","batch2","","17817.90000000596","img/question_2_12.jpeg","4","spm_respsonse","1","5","mat_24","","","","","","1","17817.90000000596","","","","","","","","","","","","","","",""
"","","","","","html-button-response","229","619236","0.0-3.0-3.0","63d83eafdd418ada3528719e","B2","batch2","","2043.5","<p class = block-text>Attention check: Please choose 1<br></p>","0","attention_check","true","","","","","","","","","","","","","","","","","","","","","","","",""
"","","","","","html-keyboard-response","230","620038","0.0-3.0-4.0-0.0","63d83eafdd418ada3528719e","B2","batch2","","null","<p class=block-text>Trial 25 out of 60</p>","null","spm_show_trial_num","","","","","","","","","","","","","","","","","","","","","","","","",""
"","","","","","image-button-response","231","628838","0.0-3.0-4.0-1.0","63d83eafdd418ada3528719e","B2","batch2","","8797.59999999404","img/question_3_1.jpeg","7","spm_respsonse","1","8","mat_25","","","","","","1","8797.59999999404","","","","","","","","","","","","","","",""
"","","","","","html-keyboard-response","232","629896","0.0-3.0-4.0-0.1","63d83eafdd418ada3528719e","B2","batch2","","null","<p class=block-text>Trial 26 out of 60</p>","null","spm_show_trial_num","","","","","","","","","","","","","","","","","","","","","","","","",""
"","","","","","image-button-response","233","667082","0.0-3.0-4.0-1.1","63d83eafdd418ada3528719e","B2","batch2","","37183.5","img/question_3_2.jpeg","1","spm_respsonse","1","2","mat_26","","","","","","1","37183.5","","","","","","","","","","","","","","",""
"","","","","","html-keyboard-response","234","668135","0.0-3.0-4.0-0.2","63d83eafdd418ada3528719e","B2","batch2","","null","<p class=block-text>Trial 27 out of 60</p>","null","spm_show_trial_num","","","","","","","","","","","","","","","","","","","","","","","","",""
"","","","","","image-button-response","235","679397","0.0-3.0-4.0-1.2","63d83eafdd418ada3528719e","B2","batch2","","11258.90000000596","img/question_3_3.jpeg","2","spm_respsonse","1","3","mat_27","","","","","","1","11258.90000000596","","","","","","","","","","","","","","",""
"","","","","","html-keyboard-response","236","680449","0.0-3.0-4.0-0.3","63d83eafdd418ada3528719e","B2","batch2","","null","<p class=block-text>Trial 28 out of 60</p>","null","spm_show_trial_num","","","","","","","","","","","","","","","","","","","","","","","","",""
"","","","","","image-button-response","237","711629","0.0-3.0-4.0-1.3","63d83eafdd418ada3528719e","B2","batch2","","31177.59999999404","img/question_3_4.jpeg","7","spm_respsonse","1","8","mat_28","","","","","","1","31177.59999999404","","","","","","","","","","","","","","",""
"","","","","","html-keyboard-response","238","712681","0.0-3.0-4.0-0.4","63d83eafdd418ada3528719e","B2","batch2","","null","<p class=block-text>Trial 29 out of 60</p>","null","spm_show_trial_num","","","","","","","","","","","","","","","","","","","","","","","","",""
"","","","","","image-button-response","239","741489","0.0-3.0-4.0-1.4","63d83eafdd418ada3528719e","B2","batch2","","28806.59999999404","img/question_3_5.jpeg","6","spm_respsonse","1","7","mat_29","","","","","","1","28806.59999999404","","","","","","","","","","","","","","",""
"","","","","","html-keyboard-response","240","742540","0.0-3.0-4.0-0.5","63d83eafdd418ada3528719e","B2","batch2","","null","<p class=block-text>Trial 30 out of 60</p>","null","spm_show_trial_num","","","","","","","","","","","","","","","","","","","","","","","","",""
"","","","","","image-button-response","241","758833","0.0-3.0-4.0-1.5","63d83eafdd418ada3528719e","B2","batch2","","16290.5","img/question_3_6.jpeg","3","spm_respsonse","1","4","mat_30","","","","","","1","16290.5","","","","","","","","","","","","","","",""
"","","","","","html-keyboard-response","242","759905","0.0-3.0-4.0-0.6","63d83eafdd418ada3528719e","B2","batch2","","null","<p class=block-text>Trial 31 out of 60</p>","null","spm_show_trial_num","","","","","","","","","","","","","","","","","","","","","","","","",""
"","","","","","image-button-response","243","776185","0.0-3.0-4.0-1.6","63d83eafdd418ada3528719e","B2","batch2","","16277.59999999404","img/question_3_7.jpeg","4","spm_respsonse","1","5","mat_31","","","","","","1","16277.59999999404","","","","","","","","","","","","","","",""
"","","","","","html-keyboard-response","244","777238","0.0-3.0-4.0-0.7","63d83eafdd418ada3528719e","B2","batch2","","null","<p class=block-text>Trial 32 out of 60</p>","null","spm_show_trial_num","","","","","","","","","","","","","","","","","","","","","","","","",""
"","","","","","image-button-response","245","932644","0.0-3.0-4.0-1.7","63d83eafdd418ada3528719e","B2","batch2","","155403.80000001192","img/question_3_8.jpeg","6","spm_respsonse","0","1","mat_32","","","","","","0","155403.80000001192","","","","","","","","","","","","","","",""
"","","","","","html-keyboard-response","246","933708","0.0-3.0-4.0-0.8","63d83eafdd418ada3528719e","B2","batch2","","null","<p class=block-text>Trial 33 out of 60</p>","null","spm_show_trial_num","","","","","","","","","","","","","","","","","","","","","","","","",""
"","","","","","image-button-response","247","970961","0.0-3.0-4.0-1.8","63d83eafdd418ada3528719e","B2","batch2","","37250.19999998808","img/question_3_9.jpeg","6","spm_respsonse","1","7","mat_33","","","","","","1","37250.19999998808","","","","","","","","","","","","","","",""
"","","","","","html-keyboard-response","248","972013","0.0-3.0-4.0-0.9","63d83eafdd418ada3528719e","B2","batch2","","null","<p class=block-text>Trial 34 out of 60</p>","null","spm_show_trial_num","","","","","","","","","","","","","","","","","","","","","","","","",""
"","","","","","image-button-response","249","1014566","0.0-3.0-4.0-1.9","63d83eafdd418ada3528719e","B2","batch2","","42551.79999998212","img/question_3_10.jpeg","5","spm_respsonse","1","6","mat_34","","","","","","1","42551.79999998212","","","","","","","","","","","","","","",""
"","","","","","html-keyboard-response","250","1015619","0.0-3.0-4.0-0.10","63d83eafdd418ada3528719e","B2","batch2","","null","<p class=block-text>Trial 35 out of 60</p>","null","spm_show_trial_num","","","","","","","","","","","","","","","","","","","","","","","","",""
"","","","","","image-button-response","251","1097486","0.0-3.0-4.0-1.10","63d83eafdd418ada3528719e","B2","batch2","","81864.40000000596","img/question_3_11.jpeg","0","spm_respsonse","1","1","mat_35","","","","","","1","81864.40000000596","","","","","","","","","","","","","","",""
"","","","","","html-keyboard-response","252","1098543","0.0-3.0-4.0-0.11","63d83eafdd418ada3528719e","B2","batch2","","null","<p class=block-text>Trial 36 out of 60</p>","null","spm_show_trial_num","","","","","","","","","","","","","","","","","","","","","","","","",""
"","","","","","image-button-response","253","1161154","0.0-3.0-4.0-1.11","63d83eafdd418ada3528719e","B2","batch2","","62608.80000001192","img/question_3_12.jpeg","0","spm_respsonse","0","2","mat_36","","","","","","0","62608.80000001192","","","","","","","","","","","","","","",""
"","","","","","html-keyboard-response","254","1162207","0.0-3.0-4.0-0.12","63d83eafdd418ada3528719e","B2","batch2","","null","<p class=block-text>Trial 37 out of 60</p>","null","spm_show_trial_num","","","","","","","","","","","","","","","","","","","","","","","","",""
"","","","","","image-button-response","255","1167326","0.0-3.0-4.0-1.12","63d83eafdd418ada3528719e","B2","batch2","","5117.299999982119","img/question_4_1.jpeg","2","spm_respsonse","1","3","mat_37","","","","","","1","5117.299999982119","","","","","","","","","","","","","","",""
"","","","","","html-keyboard-response","256","1168386","0.0-3.0-4.0-0.13","63d83eafdd418ada3528719e","B2","batch2","","null","<p class=block-text>Trial 38 out of 60</p>","null","spm_show_trial_num","","","","","","","","","","","","","","","","","","","","","","","","",""
"","","","","","image-button-response","257","1182776","0.0-3.0-4.0-1.13","63d83eafdd418ada3528719e","B2","batch2","","14388","img/question_4_2.jpeg","3","spm_respsonse","1","4","mat_38","","","","","","1","14388","","","","","","","","","","","","","","",""
"","","","","","html-keyboard-response","258","1183829","0.0-3.0-4.0-0.14","63d83eafdd418ada3528719e","B2","batch2","","null","<p class=block-text>Trial 39 out of 60</p>","null","spm_show_trial_num","","","","","","","","","","","","","","","","","","","","","","","","",""
"","","","","","image-button-response","259","1206928","0.0-3.0-4.0-1.14","63d83eafdd418ada3528719e","B2","batch2","","23096.399999976158","img/question_4_3.jpeg","2","spm_respsonse","1","3","mat_39","","","","","","1","23096.399999976158","","","","","","","","","","","","","","",""
"","","","","","html-keyboard-response","260","1207991","0.0-3.0-4.0-0.15","63d83eafdd418ada3528719e","B2","batch2","","null","<p class=block-text>Trial 40 out of 60</p>","null","spm_show_trial_num","","","","","","","","","","","","","","","","","","","","","","","","",""
"","","","","","image-button-response","261","1219472","0.0-3.0-4.0-1.15","63d83eafdd418ada3528719e","B2","batch2","","11478.300000011921","img/question_4_4.jpeg","6","spm_respsonse","1","7","mat_40","","","","","","1","11478.300000011921","","","","","","","","","","","","","","",""
"","","","","","html-keyboard-response","262","1220523","0.0-3.0-4.0-0.16","63d83eafdd418ada3528719e","B2","batch2","","null","<p class=block-text>Trial 41 out of 60</p>","null","spm_show_trial_num","","","","","","","","","","","","","","","","","","","","","","","","",""
"","","","","","image-button-response","263","1236165","0.0-3.0-4.0-1.16","63d83eafdd418ada3528719e","B2","batch2","","15639.59999999404","img/question_4_5.jpeg","7","spm_respsonse","1","8","mat_41","","","","","","1","15639.59999999404","","","","","","","","","","","","","","",""
"","","","","","html-keyboard-response","264","1237218","0.0-3.0-4.0-0.17","63d83eafdd418ada3528719e","B2","batch2","","null","<p class=block-text>Trial 42 out of 60</p>","null","spm_show_trial_num","","","","","","","","","","","","","","","","","","","","","","","","",""
"","","","","","image-button-response","265","1256695","0.0-3.0-4.0-1.17","63d83eafdd418ada3528719e","B2","batch2","","19475.69999998808","img/question_4_6.jpeg","5","spm_respsonse","1","6","mat_42","","","","","","1","19475.69999998808","","","","","","","","","","","","","","",""
"","","","","","html-keyboard-response","266","1257748","0.0-3.0-4.0-0.18","63d83eafdd418ada3528719e","B2","batch2","","null","<p class=block-text>Trial 43 out of 60</p>","null","spm_show_trial_num","","","","","","","","","","","","","","","","","","","","","","","","",""
"","","","","","image-button-response","267","1313057","0.0-3.0-4.0-1.18","63d83eafdd418ada3528719e","B2","batch2","","55306","img/question_4_7.jpeg","4","spm_respsonse","1","5","mat_43","","","","","","1","55306","","","","","","","","","","","","","","",""
"","","","","","html-keyboard-response","268","1314117","0.0-3.0-4.0-0.19","63d83eafdd418ada3528719e","B2","batch2","","null","<p class=block-text>Trial 44 out of 60</p>","null","spm_show_trial_num","","","","","","","","","","","","","","","","","","","","","","","","",""
"","","","","","image-button-response","269","1363180","0.0-3.0-4.0-1.19","63d83eafdd418ada3528719e","B2","batch2","","49061.59999999404","img/question_4_8.jpeg","3","spm_respsonse","1","4","mat_44","","","","","","1","49061.59999999404","","","","","","","","","","","","","","",""
"","","","","","html-keyboard-response","270","1364247","0.0-3.0-4.0-0.20","63d83eafdd418ada3528719e","B2","batch2","","null","<p class=block-text>Trial 45 out of 60</p>","null","spm_show_trial_num","","","","","","","","","","","","","","","","","","","","","","","","",""
"","","","","","image-button-response","271","1433242","0.0-3.0-4.0-1.20","63d83eafdd418ada3528719e","B2","batch2","","68991.59999999404","img/question_4_9.jpeg","0","spm_respsonse","1","1","mat_45","","","","","","1","68991.59999999404","","","","","","","","","","","","","","",""
"","","","","","html-keyboard-response","272","1434306","0.0-3.0-4.0-0.21","63d83eafdd418ada3528719e","B2","batch2","","null","<p class=block-text>Trial 46 out of 60</p>","null","spm_show_trial_num","","","","","","","","","","","","","","","","","","","","","","","","",""
"","","","","","image-button-response","273","1501516","0.0-3.0-4.0-1.21","63d83eafdd418ada3528719e","B2","batch2","","67208.20000001788","img/question_4_10.jpeg","1","spm_respsonse","1","2","mat_46","","","","","","1","67208.20000001788","","","","","","","","","","","","","","",""
"","","","","","html-keyboard-response","274","1502568","0.0-3.0-4.0-0.22","63d83eafdd418ada3528719e","B2","batch2","","null","<p class=block-text>Trial 47 out of 60</p>","null","spm_show_trial_num","","","","","","","","","","","","","","","","","","","","","","","","",""
"","","","","","image-button-response","275","1600572","0.0-3.0-4.0-1.22","63d83eafdd418ada3528719e","B2","batch2","","98002.30000001192","img/question_4_11.jpeg","2","spm_respsonse","0","5","mat_47","","","","","","0","98002.30000001192","","","","","","","","","","","","","","",""
"","","","","","html-keyboard-response","276","1601624","0.0-3.0-4.0-0.23","63d83eafdd418ada3528719e","B2","batch2","","null","<p class=block-text>Trial 48 out of 60</p>","null","spm_show_trial_num","","","","","","","","","","","","","","","","","","","","","","","","",""
"","","","","","image-button-response","277","1713815","0.0-3.0-4.0-1.23","63d83eafdd418ada3528719e","B2","batch2","","112188.59999999404","img/question_4_12.jpeg","5","spm_respsonse","1","6","mat_48","","","","","","1","112188.59999999404","","","","","","","","","","","","","","",""
"","","","","","html-keyboard-response","278","1714880","0.0-3.0-4.0-0.24","63d83eafdd418ada3528719e","B2","batch2","","null","<p class=block-text>Trial 49 out of 60</p>","null","spm_show_trial_num","","","","","","","","","","","","","","","","","","","","","","","","",""
"","","","","","image-button-response","279","1775602","0.0-3.0-4.0-1.24","63d83eafdd418ada3528719e","B2","batch2","","60719.5","img/question_5_1.jpeg","6","spm_respsonse","1","7","mat_49","","","","","","1","60719.5","","","","","","","","","","","","","","",""
"","","","","","html-keyboard-response","280","1776674","0.0-3.0-4.0-0.25","63d83eafdd418ada3528719e","B2","batch2","","null","<p class=block-text>Trial 50 out of 60</p>","null","spm_show_trial_num","","","","","","","","","","","","","","","","","","","","","","","","",""
"","","","","","image-button-response","281","1824544","0.0-3.0-4.0-1.25","63d83eafdd418ada3528719e","B2","batch2","","47867.59999999404","img/question_5_2.jpeg","5","spm_respsonse","1","6","mat_50","","","","","","1","47867.59999999404","","","","","","","","","","","","","","",""
"","","","","","html-keyboard-response","282","1825608","0.0-3.0-4.0-0.26","63d83eafdd418ada3528719e","B2","batch2","","null","<p class=block-text>Trial 51 out of 60</p>","null","spm_show_trial_num","","","","","","","","","","","","","","","","","","","","","","","","",""
"","","","","","image-button-response","283","1888614","0.0-3.0-4.0-1.26","63d83eafdd418ada3528719e","B2","batch2","","63004","img/question_5_3.jpeg","7","spm_respsonse","1","8","mat_51","","","","","","1","63004","","","","","","","","","","","","","","",""
"","","","","","html-keyboard-response","284","1889672","0.0-3.0-4.0-0.27","63d83eafdd418ada3528719e","B2","batch2","","null","<p class=block-text>Trial 52 out of 60</p>","null","spm_show_trial_num","","","","","","","","","","","","","","","","","","","","","","","","",""
"","","","","","image-button-response","285","1914450","0.0-3.0-4.0-1.27","63d83eafdd418ada3528719e","B2","batch2","","24775.5","img/question_5_4.jpeg","1","spm_respsonse","1","2","mat_52","","","","","","1","24775.5","","","","","","","","","","","","","","",""
"","","","","","html-keyboard-response","286","1915502","0.0-3.0-4.0-0.28","63d83eafdd418ada3528719e","B2","batch2","","null","<p class=block-text>Trial 53 out of 60</p>","null","spm_show_trial_num","","","","","","","","","","","","","","","","","","","","","","","","",""
"","","","","","image-button-response","287","1929498","0.0-3.0-4.0-1.28","63d83eafdd418ada3528719e","B2","batch2","","13993.700000017881","img/question_5_5.jpeg","0","spm_respsonse","1","1","mat_53","","","","","","1","13993.700000017881","","","","","","","","","","","","","","",""
"","","","","","html-keyboard-response","288","1930556","0.0-3.0-4.0-0.29","63d83eafdd418ada3528719e","B2","batch2","","null","<p class=block-text>Trial 54 out of 60</p>","null","spm_show_trial_num","","","","","","","","","","","","","","","","","","","","","","","","",""
"","","","","","image-button-response","289","2025664","0.0-3.0-4.0-1.29","63d83eafdd418ada3528719e","B2","batch2","","95106.09999999404","img/question_5_6.jpeg","3","spm_respsonse","0","5","mat_54","","","","","","0","95106.09999999404","","","","","","","","","","","","","","",""
"","","","","","html-keyboard-response","290","2026721","0.0-3.0-4.0-0.30","63d83eafdd418ada3528719e","B2","batch2","","null","<p class=block-text>Trial 55 out of 60</p>","null","spm_show_trial_num","","","","","","","","","","","","","","","","","","","","","","","","",""
"","","","","","image-button-response","291","2057972","0.0-3.0-4.0-1.30","63d83eafdd418ada3528719e","B2","batch2","","31248.70000001788","img/question_5_7.jpeg","0","spm_respsonse","1","1","mat_55","","","","","","1","31248.70000001788","","","","","","","","","","","","","","",""
"","","","","","html-keyboard-response","292","2059032","0.0-3.0-4.0-0.31","63d83eafdd418ada3528719e","B2","batch2","","null","<p class=block-text>Trial 56 out of 60</p>","null","spm_show_trial_num","","","","","","","","","","","","","","","","","","","","","","","","",""
"","","","","","image-button-response","293","2098700","0.0-3.0-4.0-1.31","63d83eafdd418ada3528719e","B2","batch2","","39665.09999999404","img/question_5_8.jpeg","5","spm_respsonse","1","6","mat_56","","","","","","1","39665.09999999404","","","","","","","","","","","","","","",""
"","","","","","html-keyboard-response","294","2099766","0.0-3.0-4.0-0.32","63d83eafdd418ada3528719e","B2","batch2","","null","<p class=block-text>Trial 57 out of 60</p>","null","spm_show_trial_num","","","","","","","","","","","","","","","","","","","","","","","","",""
"","","","","","image-button-response","295","2178758","0.0-3.0-4.0-1.32","63d83eafdd418ada3528719e","B2","batch2","","78989.5","img/question_5_9.jpeg","2","spm_respsonse","1","3","mat_57","","","","","","1","78989.5","","","","","","","","","","","","","","",""
"","","","","","html-keyboard-response","296","2179810","0.0-3.0-4.0-0.33","63d83eafdd418ada3528719e","B2","batch2","","null","<p class=block-text>Trial 58 out of 60</p>","null","spm_show_trial_num","","","","","","","","","","","","","","","","","","","","","","","","",""
"","","","","","image-button-response","297","2243146","0.0-3.0-4.0-1.33","63d83eafdd418ada3528719e","B2","batch2","","63335.59999999404","img/question_5_10.jpeg","1","spm_respsonse","1","2","mat_58","","","","","","1","63335.59999999404","","","","","","","","","","","","","","",""
"","","","","","html-keyboard-response","298","2244206","0.0-3.0-4.0-0.34","63d83eafdd418ada3528719e","B2","batch2","","null","<p class=block-text>Trial 59 out of 60</p>","null","spm_show_trial_num","","","","","","","","","","","","","","","","","","","","","","","","",""
"","","","","","image-button-response","299","2323668","0.0-3.0-4.0-1.34","63d83eafdd418ada3528719e","B2","batch2","","79459.80000001192","img/question_5_11.jpeg","4","spm_respsonse","0","4","mat_59","","","","","","0","79459.80000001192","","","","","","","","","","","","","","",""
"","","","","","html-keyboard-response","300","2324730","0.0-3.0-4.0-0.35","63d83eafdd418ada3528719e","B2","batch2","","null","<p class=block-text>Trial 60 out of 60</p>","null","spm_show_trial_num","","","","","","","","","","","","","","","","","","","","","","","","",""
"","","","","","image-button-response","301","2441840","0.0-3.0-4.0-1.35","63d83eafdd418ada3528719e","B2","batch2","","117107.5","img/question_5_12.jpeg","4","spm_respsonse","1","5","mat_60","","","","","","1","117107.5","","","","","","","","","","","","","","",""
"","","","","","html-button-response","302","2444852","0.0-3.0-5.0","63d83eafdd418ada3528719e","B2","batch2","","2755.5","<p class= block-text>This concludes the Standard Progressive Matrix game. Thank you for your responses!<br> When you are ready, click the button continue</p>","0","spm_goodbye","","","","","","","","","","","","","","","","","","","","","","","","",""
"true","","","","","fullscreen","303","2452433","0.0-4.0-0.0","63d83eafdd418ada3528719e","B2","batch2","","","","","","","","","","","","","","","","","","","","","","","","","","","","","",""
"","","","","","instructions","304","2518405","0.0-4.0-1.0-0.0-0.0","63d83eafdd418ada3528719e","B2","batch2","[{""page_index"":0,""viewing_time"":11066.300000011921},{""page_index"":1,""viewing_time"":10321},{""page_index"":2,""viewing_time"":10154.699999988079},{""page_index"":3,""viewing_time"":11503.40000000596},{""page_index"":4,""viewing_time"":6080.199999988079},{""page_index"":5,""viewing_time"":13686.5},{""page_index"":6,""viewing_time"":3159.7000000178814}]","65972","","","tol-instructions","","","","","","","","","","","","","","","","","","","","","","","","",""
"","","","","","html-button-response","305","2520035","0.0-4.0-1.0-1.0-0.0","63d83eafdd418ada3528719e","B2","batch2","","1629","<p class=block-text> Let's answer a few questions <br>","0","tol_enter_quiz","","","","","","","","","","","","","","","","","","","","","","","","",""
"","","","","","html-button-response","306","2523371","0.0-4.0-1.0-1.0-1.0","63d83eafdd418ada3528719e","B2","batch2","","3335.199999988079","<p class = block-text>True or False: You can only move the ball on top of a peg. <br></p>","1","tol_quiz","false","","","","","","","","","","","","","","","","","","","","","","","",""
"","","","","","html-button-response","307","2526223","0.0-4.0-1.0-1.0-2.0","63d83eafdd418ada3528719e","B2","batch2","","2850.5999999940395","<p class = block-text>Incorrect. Remember, you can only move the ball on top of a peg.</p>","0","tol_quiz_feedback","","","","","","","","","","","","","","","","","","","","","","","","",""
"","","","","","html-button-response","308","2530225","0.0-4.0-1.0-1.0-3.0","63d83eafdd418ada3528719e","B2","batch2","","4001.199999988079","<p class = block-text>True or False: You should try to match your board with the target board with fewest moves possible. <br></p>","0","tol_quiz","true","","","","","","","","","","","","","","","","","","","","","","","",""
"","","","","","html-button-response","309","2530952","0.0-4.0-1.0-1.0-4.0","63d83eafdd418ada3528719e","B2","batch2","","724.9000000059605","<p class = block-text>Correct! </p>","0","tol_quiz_feedback","","","","","","","","","","","","","","","","","","","","","","","","",""
"","","","","","html-button-response","310","2532907","0.0-4.0-1.0-2.0-0.0","63d83eafdd418ada3528719e","B2","batch2","","1953.699999988079","<p class = block-text>You made too many incorrect choices.</p><p class = block-text>You will now repeat the instructions and quiz</p>","0","","","","","","","","","","","","","","","","","","","","","","","","","",""
"","","","","","instructions","311","2546781","0.0-4.0-1.1-0.1-0.1","63d83eafdd418ada3528719e","B2","batch2","[{""page_index"":0,""viewing_time"":4401.5999999940395},{""page_index"":1,""viewing_time"":1956.1000000238419},{""page_index"":2,""viewing_time"":2587.699999988079},{""page_index"":3,""viewing_time"":1012.6999999880791},{""page_index"":4,""viewing_time"":879.9000000059605},{""page_index"":5,""viewing_time"":1113.5},{""page_index"":6,""viewing_time"":1921.9000000059605}]","13873.700000017881","","","tol-instructions","","","","","","","","","","","","","","","","","","","","","","","","",""
"","","","","","html-button-response","312","2547855","0.0-4.0-1.1-1.1-0.1","63d83eafdd418ada3528719e","B2","batch2","","1072.699999988079","<p class=block-text> Let's answer a few questions <br>","0","tol_enter_quiz","","","","","","","","","","","","","","","","","","","","","","","","",""
"","","","","","html-button-response","313","2549664","0.0-4.0-1.1-1.1-1.1","63d83eafdd418ada3528719e","B2","batch2","","1807.8999999761581","<p class = block-text>True or False: You can only move the ball on top of a peg. <br></p>","0","tol_quiz","true","","","","","","","","","","","","","","","","","","","","","","","",""
"","","","","","html-button-response","314","2550397","0.0-4.0-1.1-1.1-2.1","63d83eafdd418ada3528719e","B2","batch2","","732.2999999821186","<p class = block-text>Correct! You can only move the ball on top of a peg.</p>","0","tol_quiz_feedback","","","","","","","","","","","","","","","","","","","","","","","","",""
"","","","","","html-button-response","315","2552259","0.0-4.0-1.1-1.1-3.1","63d83eafdd418ada3528719e","B2","batch2","","1861.3999999761581","<p class = block-text>True or False: You should try to match your board with the target board with fewest moves possible. <br></p>","0","tol_quiz","true","","","","","","","","","","","","","","","","","","","","","","","",""
"","","","","","html-button-response","316","2552900","0.0-4.0-1.1-1.1-4.1","63d83eafdd418ada3528719e","B2","batch2","","639.2000000178814","<p class = block-text>Correct! </p>","0","tol_quiz_feedback","","","","","","","","","","","","","","","","","","","","","","","","",""
"","","","","","html-button-response","317","2554359","0.0-4.0-2.0","63d83eafdd418ada3528719e","B2","batch2","","1458.5999999940395","<p class=block-text> Now that you've understood the game, let's practice a few easier examples before we start!<br> <br>","0","","","","","","","","","","","","","","","","","","","","","","","","","",""
"","","","","","single-stim-button","318","2556492","0.0-4.0-3.0-0.0","63d83eafdd418ada3528719e","B2","batch2","","2131","","","tol_practice","","","","","","","","","","","tol_peg_2","2131","2131","0","[[1,2,0],[0,0],[0]]","1","[[1,2,0],[0,0],[3]]","practice","2131","","","","","",""
"","","","","","single-stim-button","319","2559390","0.0-4.0-3.0-1.0","63d83eafdd418ada3528719e","B2","batch2","","2896","","","tol_practice","","","","","","","","","","","tol_peg_3","2896","2896","0","[[1,2,0],[0,0],[3]]","1","[[1,2,0],[0,0],[3]]","practice","2896","","","","","",""
"","","","","","poldrack-single-stim","320","2560392","0.0-4.0-4.0","63d83eafdd418ada3528719e","B2","batch2","","-1","","","tol_feedback","true","","","","","","","","","","","1000","1000","500","","","","","","-1","none","true","","0",""
"","","","","","single-stim-button","321","2567456","0.0-4.0-5.0-0.0","63d83eafdd418ada3528719e","B2","batch2","","7064","","","tol_practice","","","","","","","","","","","tol_peg_1","7064","7064","0","[[1,0,0],[3,0],[0]]","2","[[0,0,0],[3,1],[2]]","practice","7064","","","","","",""
"","","","","","single-stim-button","322","2569610","0.0-4.0-5.0-1.0","63d83eafdd418ada3528719e","B2","batch2","","2154","","","tol_practice","","","","","","","","","","","tol_peg_3","2154","2154","0","[[1,0,0],[3,0],[2]]","2","[[0,0,0],[3,1],[2]]","practice","2154","","","","","",""
"","","","","","single-stim-button","323","2574445","0.0-4.0-5.1-0.1","63d83eafdd418ada3528719e","B2","batch2","","4835","","","tol_practice","","","","","","","","","","","tol_peg_1","4835","4835","0","[[0,0,0],[3,0],[2]]","3","[[0,0,0],[3,1],[2]]","practice","4835","","","","","",""
"","","","","","single-stim-button","324","2582959","0.0-4.0-5.1-1.1","63d83eafdd418ada3528719e","B2","batch2","","8513","","","tol_practice","","","","","","","","","","","tol_peg_1","8513","8513","0","[[1,0,0],[3,0],[2]]","3","[[0,0,0],[3,1],[2]]","practice","8513","","","","","",""
"","","","","","single-stim-button","325","2584789","0.0-4.0-5.2-0.2","63d83eafdd418ada3528719e","B2","batch2","","1828","","","tol_practice","","","","","","","","","","","tol_peg_2","1828","1828","0","[[1,0,0],[0,0],[2]]","4","[[0,0,0],[3,1],[2]]","practice","1828","","","","","",""
"","","","","","single-stim-button","326","2592615","0.0-4.0-5.2-1.2","63d83eafdd418ada3528719e","B2","batch2","","7826","","","tol_practice","","","","","","","","","","","tol_peg_2","7826","7826","0","[[1,0,0],[3,0],[2]]","4","[[0,0,0],[3,1],[2]]","practice","7826","","","","","",""
"","","","","","single-stim-button","327","2593318","0.0-4.0-5.3-0.3","63d83eafdd418ada3528719e","B2","batch2","","701","","","tol_practice","","","","","","","","","","","tol_peg_3","701","701","0","[[1,0,0],[3,0],[0]]","5","[[0,0,0],[3,1],[2]]","practice","701","","","","","",""
"","","","","","single-stim-button","328","2595349","0.0-4.0-5.3-1.3","63d83eafdd418ada3528719e","B2","batch2","","2031","","","tol_practice","","","","","","","","","","","tol_peg_1","2031","2031","0","[[1,2,0],[3,0],[0]]","5","[[0,0,0],[3,1],[2]]","practice","2031","","","","","",""
"","","","","","single-stim-button","329","2601584","0.0-4.0-5.4-0.4","63d83eafdd418ada3528719e","B2","batch2","","6233","","","tol_practice","","","","","","","","","","","tol_peg_1","6233","6233","0","[[1,0,0],[3,0],[0]]","6","[[0,0,0],[3,1],[2]]","practice","6233","","","","","",""
"","","","","","single-stim-button","330","2603769","0.0-4.0-5.4-1.4","63d83eafdd418ada3528719e","B2","batch2","","2185","","","tol_practice","","","","","","","","","","","tol_peg_2","2185","2185","0","[[1,0,0],[3,2],[0]]","6","[[0,0,0],[3,1],[2]]","practice","2185","","","","","",""
"","","","","","single-stim-button","331","2604418","0.0-4.0-5.5-0.5","63d83eafdd418ada3528719e","B2","batch2","","647","","","tol_practice","","","","","","","","","","","tol_peg_1","647","647","0","[[0,0,0],[3,2],[0]]","7","[[0,0,0],[3,1],[2]]","practice","647","","","","","",""
"","","","","","single-stim-button","332","2607701","0.0-4.0-5.5-1.5","63d83eafdd418ada3528719e","B2","batch2","","3283","","","tol_practice","","","","","","","","","","","tol_peg_3","3283","3283","0","[[0,0,0],[3,2],[1]]","7","[[0,0,0],[3,1],[2]]","practice","3283","","","","","",""
"","","","","","single-stim-button","333","2608565","0.0-4.0-5.6-0.6","63d83eafdd418ada3528719e","B2","batch2","","863","","","tol_practice","","","","","","","","","","","tol_peg_2","863","863","0","[[0,0,0],[3,0],[1]]","8","[[0,0,0],[3,1],[2]]","practice","863","","","","","",""
"","","","","","single-stim-button","334","2614677","0.0-4.0-5.6-1.6","63d83eafdd418ada3528719e","B2","batch2","","6111","","","tol_practice","","","","","","","","","","","tol_peg_2","6111","6111","0","[[0,0,0],[3,2],[1]]","8","[[0,0,0],[3,1],[2]]","practice","6111","","","","","",""
"","","","","","single-stim-button","335","2616168","0.0-4.0-5.7-0.7","63d83eafdd418ada3528719e","B2","batch2","","1489","","","tol_practice","","","","","","","","","","","tol_peg_2","1489","1489","0","[[0,0,0],[3,0],[1]]","9","[[0,0,0],[3,1],[2]]","practice","1489","","","","","",""
"","","","","","single-stim-button","336","2617048","0.0-4.0-5.7-1.7","63d83eafdd418ada3528719e","B2","batch2","","880","","","tol_practice","","","","","","","","","","","tol_peg_1","880","880","0","[[2,0,0],[3,0],[1]]","9","[[0,0,0],[3,1],[2]]","practice","880","","","","","",""
"","","","","","single-stim-button","337","2620943","0.0-4.0-5.8-0.8","63d83eafdd418ada3528719e","B2","batch2","","3895","","","tol_practice","","","","","","","","","","","tol_peg_2","3895","3895","0","[[2,0,0],[0,0],[1]]","10","[[0,0,0],[3,1],[2]]","practice","3895","","","","","",""
"","","","","","single-stim-button","338","2622749","0.0-4.0-5.8-1.8","63d83eafdd418ada3528719e","B2","batch2","","1806","","","tol_practice","","","","","","","","","","","tol_peg_2","1806","1806","0","[[2,0,0],[3,0],[1]]","10","[[0,0,0],[3,1],[2]]","practice","1806","","","","","",""
"","","","","","single-stim-button","339","2623923","0.0-4.0-5.9-0.9","63d83eafdd418ada3528719e","B2","batch2","","1174","","","tol_practice","","","","","","","","","","","tol_peg_3","1174","1174","0","[[2,0,0],[3,0],[0]]","11","[[0,0,0],[3,1],[2]]","practice","1174","","","","","",""
"","","","","","single-stim-button","340","2628835","0.0-4.0-5.9-1.9","63d83eafdd418ada3528719e","B2","batch2","","4911","","","tol_practice","","","","","","","","","","","tol_peg_2","4911","4911","0","[[2,0,0],[3,1],[0]]","11","[[0,0,0],[3,1],[2]]","practice","4911","","","","","",""
"","","","","","single-stim-button","341","2629499","0.0-4.0-5.10-0.10","63d83eafdd418ada3528719e","B2","batch2","","664","","","tol_practice","","","","","","","","","","","tol_peg_1","664","664","0","[[0,0,0],[3,1],[0]]","12","[[0,0,0],[3,1],[2]]","practice","664","","","","","",""
"","","","","","single-stim-button","342","2631245","0.0-4.0-5.10-1.10","63d83eafdd418ada3528719e","B2","batch2","","1744","","","tol_practice","","","","","","","","","","","tol_peg_1","1744","1744","0","[[2,0,0],[3,1],[0]]","12","[[0,0,0],[3,1],[2]]","practice","1744","","","","","",""
"","","","","","single-stim-button","343","2632589","0.0-4.0-5.11-0.11","63d83eafdd418ada3528719e","B2","batch2","","1344","","","tol_practice","","","","","","","","","","","tol_peg_2","1344","1344","0","[[2,0,0],[3,0],[0]]","13","[[0,0,0],[3,1],[2]]","practice","1344","","","","","",""
"","","","","","single-stim-button","344","2634675","0.0-4.0-5.11-1.11","63d83eafdd418ada3528719e","B2","batch2","","2086","","","tol_practice","","","","","","","","","","","tol_peg_3","2086","2086","0","[[2,0,0],[3,0],[1]]","13","[[0,0,0],[3,1],[2]]","practice","2086","","","","","",""
"","","","","","single-stim-button","345","2635423","0.0-4.0-5.12-0.12","63d83eafdd418ada3528719e","B2","batch2","","748","","","tol_practice","","","","","","","","","","","tol_peg_2","748","748","0","[[2,0,0],[0,0],[1]]","14","[[0,0,0],[3,1],[2]]","practice","748","","","","","",""
