"success","timeout","failed_images","failed_audio","failed_video","trial_type","trial_index","time_elapsed","internal_node_id","subject_id","study_id","session_id","view_history","rt","stimulus","response","task","correct","answer","item","fiar_detect_rt","fiar_detect_correct","total_correct_fiar_detect","post_trial_gap","choices","spm_correct","spm_rt","mouse_click","stim_duration","block_duration","timing_post_trial","current_position","tol_num_moves_made","tol_target","tol_problem_id","tol_rt","key_press","possible_responses","tol_correct","preplanning","tol_rt_per_trial","tol_min_moves"
"true","false","[]","[]","[]","preload","0","3616","0.0-0.0","63d8766016c0bfcd19d3c732","B2","batch2","","","","","","","","","","","","","","","","","","","","","","","","","","","","","",""
"true","","","","","fullscreen","1","15850","0.0-1.0-0.0","63d8766016c0bfcd19d3c732","B2","batch2","","","","","","","","","","","","","","","","","","","","","","","","","","","","","",""
"true","","","","","fullscreen","2","19809","0.0-2.0-0.0","63d8766016c0bfcd19d3c732","B2","batch2","","","","","","","","","","","","","","","","","","","","","","","","","","","","","",""
"","","","","","instructions","3","42850","0.0-2.0-1.0-0.0","63d8766016c0bfcd19d3c732","B2","batch2","[{""page_index"":0,""viewing_time"":14129.300000011921},{""page_index"":1,""viewing_time"":8909.899999976158}]","23039.59999999404","","","","","","","","","","","","","","","","","","","","","","","","","","","",""
"","","","","","html-button-response","4","45485","0.0-2.0-1.0-1.0-0.0","63d8766016c0bfcd19d3c732","B2","batch2","","2633.800000011921","<p class=block-text> Let's answer a few questions <br>","0","pattern_enter_quiz","","","","","","","","","","","","","","","","","","","","","","","","",""
"","","","","","html-button-response","5","55706","0.0-2.0-1.0-1.0-1.0","63d8766016c0bfcd19d3c732","B2","batch2","","10219.200000017881","<p class = block-text>True or False: You will have as much time as you want to make each choice. <br></p>","0","pattern_quiz","false","","","","","","","","","","","","","","","","","","","","","","","",""
"","","","","","html-button-response","6","57925","0.0-2.0-1.0-1.0-2.0","63d8766016c0bfcd19d3c732","B2","batch2","","2217.5999999940395","<p class = block-text>Incorrect. Remember, You should make your choice as fast as you can.</p>","0","pattern_quiz_feedback","","","","","","","","","","","","","","","","","","","","","","","","",""
"","","","","","html-button-response","7","61521","0.0-2.0-1.0-1.0-3.0","63d8766016c0bfcd19d3c732","B2","batch2","","3594.199999988079","<p class = block-text>True or False: You will look for 4 pieces in black or white color connected in a row either horizontally, vertically or diagonally. <br></p>","0","pattern_quiz","true","","","","","","","","","","","","","","","","","","","","","","","",""
"","","","","","html-button-response","8","63968","0.0-2.0-1.0-1.0-4.0","63d8766016c0bfcd19d3c732","B2","batch2","","2445.5","<p class = block-text>Correct! </p>","0","pattern_quiz_feedback","","","","","","","","","","","","","","","","","","","","","","","","",""
"","","","","","html-button-response","9","66752","0.0-2.0-1.0-2.0-0.0","63d8766016c0bfcd19d3c732","B2","batch2","","2781.5","<p class = block-text>You made too many incorrect choices.</p><p class = block-text>You will now repeat the instruction and quiz</p>","0","","","","","","","","","","","","","","","","","","","","","","","","","",""
"","","","","","instructions","10","75620","0.0-2.0-1.1-0.1","63d8766016c0bfcd19d3c732","B2","batch2","[{""page_index"":0,""viewing_time"":6090.9000000059605},{""page_index"":1,""viewing_time"":2775.800000011921}]","8867","","","","","","","","","","","","","","","","","","","","","","","","","","","",""
"","","","","","html-button-response","11","76741","0.0-2.0-1.1-1.1-0.1","63d8766016c0bfcd19d3c732","B2","batch2","","1120.4000000059605","<p class=block-text> Let's answer a few questions <br>","0","pattern_enter_quiz","","","","","","","","","","","","","","","","","","","","","","","","",""
"","","","","","html-button-response","12","78376","0.0-2.0-1.1-1.1-1.1","63d8766016c0bfcd19d3c732","B2","batch2","","1633","<p class = block-text>True or False: You will have as much time as you want to make each choice. <br></p>","1","pattern_quiz","true","","","","","","","","","","","","","","","","","","","","","","","",""
"","","","","","html-button-response","13","80758","0.0-2.0-1.1-1.1-2.1","63d8766016c0bfcd19d3c732","B2","batch2","","2381.5999999940395","<p class = block-text>Correct! You should make your choice <strong> as fast as you can</strong>.</p>","0","pattern_quiz_feedback","","","","","","","","","","","","","","","","","","","","","","","","",""
"","","","","","html-button-response","14","82697","0.0-2.0-1.1-1.1-3.1","63d8766016c0bfcd19d3c732","B2","batch2","","1937.4000000059605","<p class = block-text>True or False: You will look for 4 pieces in black or white color connected in a row either horizontally, vertically or diagonally. <br></p>","0","pattern_quiz","true","","","","","","","","","","","","","","","","","","","","","","","",""
"","","","","","html-button-response","15","83679","0.0-2.0-1.1-1.1-4.1","63d8766016c0bfcd19d3c732","B2","batch2","","980.5999999940395","<p class = block-text>Correct! </p>","0","pattern_quiz_feedback","","","","","","","","","","","","","","","","","","","","","","","","",""
"","","","","","html-button-response","16","86114","0.0-2.0-2.0","63d8766016c0bfcd19d3c732","B2","batch2","","2434","<p class=block-text> Now that you've understood the game, let's do a few practice trials before we start!<br> <br>","0","pattern_enter_practice","","","","","","","","","","","","","","","","","","","","","","","","",""
"","","","","","image-keyboard-response","17","89510","0.0-2.0-3.0-0.0","63d8766016c0bfcd19d3c732","B2","batch2","","3374.9000000059605","stim/prac_no_16_1.png","j","pattern_practice","true","j","","","","","","","","","","","","","","","","","","","","","","",""
"","","","","","html-keyboard-response","18","90533","0.0-2.0-3.0-1.0","63d8766016c0bfcd19d3c732","B2","batch2","","null","<p style=""font-size:30px;color:green;"">Correct!</p>","null","pattern_feedback","","","","","","","","","","","","","","","","","","","","","","","","",""
"","","","","","image-keyboard-response","19","93822","0.0-2.0-3.0-0.1","63d8766016c0bfcd19d3c732","B2","batch2","","3287.7000000178814","stim/prac_no_18_1.png","j","pattern_practice","true","j","","","","","","","","","","","","","","","","","","","","","","",""
"","","","","","html-keyboard-response","20","94835","0.0-2.0-3.0-1.1","63d8766016c0bfcd19d3c732","B2","batch2","","null","<p style=""font-size:30px;color:green;"">Correct!</p>","null","pattern_feedback","","","","","","","","","","","","","","","","","","","","","","","","",""
"","","","","","image-keyboard-response","21","95962","0.0-2.0-3.0-0.2","63d8766016c0bfcd19d3c732","B2","batch2","","1125.3999999761581","stim/prac_yes_16_ver_w1.png","f","pattern_practice","true","f","","","","","","","","","","","","","","","","","","","","","","",""
"","","","","","html-keyboard-response","22","96972","0.0-2.0-3.0-1.2","63d8766016c0bfcd19d3c732","B2","batch2","","null","<p style=""font-size:30px;color:green;"">Correct!</p>","null","pattern_feedback","","","","","","","","","","","","","","","","","","","","","","","","",""
"","","","","","image-keyboard-response","23","99431","0.0-2.0-3.0-0.3","63d8766016c0bfcd19d3c732","B2","batch2","","2457","stim/prac_yes_20_dia_b1.png","j","pattern_practice","false","f","","","","","","","","","","","","","","","","","","","","","","",""
"","","","","","html-keyboard-response","24","100452","0.0-2.0-3.0-1.3","63d8766016c0bfcd19d3c732","B2","batch2","","null","<p style=""font-size:30px;color:red;"">Wrong.</p>","null","pattern_feedback","","","","","","","","","","","","","","","","","","","","","","","","",""
"","","","","","image-keyboard-response","25","101983","0.0-2.0-3.0-0.4","63d8766016c0bfcd19d3c732","B2","batch2","","1529.0999999940395","stim/prac_yes_18_hor_w1.png","f","pattern_practice","true","f","","","","","","","","","","","","","","","","","","","","","","",""
"","","","","","html-keyboard-response","26","102996","0.0-2.0-3.0-1.4","63d8766016c0bfcd19d3c732","B2","batch2","","null","<p style=""font-size:30px;color:green;"">Correct!</p>","null","pattern_feedback","","","","","","","","","","","","","","","","","","","","","","","","",""
"","","","","","html-button-response","27","107840","0.0-2.0-4.0","63d8766016c0bfcd19d3c732","B2","batch2","","4841.699999988079","<p class=block-text> Good job! You are done with practice trials!<br>
        You responded correctly on 80% of the trials.<br>
        Press the button below to start official trials. Now you won't see any feedback about your response</p>","0","pattern_enter_official_trials","","","","","","","","","","","","","","","","","","","","","","","","",""
"","","","","","html-keyboard-response","28","108650","0.0-2.0-5.0-0.0","63d8766016c0bfcd19d3c732","B2","batch2","","null","<p class=block-text>Trial 1 out of 78</p>","null","pattern_show_trial_num","","","","","","","","","","","","","","","","","","","","","","","","",""
"","","","","","image-keyboard-response","29","111504","0.0-2.0-5.0-1.0","63d8766016c0bfcd19d3c732","B2","batch2","","2851.5","stim/no_12_1.png","j","pattern_response","true","j","pattern_01","2851.5","true","1","","","","","","","","","","","","","","","","","","",""
"","","","","","html-keyboard-response","30","112820","0.0-2.0-5.0-0.1","63d8766016c0bfcd19d3c732","B2","batch2","","null","<p class=block-text>Trial 2 out of 78</p>","null","pattern_show_trial_num","","","","","","","","","","","","","","","","","","","","","","","","",""
"","","","","","image-keyboard-response","31","119807","0.0-2.0-5.0-1.1","63d8766016c0bfcd19d3c732","B2","batch2","","6985.299999982119","stim/no_28_2.png","j","pattern_response","true","j","pattern_11","6985.299999982119","true","2","","","","","","","","","","","","","","","","","","",""
"","","","","","html-keyboard-response","32","121124","0.0-2.0-5.0-0.2","63d8766016c0bfcd19d3c732","B2","batch2","","null","<p class=block-text>Trial 3 out of 78</p>","null","pattern_show_trial_num","","","","","","","","","","","","","","","","","","","","","","","","",""
"","","","","","image-keyboard-response","33","132517","0.0-2.0-5.0-1.2","63d8766016c0bfcd19d3c732","B2","batch2","","11390.90000000596","stim/yes_58_dia_w1_w.png","j","pattern_response","false","f","pattern_76","11390.90000000596","false","2","","","","","","","","","","","","","","","","","","",""
"","","","","","html-keyboard-response","34","133836","0.0-2.0-5.0-0.3","63d8766016c0bfcd19d3c732","B2","batch2","","null","<p class=block-text>Trial 4 out of 78</p>","null","pattern_show_trial_num","","","","","","","","","","","","","","","","","","","","","","","","",""
"","","","","","image-keyboard-response","35","148404","0.0-2.0-5.0-1.3","63d8766016c0bfcd19d3c732","B2","batch2","","14566.799999982119","stim/no_67_1.png","j","pattern_response","true","j","pattern_39","14566.799999982119","true","3","","","","","","","","","","","","","","","","","","",""
"","","","","","html-keyboard-response","36","149723","0.0-2.0-5.0-0.4","63d8766016c0bfcd19d3c732","B2","batch2","","null","<p class=block-text>Trial 5 out of 78</p>","null","pattern_show_trial_num","","","","","","","","","","","","","","","","","","","","","","","","",""
"","","","","","image-keyboard-response","37","166610","0.0-2.0-5.0-1.4","63d8766016c0bfcd19d3c732","B2","batch2","","16884.09999999404","stim/no_53_1_b.png","j","pattern_response","true","j","pattern_33","16884.09999999404","true","4","","","","","","","","","","","","","","","","","","",""
"","","","","","html-keyboard-response","38","167923","0.0-2.0-5.0-0.5","63d8766016c0bfcd19d3c732","B2","batch2","","null","<p class=block-text>Trial 6 out of 78</p>","null","pattern_show_trial_num","","","","","","","","","","","","","","","","","","","","","","","","",""
"","","","","","image-keyboard-response","39","176530","0.0-2.0-5.0-1.5","63d8766016c0bfcd19d3c732","B2","batch2","","8604.5","stim/no_30_1_b.png","j","pattern_response","true","j","pattern_13","8604.5","true","5","","","","","","","","","","","","","","","","","","",""
"","","","","","html-keyboard-response","40","177843","0.0-2.0-5.0-0.6","63d8766016c0bfcd19d3c732","B2","batch2","","null","<p class=block-text>Trial 7 out of 78</p>","null","pattern_show_trial_num","","","","","","","","","","","","","","","","","","","","","","","","",""
"","","","","","image-keyboard-response","41","179555","0.0-2.0-5.0-1.6","63d8766016c0bfcd19d3c732","B2","batch2","","1710.5","stim/yes_44_ver_w1_w.png","f","pattern_response","true","f","pattern_66","1710.5","true","6","","","","","","","","","","","","","","","","","","",""
"","","","","","html-keyboard-response","42","180871","0.0-2.0-5.0-0.7","63d8766016c0bfcd19d3c732","B2","batch2","","null","<p class=block-text>Trial 8 out of 78</p>","null","pattern_show_trial_num","","","","","","","","","","","","","","","","","","","","","","","","",""
"","","","","","image-keyboard-response","43","181907","0.0-2.0-5.0-1.7","63d8766016c0bfcd19d3c732","B2","batch2","","1034.5","stim/yes_17_ver_b1_b.png","f","pattern_response","true","f","pattern_46","1034.5","true","7","","","","","","","","","","","","","","","","","","",""
"","","","","","html-keyboard-response","44","183227","0.0-2.0-5.0-0.8","63d8766016c0bfcd19d3c732","B2","batch2","","null","<p class=block-text>Trial 9 out of 78</p>","null","pattern_show_trial_num","","","","","","","","","","","","","","","","","","","","","","","","",""
"","","","","","image-keyboard-response","45","191344","0.0-2.0-5.0-1.8","63d8766016c0bfcd19d3c732","B2","batch2","","8115.5999999940395","stim/no_47_1_b.png","j","pattern_response","true","j","pattern_27","8115.5999999940395","true","8","","","","","","","","","","","","","","","","","","",""
"","","","","","html-keyboard-response","46","192659","0.0-2.0-5.0-0.9","63d8766016c0bfcd19d3c732","B2","batch2","","null","<p class=block-text>Trial 10 out of 78</p>","null","pattern_show_trial_num","","","","","","","","","","","","","","","","","","","","","","","","",""
"","","","","","image-keyboard-response","47","201394","0.0-2.0-5.0-1.9","63d8766016c0bfcd19d3c732","B2","batch2","","8732.90000000596","stim/no_39_1_w.png","j","pattern_response","true","j","pattern_21","8732.90000000596","true","9","","","","","","","","","","","","","","","","","","",""
"","","","","","html-keyboard-response","48","202709","0.0-2.0-5.0-0.10","63d8766016c0bfcd19d3c732","B2","batch2","","null","<p class=block-text>Trial 11 out of 78</p>","null","pattern_show_trial_num","","","","","","","","","","","","","","","","","","","","","","","","",""
"","","","","","image-keyboard-response","49","203808","0.0-2.0-5.0-1.10","63d8766016c0bfcd19d3c732","B2","batch2","","1096.2999999821186","stim/yes_39_hor_w1_w.png","f","pattern_response","true","f","pattern_62","1096.2999999821186","true","10","","","","","","","","","","","","","","","","","","",""
"","","","","","html-keyboard-response","50","205121","0.0-2.0-5.0-0.11","63d8766016c0bfcd19d3c732","B2","batch2","","null","<p class=block-text>Trial 12 out of 78</p>","null","pattern_show_trial_num","","","","","","","","","","","","","","","","","","","","","","","","",""
"","","","","","image-keyboard-response","51","206220","0.0-2.0-5.0-1.11","63d8766016c0bfcd19d3c732","B2","batch2","","1097.2000000178814","stim/yes_46_ver_b1_b.png","f","pattern_response","true","f","pattern_68","1097.2000000178814","true","11","","","","","","","","","","","","","","","","","","",""
"","","","","","html-keyboard-response","52","207538","0.0-2.0-5.0-0.12","63d8766016c0bfcd19d3c732","B2","batch2","","null","<p class=block-text>Trial 13 out of 78</p>","null","pattern_show_trial_num","","","","","","","","","","","","","","","","","","","","","","","","",""
"","","","","","image-keyboard-response","53","210389","0.0-2.0-5.0-1.12","63d8766016c0bfcd19d3c732","B2","batch2","","2848.7999999821186","stim/yes_29_hor_b1_b.png","f","pattern_response","true","f","pattern_52","2848.7999999821186","true","12","","","","","","","","","","","","","","","","","","",""
"","","","","","html-keyboard-response","54","211706","0.0-2.0-5.0-0.13","63d8766016c0bfcd19d3c732","B2","batch2","","null","<p class=block-text>Trial 14 out of 78</p>","null","pattern_show_trial_num","","","","","","","","","","","","","","","","","","","","","","","","",""
"","","","","","image-keyboard-response","55","213224","0.0-2.0-5.0-1.13","63d8766016c0bfcd19d3c732","B2","batch2","","1515.2999999821186","stim/yes_33_dia_w1_w.png","f","pattern_response","true","f","pattern_56","1515.2999999821186","true","13","","","","","","","","","","","","","","","","","","",""
"","","","","","html-keyboard-response","56","214538","0.0-2.0-5.0-0.14","63d8766016c0bfcd19d3c732","B2","batch2","","null","<p class=block-text>Trial 15 out of 78</p>","null","pattern_show_trial_num","","","","","","","","","","","","","","","","","","","","","","","","",""
"","","","","","image-keyboard-response","57","229564","0.0-2.0-5.0-1.14","63d8766016c0bfcd19d3c732","B2","batch2","","15023.600000023842","stim/no_58_1_w.png","j","pattern_response","true","j","pattern_35","15023.600000023842","true","14","","","","","","","","","","","","","","","","","","",""
"","","","","","html-keyboard-response","58","230882","0.0-2.0-5.0-0.15","63d8766016c0bfcd19d3c732","B2","batch2","","null","<p class=block-text>Trial 16 out of 78</p>","null","pattern_show_trial_num","","","","","","","","","","","","","","","","","","","","","","","","",""
"","","","","","image-keyboard-response","59","231745","0.0-2.0-5.0-1.15","63d8766016c0bfcd19d3c732","B2","batch2","","861.5","stim/yes_12_hor_w1_w.png","f","pattern_response","true","f","pattern_42","861.5","true","15","","","","","","","","","","","","","","","","","","",""
"","","","","","html-keyboard-response","60","233062","0.0-2.0-5.0-0.16","63d8766016c0bfcd19d3c732","B2","batch2","","null","<p class=block-text>Trial 17 out of 78</p>","null","pattern_show_trial_num","","","","","","","","","","","","","","","","","","","","","","","","",""
"","","","","","image-keyboard-response","61","235714","0.0-2.0-5.0-1.16","63d8766016c0bfcd19d3c732","B2","batch2","","2650.800000011921","stim/yes_70_ver_b1.png","f","pattern_response","true","f","pattern_80","2650.800000011921","true","16","","","","","","","","","","","","","","","","","","",""
"","","","","","html-keyboard-response","62","237034","0.0-2.0-5.0-0.17","63d8766016c0bfcd19d3c732","B2","batch2","","null","<p class=block-text>Trial 18 out of 78</p>","null","pattern_show_trial_num","","","","","","","","","","","","","","","","","","","","","","","","",""
"","","","","","image-keyboard-response","63","238994","0.0-2.0-5.0-1.17","63d8766016c0bfcd19d3c732","B2","batch2","","1957.9000000059605","stim/no_15_1_w.png","j","pattern_response","true","j","pattern_03","1957.9000000059605","true","17","","","","","","","","","","","","","","","","","","",""
"","","","","","html-keyboard-response","64","240314","0.0-2.0-5.0-0.18","63d8766016c0bfcd19d3c732","B2","batch2","","null","<p class=block-text>Trial 19 out of 78</p>","null","pattern_show_trial_num","","","","","","","","","","","","","","","","","","","","","","","","",""
"","","","","","image-keyboard-response","65","245042","0.0-2.0-5.0-1.18","63d8766016c0bfcd19d3c732","B2","batch2","","4713.799999982119","stim/no_25_1_b.png","j","pattern_response","true","j","pattern_09","4713.799999982119","true","18","","","","","","","","","","","","","","","","","","",""
"","","","","","html-keyboard-response","66","246362","0.0-2.0-5.0-0.19","63d8766016c0bfcd19d3c732","B2","batch2","","null","<p class=block-text>Trial 20 out of 78</p>","null","pattern_show_trial_num","","","","","","","","","","","","","","","","","","","","","","","","",""
"","","","","","image-keyboard-response","67","252293","0.0-2.0-5.0-1.19","63d8766016c0bfcd19d3c732","B2","batch2","","5929.299999982119","stim/yes_42_dia_w1_w.png","f","pattern_response","true","f","pattern_64","5929.299999982119","true","19","","","","","","","","","","","","","","","","","","",""
"","","","","","html-keyboard-response","68","253610","0.0-2.0-5.0-0.20","63d8766016c0bfcd19d3c732","B2","batch2","","null","<p class=block-text>Trial 21 out of 78</p>","null","pattern_show_trial_num","","","","","","","","","","","","","","","","","","","","","","","","",""
"","","","","","image-keyboard-response","69","260085","0.0-2.0-5.0-1.20","63d8766016c0bfcd19d3c732","B2","batch2","","6473.600000023842","stim/no_37_2_w.png","j","pattern_response","true","j","pattern_19","6473.600000023842","true","20","","","","","","","","","","","","","","","","","","",""
"","","","","","html-keyboard-response","70","261401","0.0-2.0-5.0-0.21","63d8766016c0bfcd19d3c732","B2","batch2","","null","<p class=block-text>Trial 22 out of 78</p>","null","pattern_show_trial_num","","","","","","","","","","","","","","","","","","","","","","","","",""
"","","","","","image-keyboard-response","71","267665","0.0-2.0-5.0-1.21","63d8766016c0bfcd19d3c732","B2","batch2","","6262","stim/no_36_1_b.png","j","pattern_response","true","j","pattern_17","6262","true","21","","","","","","","","","","","","","","","","","","",""
"","","","","","html-keyboard-response","72","268981","0.0-2.0-5.0-0.22","63d8766016c0bfcd19d3c732","B2","batch2","","null","<p class=block-text>Trial 23 out of 78</p>","null","pattern_show_trial_num","","","","","","","","","","","","","","","","","","","","","","","","",""
"","","","","","image-keyboard-response","73","270035","0.0-2.0-5.0-1.22","63d8766016c0bfcd19d3c732","B2","batch2","","1052.7000000178814","stim/yes_30_ver_b1_b.png","f","pattern_response","true","f","pattern_54","1052.7000000178814","true","22","","","","","","","","","","","","","","","","","","",""
"","","","","","html-keyboard-response","74","271353","0.0-2.0-5.0-0.23","63d8766016c0bfcd19d3c732","B2","batch2","","null","<p class=block-text>Trial 24 out of 78</p>","null","pattern_show_trial_num","","","","","","","","","","","","","","","","","","","","","","","","",""
"","","","","","image-keyboard-response","75","272204","0.0-2.0-5.0-1.23","63d8766016c0bfcd19d3c732","B2","batch2","","849.1000000238419","stim/yes_37_hor_w1_w.png","f","pattern_response","true","f","pattern_60","849.1000000238419","true","23","","","","","","","","","","","","","","","","","","",""
"","","","","","html-keyboard-response","76","273521","0.0-2.0-5.0-0.24","63d8766016c0bfcd19d3c732","B2","batch2","","null","<p class=block-text>Trial 25 out of 78</p>","null","pattern_show_trial_num","","","","","","","","","","","","","","","","","","","","","","","","",""
"","","","","","image-keyboard-response","77","274835","0.0-2.0-5.0-1.24","63d8766016c0bfcd19d3c732","B2","batch2","","1312.4000000059605","stim/yes_49_hor_w1_b.png","f","pattern_response","true","f","pattern_70","1312.4000000059605","true","24","","","","","","","","","","","","","","","","","","",""
"","","","","","html-keyboard-response","78","276152","0.0-2.0-5.0-0.25","63d8766016c0bfcd19d3c732","B2","batch2","","null","<p class=block-text>Trial 26 out of 78</p>","null","pattern_show_trial_num","","","","","","","","","","","","","","","","","","","","","","","","",""
"","","","","","image-keyboard-response","79","280769","0.0-2.0-5.0-1.25","63d8766016c0bfcd19d3c732","B2","batch2","","4614.9000000059605","stim/yes_51_dia_b1.png","f","pattern_response","true","f","pattern_72","4614.9000000059605","true","25","","","","","","","","","","","","","","","","","","",""
"","","","","","html-keyboard-response","80","282087","0.0-2.0-5.0-0.26","63d8766016c0bfcd19d3c732","B2","batch2","","null","<p class=block-text>Trial 27 out of 78</p>","null","pattern_show_trial_num","","","","","","","","","","","","","","","","","","","","","","","","",""
"","","","","","image-keyboard-response","81","289239","0.0-2.0-5.0-1.26","63d8766016c0bfcd19d3c732","B2","batch2","","7150.300000011921","stim/no_45_1_w.png","j","pattern_response","true","j","pattern_25","7150.300000011921","true","26","","","","","","","","","","","","","","","","","","",""
"","","","","","html-keyboard-response","82","290553","0.0-2.0-5.0-0.27","63d8766016c0bfcd19d3c732","B2","batch2","","null","<p class=block-text>Trial 28 out of 78</p>","null","pattern_show_trial_num","","","","","","","","","","","","","","","","","","","","","","","","",""
"","","","","","image-keyboard-response","83","291733","0.0-2.0-5.0-1.27","63d8766016c0bfcd19d3c732","B2","batch2","","1177.7999999821186","stim/yes_53_ver_b1_b.png","f","pattern_response","true","f","pattern_74","1177.7999999821186","true","27","","","","","","","","","","","","","","","","","","",""
"","","","","","html-keyboard-response","84","293044","0.0-2.0-5.0-0.28","63d8766016c0bfcd19d3c732","B2","batch2","","null","<p class=block-text>Trial 29 out of 78</p>","null","pattern_show_trial_num","","","","","","","","","","","","","","","","","","","","","","","","",""
"","","","","","image-keyboard-response","85","301091","0.0-2.0-5.0-1.28","63d8766016c0bfcd19d3c732","B2","batch2","","8045.300000011921","stim/no_49_2_b.png","j","pattern_response","true","j","pattern_29","8045.300000011921","true","28","","","","","","","","","","","","","","","","","","",""
"","","","","","html-keyboard-response","86","302405","0.0-2.0-5.0-0.29","63d8766016c0bfcd19d3c732","B2","batch2","","null","<p class=block-text>Trial 30 out of 78</p>","null","pattern_show_trial_num","","","","","","","","","","","","","","","","","","","","","","","","",""
"","","","","","image-keyboard-response","87","303320","0.0-2.0-5.0-1.29","63d8766016c0bfcd19d3c732","B2","batch2","","913.0999999940395","stim/yes_15_dia_b1u_b.png","f","pattern_response","true","f","pattern_44","913.0999999940395","true","29","","","","","","","","","","","","","","","","","","",""
"","","","","","html-keyboard-response","88","304641","0.0-2.0-5.0-0.30","63d8766016c0bfcd19d3c732","B2","batch2","","null","<p class=block-text>Trial 31 out of 78</p>","null","pattern_show_trial_num","","","","","","","","","","","","","","","","","","","","","","","","",""
"","","","","","image-keyboard-response","89","305684","0.0-2.0-5.0-1.30","63d8766016c0bfcd19d3c732","B2","batch2","","1041.7000000178814","stim/yes_26_dia_w2_w.png","f","pattern_response","true","f","pattern_50","1041.7000000178814","true","30","","","","","","","","","","","","","","","","","","",""
"","","","","","html-keyboard-response","90","307001","0.0-2.0-5.0-0.31","63d8766016c0bfcd19d3c732","B2","batch2","","null","<p class=block-text>Trial 32 out of 78</p>","null","pattern_show_trial_num","","","","","","","","","","","","","","","","","","","","","","","","",""
"","","","","","image-keyboard-response","91","309314","0.0-2.0-5.0-1.31","63d8766016c0bfcd19d3c732","B2","batch2","","2312.4000000059605","stim/no_22_1_b.png","j","pattern_response","true","j","pattern_07","2312.4000000059605","true","31","","","","","","","","","","","","","","","","","","",""
"","","","","","html-keyboard-response","92","310633","0.0-2.0-5.0-0.32","63d8766016c0bfcd19d3c732","B2","batch2","","null","<p class=block-text>Trial 33 out of 78</p>","null","pattern_show_trial_num","","","","","","","","","","","","","","","","","","","","","","","","",""
"","","","","","image-keyboard-response","93","317263","0.0-2.0-5.0-1.32","63d8766016c0bfcd19d3c732","B2","batch2","","6628.199999988079","stim/no_51_1.png","j","pattern_response","true","j","pattern_31","6628.199999988079","true","32","","","","","","","","","","","","","","","","","","",""
"","","","","","html-keyboard-response","94","318573","0.0-2.0-5.0-0.33","63d8766016c0bfcd19d3c732","B2","batch2","","null","<p class=block-text>Trial 34 out of 78</p>","null","pattern_show_trial_num","","","","","","","","","","","","","","","","","","","","","","","","",""
"","","","","","image-keyboard-response","95","319775","0.0-2.0-5.0-1.33","63d8766016c0bfcd19d3c732","B2","batch2","","1200.5","stim/yes_23_ver_b1.png","f","pattern_response","true","f","pattern_48","1200.5","true","33","","","","","","","","","","","","","","","","","","",""
"","","","","","html-keyboard-response","96","321093","0.0-2.0-5.0-0.34","63d8766016c0bfcd19d3c732","B2","batch2","","null","<p class=block-text>Trial 35 out of 78</p>","null","pattern_show_trial_num","","","","","","","","","","","","","","","","","","","","","","","","",""
"","","","","","image-keyboard-response","97","322593","0.0-2.0-5.0-1.34","63d8766016c0bfcd19d3c732","B2","batch2","","1498","stim/no_18_1_b.png","j","pattern_response","true","j","pattern_05","1498","true","34","","","","","","","","","","","","","","","","","","",""
"","","","","","html-keyboard-response","98","323912","0.0-2.0-5.0-0.35","63d8766016c0bfcd19d3c732","B2","batch2","","null","<p class=block-text>Trial 36 out of 78</p>","null","pattern_show_trial_num","","","","","","","","","","","","","","","","","","","","","","","","",""
"","","","","","image-keyboard-response","99","328363","0.0-2.0-5.0-1.35","63d8766016c0bfcd19d3c732","B2","batch2","","4448.9000000059605","stim/yes_63_dia_b1.png","f","pattern_response","true","f","pattern_78","4448.9000000059605","true","35","","","","","","","","","","","","","","","","","","",""
"","","","","","html-keyboard-response","100","329680","0.0-2.0-5.0-0.36","63d8766016c0bfcd19d3c732","B2","batch2","","null","<p class=block-text>Trial 37 out of 78</p>","null","pattern_show_trial_num","","","","","","","","","","","","","","","","","","","","","","","","",""
"","","","","","image-keyboard-response","101","330921","0.0-2.0-5.0-1.36","63d8766016c0bfcd19d3c732","B2","batch2","","1238.800000011921","stim/yes_36_ver_w1_w.png","f","pattern_response","true","f","pattern_58","1238.800000011921","true","36","","","","","","","","","","","","","","","","","","",""
"","","","","","html-keyboard-response","102","332238","0.0-2.0-5.0-0.37","63d8766016c0bfcd19d3c732","B2","batch2","","null","<p class=block-text>Trial 38 out of 78</p>","null","pattern_show_trial_num","","","","","","","","","","","","","","","","","","","","","","","","",""
"","","","","","image-keyboard-response","103","337364","0.0-2.0-5.0-1.37","63d8766016c0bfcd19d3c732","B2","batch2","","5124.5","stim/no_33_1_b.png","j","pattern_response","true","j","pattern_15","5124.5","true","37","","","","","","","","","","","","","","","","","","",""
"","","","","","html-keyboard-response","104","338680","0.0-2.0-5.0-0.38","63d8766016c0bfcd19d3c732","B2","batch2","","null","<p class=block-text>Trial 39 out of 78</p>","null","pattern_show_trial_num","","","","","","","","","","","","","","","","","","","","","","","","",""
"","","","","","image-keyboard-response","105","344770","0.0-2.0-5.0-1.38","63d8766016c0bfcd19d3c732","B2","batch2","","6088.300000011921","stim/no_43_2_b.png","j","pattern_response","true","j","pattern_23","6088.300000011921","true","38","","","","","","","","","","","","","","","","","","",""
"","","","","","image-keyboard-response","106","347557","0.0-2.0-6.0","63d8766016c0bfcd19d3c732","B2","batch2","","2280.5999999940395","stim/empty_board.png","j","attention_check","true","j","","","","","500","[""f"",""j""]","","","","","","","","","","","","","","","","",""
"","","","","","html-keyboard-response","107","348368","0.0-2.0-7.0-0.0","63d8766016c0bfcd19d3c732","B2","batch2","","null","<p class=block-text>Trial 40 out of 78</p>","null","pattern_show_trial_num","","","","","","","","","","","","","","","","","","","","","","","","",""
"","","","","","image-keyboard-response","108","355677","0.0-2.0-7.0-1.0","63d8766016c0bfcd19d3c732","B2","batch2","","7306.899999976158","stim/no_46_1_b.png","j","pattern_response","true","j","pattern_26","7306.899999976158","true","39","","","","","","","","","","","","","","","","","","",""
"","","","","","html-keyboard-response","109","356992","0.0-2.0-7.0-0.1","63d8766016c0bfcd19d3c732","B2","batch2","","null","<p class=block-text>Trial 41 out of 78</p>","null","pattern_show_trial_num","","","","","","","","","","","","","","","","","","","","","","","","",""
"","","","","","image-keyboard-response","110","362256","0.0-2.0-7.0-1.1","63d8766016c0bfcd19d3c732","B2","batch2","","5262.699999988079","stim/no_34_1_b.png","j","pattern_response","true","j","pattern_16","5262.699999988079","true","40","","","","","","","","","","","","","","","","","","",""
"","","","","","html-keyboard-response","111","363576","0.0-2.0-7.0-0.2","63d8766016c0bfcd19d3c732","B2","batch2","","null","<p class=block-text>Trial 42 out of 78</p>","null","pattern_show_trial_num","","","","","","","","","","","","","","","","","","","","","","","","",""
"","","","","","image-keyboard-response","112","364649","0.0-2.0-7.0-1.2","63d8766016c0bfcd19d3c732","B2","batch2","","1071.7999999821186","stim/yes_25_hor_b1_b.png","f","pattern_response","true","f","pattern_49","1071.7999999821186","true","41","","","","","","","","","","","","","","","","","","",""
"","","","","","html-keyboard-response","113","365964","0.0-2.0-7.0-0.3","63d8766016c0bfcd19d3c732","B2","batch2","","null","<p class=block-text>Trial 43 out of 78</p>","null","pattern_show_trial_num","","","","","","","","","","","","","","","","","","","","","","","","",""
"","","","","","image-keyboard-response","114","371022","0.0-2.0-7.0-1.3","63d8766016c0bfcd19d3c732","B2","batch2","","5056.699999988079","stim/no_38_1_b.png","j","pattern_response","true","j","pattern_20","5056.699999988079","true","42","","","","","","","","","","","","","","","","","","",""
"","","","","","html-keyboard-response","115","372343","0.0-2.0-7.0-0.4","63d8766016c0bfcd19d3c732","B2","batch2","","null","<p class=block-text>Trial 44 out of 78</p>","null","pattern_show_trial_num","","","","","","","","","","","","","","","","","","","","","","","","",""
"","","","","","image-keyboard-response","116","376048","0.0-2.0-7.0-1.4","63d8766016c0bfcd19d3c732","B2","batch2","","3702.7999999821186","stim/yes_40_dia_b1_b.png","j","pattern_response","false","f","pattern_63","3702.7999999821186","false","42","","","","","","","","","","","","","","","","","","",""
"","","","","","html-keyboard-response","117","377367","0.0-2.0-7.0-0.5","63d8766016c0bfcd19d3c732","B2","batch2","","null","<p class=block-text>Trial 45 out of 78</p>","null","pattern_show_trial_num","","","","","","","","","","","","","","","","","","","","","","","","",""
"","","","","","image-keyboard-response","118","378341","0.0-2.0-7.0-1.5","63d8766016c0bfcd19d3c732","B2","batch2","","971.6999999880791","stim/yes_17_dia_w1.png","f","pattern_response","true","f","pattern_45","971.6999999880791","true","43","","","","","","","","","","","","","","","","","","",""
"","","","","","html-keyboard-response","119","379655","0.0-2.0-7.0-0.6","63d8766016c0bfcd19d3c732","B2","batch2","","null","<p class=block-text>Trial 46 out of 78</p>","null","pattern_show_trial_num","","","","","","","","","","","","","","","","","","","","","","","","",""
"","","","","","image-keyboard-response","120","380681","0.0-2.0-7.0-1.6","63d8766016c0bfcd19d3c732","B2","batch2","","1024.2000000178814","stim/yes_43_ver_w1_w.png","f","pattern_response","true","f","pattern_65","1024.2000000178814","true","44","","","","","","","","","","","","","","","","","","",""
"","","","","","html-keyboard-response","121","381999","0.0-2.0-7.0-0.7","63d8766016c0bfcd19d3c732","B2","batch2","","null","<p class=block-text>Trial 47 out of 78</p>","null","pattern_show_trial_num","","","","","","","","","","","","","","","","","","","","","","","","",""
"","","","","","image-keyboard-response","122","389006","0.0-2.0-7.0-1.7","63d8766016c0bfcd19d3c732","B2","batch2","","7006","stim/yes_55_hor_w1_w.png","f","pattern_response","true","f","pattern_75","7006","true","45","","","","","","","","","","","","","","","","","","",""
"","","","","","html-keyboard-response","123","390323","0.0-2.0-7.0-0.8","63d8766016c0bfcd19d3c732","B2","batch2","","null","<p class=block-text>Trial 48 out of 78</p>","null","pattern_show_trial_num","","","","","","","","","","","","","","","","","","","","","","","","",""
"","","","","","image-keyboard-response","124","392216","0.0-2.0-7.0-1.8","63d8766016c0bfcd19d3c732","B2","batch2","","1890.7999999821186","stim/no_13_2_b.png","j","pattern_response","true","j","pattern_02","1890.7999999821186","true","46","","","","","","","","","","","","","","","","","","",""
"","","","","","html-keyboard-response","125","393535","0.0-2.0-7.0-0.9","63d8766016c0bfcd19d3c732","B2","batch2","","null","<p class=block-text>Trial 49 out of 78</p>","null","pattern_show_trial_num","","","","","","","","","","","","","","","","","","","","","","","","",""
"","","","","","image-keyboard-response","126","401600","0.0-2.0-7.0-1.9","63d8766016c0bfcd19d3c732","B2","batch2","","8063.5","stim/no_50_1.png","j","pattern_response","true","j","pattern_30","8063.5","true","47","","","","","","","","","","","","","","","","","","",""
"","","","","","html-keyboard-response","127","402919","0.0-2.0-7.0-0.10","63d8766016c0bfcd19d3c732","B2","batch2","","null","<p class=block-text>Trial 50 out of 78</p>","null","pattern_show_trial_num","","","","","","","","","","","","","","","","","","","","","","","","",""
"","","","","","image-keyboard-response","128","410981","0.0-2.0-7.0-1.10","63d8766016c0bfcd19d3c732","B2","batch2","","8059.699999988079","stim/no_42_1_w.png","j","pattern_response","true","j","pattern_22","8059.699999988079","true","48","","","","","","","","","","","","","","","","","","",""
"","","","","","html-keyboard-response","129","412291","0.0-2.0-7.0-0.11","63d8766016c0bfcd19d3c732","B2","batch2","","null","<p class=block-text>Trial 51 out of 78</p>","null","pattern_show_trial_num","","","","","","","","","","","","","","","","","","","","","","","","",""
"","","","","","image-keyboard-response","130","417972","0.0-2.0-7.0-1.11","63d8766016c0bfcd19d3c732","B2","batch2","","5678.100000023842","stim/yes_50_dia_w1.png","f","pattern_response","true","f","pattern_71","5678.100000023842","true","49","","","","","","","","","","","","","","","","","","",""
"","","","","","html-keyboard-response","131","419287","0.0-2.0-7.0-0.12","63d8766016c0bfcd19d3c732","B2","batch2","","null","<p class=block-text>Trial 52 out of 78</p>","null","pattern_show_trial_num","","","","","","","","","","","","","","","","","","","","","","","","",""
"","","","","","image-keyboard-response","132","421819","0.0-2.0-7.0-1.12","63d8766016c0bfcd19d3c732","B2","batch2","","2530","stim/no_17_1_w.png","j","pattern_response","true","j","pattern_04","2530","true","50","","","","","","","","","","","","","","","","","","",""
"","","","","","html-keyboard-response","133","423131","0.0-2.0-7.0-0.13","63d8766016c0bfcd19d3c732","B2","batch2","","null","<p class=block-text>Trial 53 out of 78</p>","null","pattern_show_trial_num","","","","","","","","","","","","","","","","","","","","","","","","",""
"","","","","","image-keyboard-response","134","427258","0.0-2.0-7.0-1.13","63d8766016c0bfcd19d3c732","B2","batch2","","4124.5","stim/yes_35_dia_b1.png","f","pattern_response","true","f","pattern_57","4124.5","true","51","","","","","","","","","","","","","","","","","","",""
"","","","","","html-keyboard-response","135","428570","0.0-2.0-7.0-0.14","63d8766016c0bfcd19d3c732","B2","batch2","","null","<p class=block-text>Trial 54 out of 78</p>","null","pattern_show_trial_num","","","","","","","","","","","","","","","","","","","","","","","","",""
"","","","","","image-keyboard-response","136","431013","0.0-2.0-7.0-1.14","63d8766016c0bfcd19d3c732","B2","batch2","","2440.9000000059605","stim/yes_31_hor_b1.png","f","pattern_response","true","f","pattern_55","2440.9000000059605","true","52","","","","","","","","","","","","","","","","","","",""
"","","","","","html-keyboard-response","137","432322","0.0-2.0-7.0-0.15","63d8766016c0bfcd19d3c732","B2","batch2","","null","<p class=block-text>Trial 55 out of 78</p>","null","pattern_show_trial_num","","","","","","","","","","","","","","","","","","","","","","","","",""
"","","","","","image-keyboard-response","138","442324","0.0-2.0-7.0-1.15","63d8766016c0bfcd19d3c732","B2","batch2","","10000.200000017881","stim/no_62_1_w.png","j","pattern_response","true","j","pattern_36","10000.200000017881","true","53","","","","","","","","","","","","","","","","","","",""
"","","","","","html-keyboard-response","139","443634","0.0-2.0-7.0-0.16","63d8766016c0bfcd19d3c732","B2","batch2","","null","<p class=block-text>Trial 56 out of 78</p>","null","pattern_show_trial_num","","","","","","","","","","","","","","","","","","","","","","","","",""
"","","","","","image-keyboard-response","140","446335","0.0-2.0-7.0-1.16","63d8766016c0bfcd19d3c732","B2","batch2","","2699.5","stim/yes_38_hor_b1_b.png","f","pattern_response","true","f","pattern_61","2699.5","true","54","","","","","","","","","","","","","","","","","","",""
"","","","","","html-keyboard-response","141","447654","0.0-2.0-7.0-0.17","63d8766016c0bfcd19d3c732","B2","batch2","","null","<p class=block-text>Trial 57 out of 78</p>","null","pattern_show_trial_num","","","","","","","","","","","","","","","","","","","","","","","","",""
"","","","","","image-keyboard-response","142","456805","0.0-2.0-7.0-1.17","63d8766016c0bfcd19d3c732","B2","batch2","","9149.800000011921","stim/no_48_1_w.png","j","pattern_response","true","j","pattern_28","9149.800000011921","true","55","","","","","","","","","","","","","","","","","","",""
"","","","","","html-keyboard-response","143","458126","0.0-2.0-7.0-0.18","63d8766016c0bfcd19d3c732","B2","batch2","","null","<p class=block-text>Trial 58 out of 78</p>","null","pattern_show_trial_num","","","","","","","","","","","","","","","","","","","","","","","","",""
"","","","","","image-keyboard-response","144","467836","0.0-2.0-7.0-1.18","63d8766016c0bfcd19d3c732","B2","batch2","","9707.90000000596","stim/no_52_1.png","j","pattern_response","true","j","pattern_32","9707.90000000596","true","56","","","","","","","","","","","","","","","","","","",""
"","","","","","html-keyboard-response","145","469150","0.0-2.0-7.0-0.19","63d8766016c0bfcd19d3c732","B2","batch2","","null","<p class=block-text>Trial 59 out of 78</p>","null","pattern_show_trial_num","","","","","","","","","","","","","","","","","","","","","","","","",""
"","","","","","image-keyboard-response","146","478509","0.0-2.0-7.0-1.19","63d8766016c0bfcd19d3c732","B2","batch2","","9357.399999976158","stim/no_55_1_w.png","j","pattern_response","true","j","pattern_34","9357.399999976158","true","57","","","","","","","","","","","","","","","","","","",""
"","","","","","html-keyboard-response","147","479830","0.0-2.0-7.0-0.20","63d8766016c0bfcd19d3c732","B2","batch2","","null","<p class=block-text>Trial 60 out of 78</p>","null","pattern_show_trial_num","","","","","","","","","","","","","","","","","","","","","","","","",""
"","","","","","image-keyboard-response","148","480716","0.0-2.0-7.0-1.20","63d8766016c0bfcd19d3c732","B2","batch2","","883.9000000059605","stim/yes_14_hor_b1_w.png","f","pattern_response","true","f","pattern_43","883.9000000059605","true","58","","","","","","","","","","","","","","","","","","",""
"","","","","","html-keyboard-response","149","482029","0.0-2.0-7.0-0.21","63d8766016c0bfcd19d3c732","B2","batch2","","null","<p class=block-text>Trial 61 out of 78</p>","null","pattern_show_trial_num","","","","","","","","","","","","","","","","","","","","","","","","",""
"","","","","","image-keyboard-response","150","483937","0.0-2.0-7.0-1.21","63d8766016c0bfcd19d3c732","B2","batch2","","1905.8999999761581","stim/yes_45_hor_b2_b.png","f","pattern_response","true","f","pattern_67","1905.8999999761581","true","59","","","","","","","","","","","","","","","","","","",""
"","","","","","html-keyboard-response","151","485253","0.0-2.0-7.0-0.22","63d8766016c0bfcd19d3c732","B2","batch2","","null","<p class=block-text>Trial 62 out of 78</p>","null","pattern_show_trial_num","","","","","","","","","","","","","","","","","","","","","","","","",""
"","","","","","image-keyboard-response","152","486934","0.0-2.0-7.0-1.22","63d8766016c0bfcd19d3c732","B2","batch2","","1678.5999999940395","stim/yes_67_hor_b1.png","f","pattern_response","true","f","pattern_79","1678.5999999940395","true","60","","","","","","","","","","","","","","","","","","",""
"","","","","","html-keyboard-response","153","488253","0.0-2.0-7.0-0.23","63d8766016c0bfcd19d3c732","B2","batch2","","null","<p class=block-text>Trial 63 out of 78</p>","null","pattern_show_trial_num","","","","","","","","","","","","","","","","","","","","","","","","",""
"","","","","","image-keyboard-response","154","489088","0.0-2.0-7.0-1.23","63d8766016c0bfcd19d3c732","B2","batch2","","833.2999999821186","stim/yes_28_ver_b1.png","f","pattern_response","true","f","pattern_51","833.2999999821186","true","61","","","","","","","","","","","","","","","","","","",""
"","","","","","html-keyboard-response","155","490405","0.0-2.0-7.0-0.24","63d8766016c0bfcd19d3c732","B2","batch2","","null","<p class=block-text>Trial 64 out of 78</p>","null","pattern_show_trial_num","","","","","","","","","","","","","","","","","","","","","","","","",""
"","","","","","image-keyboard-response","156","503070","0.0-2.0-7.0-1.24","63d8766016c0bfcd19d3c732","B2","batch2","","12663.300000011921","stim/no_70_2.png","j","pattern_response","true","j","pattern_40","12663.300000011921","true","62","","","","","","","","","","","","","","","","","","",""
"","","","","","html-keyboard-response","157","504384","0.0-2.0-7.0-0.25","63d8766016c0bfcd19d3c732","B2","batch2","","null","<p class=block-text>Trial 65 out of 78</p>","null","pattern_show_trial_num","","","","","","","","","","","","","","","","","","","","","","","","",""
"","","","","","image-keyboard-response","158","507643","0.0-2.0-7.0-1.25","63d8766016c0bfcd19d3c732","B2","batch2","","3256.800000011921","stim/yes_60_ver_b1_b.png","f","pattern_response","true","f","pattern_77","3256.800000011921","true","63","","","","","","","","","","","","","","","","","","",""
"","","","","","html-keyboard-response","159","508957","0.0-2.0-7.0-0.26","63d8766016c0bfcd19d3c732","B2","batch2","","null","<p class=block-text>Trial 66 out of 78</p>","null","pattern_show_trial_num","","","","","","","","","","","","","","","","","","","","","","","","",""
"","","","","","image-keyboard-response","160","517303","0.0-2.0-7.0-1.26","63d8766016c0bfcd19d3c732","B2","batch2","","8343.700000017881","stim/no_44_1.png","j","pattern_response","true","j","pattern_24","8343.700000017881","true","64","","","","","","","","","","","","","","","","","","",""
"","","","","","html-keyboard-response","161","518621","0.0-2.0-7.0-0.27","63d8766016c0bfcd19d3c732","B2","batch2","","null","<p class=block-text>Trial 67 out of 78</p>","null","pattern_show_trial_num","","","","","","","","","","","","","","","","","","","","","","","","",""
"","","","","","image-keyboard-response","162","523734","0.0-2.0-7.0-1.27","63d8766016c0bfcd19d3c732","B2","batch2","","5110.9000000059605","stim/no_26_1_w.png","j","pattern_response","true","j","pattern_10","5110.9000000059605","true","65","","","","","","","","","","","","","","","","","","",""
"","","","","","html-keyboard-response","163","525053","0.0-2.0-7.0-0.28","63d8766016c0bfcd19d3c732","B2","batch2","","null","<p class=block-text>Trial 68 out of 78</p>","null","pattern_show_trial_num","","","","","","","","","","","","","","","","","","","","","","","","",""
"","","","","","image-keyboard-response","164","526560","0.0-2.0-7.0-1.28","63d8766016c0bfcd19d3c732","B2","batch2","","1505.300000011921","stim/yes_52_ver_w1.png","f","pattern_response","true","f","pattern_73","1505.300000011921","true","66","","","","","","","","","","","","","","","","","","",""
"","","","","","html-keyboard-response","165","527872","0.0-2.0-7.0-0.29","63d8766016c0bfcd19d3c732","B2","batch2","","null","<p class=block-text>Trial 69 out of 78</p>","null","pattern_show_trial_num","","","","","","","","","","","","","","","","","","","","","","","","",""
"","","","","","image-keyboard-response","166","528791","0.0-2.0-7.0-1.29","63d8766016c0bfcd19d3c732","B2","batch2","","916.5999999940395","stim/yes_22_ver_w1.png","f","pattern_response","true","f","pattern_47","916.5999999940395","true","67","","","","","","","","","","","","","","","","","","",""
"","","","","","html-keyboard-response","167","530109","0.0-2.0-7.0-0.30","63d8766016c0bfcd19d3c732","B2","batch2","","null","<p class=block-text>Trial 70 out of 78</p>","null","pattern_show_trial_num","","","","","","","","","","","","","","","","","","","","","","","","",""
"","","","","","image-keyboard-response","168","535363","0.0-2.0-7.0-1.30","63d8766016c0bfcd19d3c732","B2","batch2","","5252.9000000059605","stim/yes_37_dia_w1.png","j","pattern_response","false","f","pattern_59","5252.9000000059605","false","67","","","","","","","","","","","","","","","","","","",""
"","","","","","html-keyboard-response","169","536676","0.0-2.0-7.0-0.31","63d8766016c0bfcd19d3c732","B2","batch2","","null","<p class=block-text>Trial 71 out of 78</p>","null","pattern_show_trial_num","","","","","","","","","","","","","","","","","","","","","","","","",""
"","","","","","image-keyboard-response","170","540516","0.0-2.0-7.0-1.31","63d8766016c0bfcd19d3c732","B2","batch2","","3837.5999999940395","stim/no_23_1.png","j","pattern_response","true","j","pattern_08","3837.5999999940395","true","68","","","","","","","","","","","","","","","","","","",""
"","","","","","html-keyboard-response","171","541836","0.0-2.0-7.0-0.32","63d8766016c0bfcd19d3c732","B2","batch2","","null","<p class=block-text>Trial 72 out of 78</p>","null","pattern_show_trial_num","","","","","","","","","","","","","","","","","","","","","","","","",""
"","","","","","image-keyboard-response","172","546277","0.0-2.0-7.0-1.32","63d8766016c0bfcd19d3c732","B2","batch2","","4438.5","stim/no_32_1_w.png","j","pattern_response","true","j","pattern_14","4438.5","true","69","","","","","","","","","","","","","","","","","","",""
"","","","","","html-keyboard-response","173","547596","0.0-2.0-7.0-0.33","63d8766016c0bfcd19d3c732","B2","batch2","","null","<p class=block-text>Trial 73 out of 78</p>","null","pattern_show_trial_num","","","","","","","","","","","","","","","","","","","","","","","","",""
"","","","","","image-keyboard-response","174","553943","0.0-2.0-7.0-1.33","63d8766016c0bfcd19d3c732","B2","batch2","","6345","stim/no_29_1_b.png","j","pattern_response","true","j","pattern_12","6345","true","70","","","","","","","","","","","","","","","","","","",""
"","","","","","html-keyboard-response","175","555260","0.0-2.0-7.0-0.34","63d8766016c0bfcd19d3c732","B2","batch2","","null","<p class=block-text>Trial 74 out of 78</p>","null","pattern_show_trial_num","","","","","","","","","","","","","","","","","","","","","","","","",""
"","","","","","image-keyboard-response","176","566809","0.0-2.0-7.0-1.34","63d8766016c0bfcd19d3c732","B2","batch2","","11546.799999982119","stim/no_65_1_b.png","j","pattern_response","true","j","pattern_38","11546.799999982119","true","71","","","","","","","","","","","","","","","","","","",""
"","","","","","html-keyboard-response","177","568124","0.0-2.0-7.0-0.35","63d8766016c0bfcd19d3c732","B2","batch2","","null","<p class=block-text>Trial 75 out of 78</p>","null","pattern_show_trial_num","","","","","","","","","","","","","","","","","","","","","","","","",""
"","","","","","image-keyboard-response","178","575739","0.0-2.0-7.0-1.35","63d8766016c0bfcd19d3c732","B2","batch2","","7613.0999999940395","stim/no_36_2_w.png","j","pattern_response","true","j","pattern_18","7613.0999999940395","true","72","","","","","","","","","","","","","","","","","","",""
"","","","","","html-keyboard-response","179","577056","0.0-2.0-7.0-0.36","63d8766016c0bfcd19d3c732","B2","batch2","","null","<p class=block-text>Trial 76 out of 78</p>","null","pattern_show_trial_num","","","","","","","","","","","","","","","","","","","","","","","","",""
"","","","","","image-keyboard-response","180","580329","0.0-2.0-7.0-1.36","63d8766016c0bfcd19d3c732","B2","batch2","","3270.800000011921","stim/no_20_1_w.png","j","pattern_response","true","j","pattern_06","3270.800000011921","true","73","","","","","","","","","","","","","","","","","","",""
"","","","","","html-keyboard-response","181","581644","0.0-2.0-7.0-0.37","63d8766016c0bfcd19d3c732","B2","batch2","","null","<p class=block-text>Trial 77 out of 78</p>","null","pattern_show_trial_num","","","","","","","","","","","","","","","","","","","","","","","","",""
"","","","","","image-keyboard-response","182","583859","0.0-2.0-7.0-1.37","63d8766016c0bfcd19d3c732","B2","batch2","","2213.0999999940395","stim/yes_48_dia_w1_w.png","f","pattern_response","true","f","pattern_69","2213.0999999940395","true","74","","","","","","","","","","","","","","","","","","",""
"","","","","","html-keyboard-response","183","585175","0.0-2.0-7.0-0.38","63d8766016c0bfcd19d3c732","B2","batch2","","null","<p class=block-text>Trial 78 out of 78</p>","null","pattern_show_trial_num","","","","","","","","","","","","","","","","","","","","","","","","",""
"","","","","","image-keyboard-response","184","586632","0.0-2.0-7.0-1.38","63d8766016c0bfcd19d3c732","B2","batch2","","1455.5","stim/yes_29_ver_w1.png","f","pattern_response","true","f","pattern_53","1455.5","true","75","","","","","","","","","","","","","","","","","","",""
"","","","","","html-button-response","185","594551","0.0-2.0-8.0","63d8766016c0bfcd19d3c732","B2","batch2","","7414.700000017881","<p class = block-text>This concludes the 4-in-a-row detection game.Thank you for your responses!<br>
            You responded correctly on 96% of the trials.<br>
            When you are ready, press ""Continue"" button to continue </p>","0","","","","","","","","","","","","","","","","","","","","","","","","","",""
"true","","","","","fullscreen","186","599451","0.0-3.0-0.0","63d8766016c0bfcd19d3c732","B2","batch2","","","","","spm_fullscreen","","","","","","","","","","","","","","","","","","","","","","","","",""
"","","","","","html-button-response","187","611838","0.0-3.0-1.0","63d8766016c0bfcd19d3c732","B2","batch2","","12386.200000017881","<p class = block-text><b>Instructions</b> <br>This is a widely used intelligence test in research. <br>In this test, a figure with a missing piece will be presented.<br>Below the figure are alternative pieces to complete the figure, only one of which is correct.<br> Different figures might involve different principles for obtaining the missing piece<br>Your job is to select the most logical piece to complete the figure.</p>","0","","","","","","","","","","","","","","","","","","","","","","","","","",""
"","","","","","html-keyboard-response","188","612649","0.0-3.0-2.0-0.0","63d8766016c0bfcd19d3c732","B2","batch2","","null","<p class=block-text>Trial 1 out of 60</p>","null","spm_show_trial_num","","","","","","","","","","","","","","","","","","","","","","","","",""
"","","","","","image-button-response","189","625458","0.0-3.0-2.0-1.0","63d8766016c0bfcd19d3c732","B2","batch2","","12805.40000000596","img/question_1_1.jpeg","3","spm_respsonse","1","4","mat_01","","","","","","1","12805.40000000596","","","","","","","","","","","","","","",""
"","","","","","html-keyboard-response","190","626523","0.0-3.0-2.0-0.1","63d8766016c0bfcd19d3c732","B2","batch2","","null","<p class=block-text>Trial 2 out of 60</p>","null","spm_show_trial_num","","","","","","","","","","","","","","","","","","","","","","","","",""
"","","","","","image-button-response","191","631202","0.0-3.0-2.0-1.1","63d8766016c0bfcd19d3c732","B2","batch2","","4676.300000011921","img/question_1_2.jpeg","4","spm_respsonse","1","5","mat_02","","","","","","1","4676.300000011921","","","","","","","","","","","","","","",""
"","","","","","html-keyboard-response","192","632267","0.0-3.0-2.0-0.2","63d8766016c0bfcd19d3c732","B2","batch2","","null","<p class=block-text>Trial 3 out of 60</p>","null","spm_show_trial_num","","","","","","","","","","","","","","","","","","","","","","","","",""
"","","","","","image-button-response","193","637321","0.0-3.0-2.0-1.2","63d8766016c0bfcd19d3c732","B2","batch2","","5052.199999988079","img/question_1_3.jpeg","0","spm_respsonse","1","1","mat_03","","","","","","1","5052.199999988079","","","","","","","","","","","","","","",""
"","","","","","html-keyboard-response","194","638381","0.0-3.0-2.0-0.3","63d8766016c0bfcd19d3c732","B2","batch2","","null","<p class=block-text>Trial 4 out of 60</p>","null","spm_show_trial_num","","","","","","","","","","","","","","","","","","","","","","","","",""
"","","","","","image-button-response","195","642523","0.0-3.0-2.0-1.3","63d8766016c0bfcd19d3c732","B2","batch2","","4138.5999999940395","img/question_1_4.jpeg","1","spm_respsonse","1","2","mat_04","","","","","","1","4138.5999999940395","","","","","","","","","","","","","","",""
"","","","","","html-keyboard-response","196","643587","0.0-3.0-2.0-0.4","63d8766016c0bfcd19d3c732","B2","batch2","","null","<p class=block-text>Trial 5 out of 60</p>","null","spm_show_trial_num","","","","","","","","","","","","","","","","","","","","","","","","",""
"","","","","","image-button-response","197","648177","0.0-3.0-2.0-1.4","63d8766016c0bfcd19d3c732","B2","batch2","","4587.9000000059605","img/question_1_5.jpeg","5","spm_respsonse","1","6","mat_05","","","","","","1","4587.9000000059605","","","","","","","","","","","","","","",""
"","","","","","html-keyboard-response","198","649242","0.0-3.0-2.0-0.5","63d8766016c0bfcd19d3c732","B2","batch2","","null","<p class=block-text>Trial 6 out of 60</p>","null","spm_show_trial_num","","","","","","","","","","","","","","","","","","","","","","","","",""
"","","","","","image-button-response","199","653086","0.0-3.0-2.0-1.5","63d8766016c0bfcd19d3c732","B2","batch2","","3840.5999999940395","img/question_1_6.jpeg","2","spm_respsonse","1","3","mat_06","","","","","","1","3840.5999999940395","","","","","","","","","","","","","","",""
"","","","","","html-keyboard-response","200","654154","0.0-3.0-2.0-0.6","63d8766016c0bfcd19d3c732","B2","batch2","","null","<p class=block-text>Trial 7 out of 60</p>","null","spm_show_trial_num","","","","","","","","","","","","","","","","","","","","","","","","",""
"","","","","","image-button-response","201","661551","0.0-3.0-2.0-1.6","63d8766016c0bfcd19d3c732","B2","batch2","","7394.200000017881","img/question_1_7.jpeg","5","spm_respsonse","1","6","mat_07","","","","","","1","7394.200000017881","","","","","","","","","","","","","","",""
"","","","","","html-keyboard-response","202","662618","0.0-3.0-2.0-0.7","63d8766016c0bfcd19d3c732","B2","batch2","","null","<p class=block-text>Trial 8 out of 60</p>","null","spm_show_trial_num","","","","","","","","","","","","","","","","","","","","","","","","",""
"","","","","","image-button-response","203","670354","0.0-3.0-2.0-1.7","63d8766016c0bfcd19d3c732","B2","batch2","","7733.5","img/question_1_8.jpeg","1","spm_respsonse","1","2","mat_08","","","","","","1","7733.5","","","","","","","","","","","","","","",""
"","","","","","html-keyboard-response","204","671418","0.0-3.0-2.0-0.8","63d8766016c0bfcd19d3c732","B2","batch2","","null","<p class=block-text>Trial 9 out of 60</p>","null","spm_show_trial_num","","","","","","","","","","","","","","","","","","","","","","","","",""
"","","","","","image-button-response","205","676621","0.0-3.0-2.0-1.8","63d8766016c0bfcd19d3c732","B2","batch2","","5200.300000011921","img/question_1_9.jpeg","0","spm_respsonse","1","1","mat_09","","","","","","1","5200.300000011921","","","","","","","","","","","","","","",""
"","","","","","html-keyboard-response","206","677690","0.0-3.0-2.0-0.9","63d8766016c0bfcd19d3c732","B2","batch2","","null","<p class=block-text>Trial 10 out of 60</p>","null","spm_show_trial_num","","","","","","","","","","","","","","","","","","","","","","","","",""
"","","","","","image-button-response","207","681746","0.0-3.0-2.0-1.9","63d8766016c0bfcd19d3c732","B2","batch2","","4053.199999988079","img/question_1_10.jpeg","2","spm_respsonse","1","3","mat_10","","","","","","1","4053.199999988079","","","","","","","","","","","","","","",""
"","","","","","html-keyboard-response","208","682816","0.0-3.0-2.0-0.10","63d8766016c0bfcd19d3c732","B2","batch2","","null","<p class=block-text>Trial 11 out of 60</p>","null","spm_show_trial_num","","","","","","","","","","","","","","","","","","","","","","","","",""
"","","","","","image-button-response","209","696818","0.0-3.0-2.0-1.10","63d8766016c0bfcd19d3c732","B2","batch2","","13999.800000011921","img/question_1_11.jpeg","3","spm_respsonse","1","4","mat_11","","","","","","1","13999.800000011921","","","","","","","","","","","","","","",""
"","","","","","html-keyboard-response","210","697890","0.0-3.0-2.0-0.11","63d8766016c0bfcd19d3c732","B2","batch2","","null","<p class=block-text>Trial 12 out of 60</p>","null","spm_show_trial_num","","","","","","","","","","","","","","","","","","","","","","","","",""
"","","","","","image-button-response","211","713472","0.0-3.0-2.0-1.11","63d8766016c0bfcd19d3c732","B2","batch2","","15580.299999982119","img/question_1_12.jpeg","4","spm_respsonse","1","5","mat_12","","","","","","1","15580.299999982119","","","","","","","","","","","","","","",""
"","","","","","html-keyboard-response","212","714537","0.0-3.0-2.0-0.12","63d8766016c0bfcd19d3c732","B2","batch2","","null","<p class=block-text>Trial 13 out of 60</p>","null","spm_show_trial_num","","","","","","","","","","","","","","","","","","","","","","","","",""
"","","","","","image-button-response","213","718285","0.0-3.0-2.0-1.12","63d8766016c0bfcd19d3c732","B2","batch2","","3745.5","img/question_2_1.jpeg","1","spm_respsonse","1","2","mat_13","","","","","","1","3745.5","","","","","","","","","","","","","","",""
"","","","","","html-keyboard-response","214","719353","0.0-3.0-2.0-0.13","63d8766016c0bfcd19d3c732","B2","batch2","","null","<p class=block-text>Trial 14 out of 60</p>","null","spm_show_trial_num","","","","","","","","","","","","","","","","","","","","","","","","",""
"","","","","","image-button-response","215","727573","0.0-3.0-2.0-1.13","63d8766016c0bfcd19d3c732","B2","batch2","","8217.799999982119","img/question_2_2.jpeg","5","spm_respsonse","1","6","mat_14","","","","","","1","8217.799999982119","","","","","","","","","","","","","","",""
"","","","","","html-keyboard-response","216","728641","0.0-3.0-2.0-0.14","63d8766016c0bfcd19d3c732","B2","batch2","","null","<p class=block-text>Trial 15 out of 60</p>","null","spm_show_trial_num","","","","","","","","","","","","","","","","","","","","","","","","",""
"","","","","","image-button-response","217","732559","0.0-3.0-2.0-1.14","63d8766016c0bfcd19d3c732","B2","batch2","","3915.199999988079","img/question_2_3.jpeg","0","spm_respsonse","1","1","mat_15","","","","","","1","3915.199999988079","","","","","","","","","","","","","","",""
"","","","","","html-keyboard-response","218","733625","0.0-3.0-2.0-0.15","63d8766016c0bfcd19d3c732","B2","batch2","","null","<p class=block-text>Trial 16 out of 60</p>","null","spm_show_trial_num","","","","","","","","","","","","","","","","","","","","","","","","",""
"","","","","","image-button-response","219","738518","0.0-3.0-2.0-1.15","63d8766016c0bfcd19d3c732","B2","batch2","","4891.0999999940395","img/question_2_4.jpeg","1","spm_respsonse","1","2","mat_16","","","","","","1","4891.0999999940395","","","","","","","","","","","","","","",""
"","","","","","html-keyboard-response","220","739585","0.0-3.0-2.0-0.16","63d8766016c0bfcd19d3c732","B2","batch2","","null","<p class=block-text>Trial 17 out of 60</p>","null","spm_show_trial_num","","","","","","","","","","","","","","","","","","","","","","","","",""
"","","","","","image-button-response","221","747969","0.0-3.0-2.0-1.16","63d8766016c0bfcd19d3c732","B2","batch2","","8381.90000000596","img/question_2_5.jpeg","0","spm_respsonse","1","1","mat_17","","","","","","1","8381.90000000596","","","","","","","","","","","","","","",""
"","","","","","html-keyboard-response","222","749029","0.0-3.0-2.0-0.17","63d8766016c0bfcd19d3c732","B2","batch2","","null","<p class=block-text>Trial 18 out of 60</p>","null","spm_show_trial_num","","","","","","","","","","","","","","","","","","","","","","","","",""
"","","","","","image-button-response","223","754621","0.0-3.0-2.0-1.17","63d8766016c0bfcd19d3c732","B2","batch2","","5588.800000011921","img/question_2_6.jpeg","2","spm_respsonse","1","3","mat_18","","","","","","1","5588.800000011921","","","","","","","","","","","","","","",""
"","","","","","html-keyboard-response","224","755689","0.0-3.0-2.0-0.18","63d8766016c0bfcd19d3c732","B2","batch2","","null","<p class=block-text>Trial 19 out of 60</p>","null","spm_show_trial_num","","","","","","","","","","","","","","","","","","","","","","","","",""
"","","","","","image-button-response","225","761995","0.0-3.0-2.0-1.18","63d8766016c0bfcd19d3c732","B2","batch2","","6303.799999982119","img/question_2_7.jpeg","5","spm_respsonse","0","5","mat_19","","","","","","0","6303.799999982119","","","","","","","","","","","","","","",""
"","","","","","html-keyboard-response","226","763060","0.0-3.0-2.0-0.19","63d8766016c0bfcd19d3c732","B2","batch2","","null","<p class=block-text>Trial 20 out of 60</p>","null","spm_show_trial_num","","","","","","","","","","","","","","","","","","","","","","","","",""
"","","","","","image-button-response","227","771331","0.0-3.0-2.0-1.19","63d8766016c0bfcd19d3c732","B2","batch2","","8267.90000000596","img/question_2_8.jpeg","2","spm_respsonse","0","6","mat_20","","","","","","0","8267.90000000596","","","","","","","","","","","","","","",""
"","","","","","html-keyboard-response","228","772400","0.0-3.0-2.0-0.20","63d8766016c0bfcd19d3c732","B2","batch2","","null","<p class=block-text>Trial 21 out of 60</p>","null","spm_show_trial_num","","","","","","","","","","","","","","","","","","","","","","","","",""
"","","","","","image-button-response","229","777240","0.0-3.0-2.0-1.20","63d8766016c0bfcd19d3c732","B2","batch2","","4837.5","img/question_2_9.jpeg","3","spm_respsonse","1","4","mat_21","","","","","","1","4837.5","","","","","","","","","","","","","","",""
"","","","","","html-keyboard-response","230","778303","0.0-3.0-2.0-0.21","63d8766016c0bfcd19d3c732","B2","batch2","","null","<p class=block-text>Trial 22 out of 60</p>","null","spm_show_trial_num","","","","","","","","","","","","","","","","","","","","","","","","",""
"","","","","","image-button-response","231","783872","0.0-3.0-2.0-1.21","63d8766016c0bfcd19d3c732","B2","batch2","","5566.4000000059605","img/question_2_10.jpeg","2","spm_respsonse","1","3","mat_22","","","","","","1","5566.4000000059605","","","","","","","","","","","","","","",""
"","","","","","html-keyboard-response","232","784936","0.0-3.0-2.0-0.22","63d8766016c0bfcd19d3c732","B2","batch2","","null","<p class=block-text>Trial 23 out of 60</p>","null","spm_show_trial_num","","","","","","","","","","","","","","","","","","","","","","","","",""
"","","","","","image-button-response","233","790492","0.0-3.0-2.0-1.22","63d8766016c0bfcd19d3c732","B2","batch2","","5553.299999982119","img/question_2_11.jpeg","3","spm_respsonse","1","4","mat_23","","","","","","1","5553.299999982119","","","","","","","","","","","","","","",""
"","","","","","html-keyboard-response","234","791556","0.0-3.0-2.0-0.23","63d8766016c0bfcd19d3c732","B2","batch2","","null","<p class=block-text>Trial 24 out of 60</p>","null","spm_show_trial_num","","","","","","","","","","","","","","","","","","","","","","","","",""
"","","","","","image-button-response","235","829091","0.0-3.0-2.0-1.23","63d8766016c0bfcd19d3c732","B2","batch2","","37533.09999999404","img/question_2_12.jpeg","5","spm_respsonse","0","5","mat_24","","","","","","0","37533.09999999404","","","","","","","","","","","","","","",""
"","","","","","html-button-response","236","831147","0.0-3.0-3.0","63d8766016c0bfcd19d3c732","B2","batch2","","1794.4000000059605","<p class = block-text>Attention check: Please choose 1<br></p>","0","attention_check","true","","","","","","","","","","","","","","","","","","","","","","","",""
"","","","","","html-keyboard-response","237","831959","0.0-3.0-4.0-0.0","63d8766016c0bfcd19d3c732","B2","batch2","","null","<p class=block-text>Trial 25 out of 60</p>","null","spm_show_trial_num","","","","","","","","","","","","","","","","","","","","","","","","",""
"","","","","","image-button-response","238","840831","0.0-3.0-4.0-1.0","63d8766016c0bfcd19d3c732","B2","batch2","","8869.09999999404","img/question_3_1.jpeg","7","spm_respsonse","1","8","mat_25","","","","","","1","8869.09999999404","","","","","","","","","","","","","","",""
"","","","","","html-keyboard-response","239","841903","0.0-3.0-4.0-0.1","63d8766016c0bfcd19d3c732","B2","batch2","","null","<p class=block-text>Trial 26 out of 60</p>","null","spm_show_trial_num","","","","","","","","","","","","","","","","","","","","","","","","",""
"","","","","","image-button-response","240","854833","0.0-3.0-4.0-1.1","63d8766016c0bfcd19d3c732","B2","batch2","","12927.299999982119","img/question_3_2.jpeg","1","spm_respsonse","1","2","mat_26","","","","","","1","12927.299999982119","","","","","","","","","","","","","","",""
"","","","","","html-keyboard-response","241","855903","0.0-3.0-4.0-0.2","63d8766016c0bfcd19d3c732","B2","batch2","","null","<p class=block-text>Trial 27 out of 60</p>","null","spm_show_trial_num","","","","","","","","","","","","","","","","","","","","","","","","",""
"","","","","","image-button-response","242","864128","0.0-3.0-4.0-1.2","63d8766016c0bfcd19d3c732","B2","batch2","","8222.5","img/question_3_3.jpeg","2","spm_respsonse","1","3","mat_27","","","","","","1","8222.5","","","","","","","","","","","","","","",""
"","","","","","html-keyboard-response","243","865199","0.0-3.0-4.0-0.3","63d8766016c0bfcd19d3c732","B2","batch2","","null","<p class=block-text>Trial 28 out of 60</p>","null","spm_show_trial_num","","","","","","","","","","","","","","","","","","","","","","","","",""
"","","","","","image-button-response","244","884508","0.0-3.0-4.0-1.3","63d8766016c0bfcd19d3c732","B2","batch2","","19307.09999999404","img/question_3_4.jpeg","7","spm_respsonse","1","8","mat_28","","","","","","1","19307.09999999404","","","","","","","","","","","","","","",""
"","","","","","html-keyboard-response","245","885574","0.0-3.0-4.0-0.4","63d8766016c0bfcd19d3c732","B2","batch2","","null","<p class=block-text>Trial 29 out of 60</p>","null","spm_show_trial_num","","","","","","","","","","","","","","","","","","","","","","","","",""
"","","","","","image-button-response","246","900359","0.0-3.0-4.0-1.4","63d8766016c0bfcd19d3c732","B2","batch2","","14730.300000011921","img/question_3_5.jpeg","6","spm_respsonse","1","7","mat_29","","","","","","1","14730.300000011921","","","","","","","","","","","","","","",""
"","","","","","html-keyboard-response","247","901426","0.0-3.0-4.0-0.5","63d8766016c0bfcd19d3c732","B2","batch2","","null","<p class=block-text>Trial 30 out of 60</p>","null","spm_show_trial_num","","","","","","","","","","","","","","","","","","","","","","","","",""
"","","","","","image-button-response","248","912803","0.0-3.0-4.0-1.5","63d8766016c0bfcd19d3c732","B2","batch2","","11374.300000011921","img/question_3_6.jpeg","3","spm_respsonse","1","4","mat_30","","","","","","1","11374.300000011921","","","","","","","","","","","","","","",""
"","","","","","html-keyboard-response","249","913874","0.0-3.0-4.0-0.6","63d8766016c0bfcd19d3c732","B2","batch2","","null","<p class=block-text>Trial 31 out of 60</p>","null","spm_show_trial_num","","","","","","","","","","","","","","","","","","","","","","","","",""
"","","","","","image-button-response","250","919195","0.0-3.0-4.0-1.6","63d8766016c0bfcd19d3c732","B2","batch2","","5317.9000000059605","img/question_3_7.jpeg","4","spm_respsonse","1","5","mat_31","","","","","","1","5317.9000000059605","","","","","","","","","","","","","","",""
"","","","","","html-keyboard-response","251","920259","0.0-3.0-4.0-0.7","63d8766016c0bfcd19d3c732","B2","batch2","","null","<p class=block-text>Trial 32 out of 60</p>","null","spm_show_trial_num","","","","","","","","","","","","","","","","","","","","","","","","",""
"","","","","","image-button-response","252","943682","0.0-3.0-4.0-1.7","63d8766016c0bfcd19d3c732","B2","batch2","","23419.79999998212","img/question_3_8.jpeg","0","spm_respsonse","1","1","mat_32","","","","","","1","23419.79999998212","","","","","","","","","","","","","","",""
"","","","","","html-keyboard-response","253","944747","0.0-3.0-4.0-0.8","63d8766016c0bfcd19d3c732","B2","batch2","","null","<p class=block-text>Trial 33 out of 60</p>","null","spm_show_trial_num","","","","","","","","","","","","","","","","","","","","","","","","",""
"","","","","","image-button-response","254","964383","0.0-3.0-4.0-1.8","63d8766016c0bfcd19d3c732","B2","batch2","","19632.79999998212","img/question_3_9.jpeg","6","spm_respsonse","1","7","mat_33","","","","","","1","19632.79999998212","","","","","","","","","","","","","","",""
"","","","","","html-keyboard-response","255","965448","0.0-3.0-4.0-0.9","63d8766016c0bfcd19d3c732","B2","batch2","","null","<p class=block-text>Trial 34 out of 60</p>","null","spm_show_trial_num","","","","","","","","","","","","","","","","","","","","","","","","",""
"","","","","","image-button-response","256","974724","0.0-3.0-4.0-1.9","63d8766016c0bfcd19d3c732","B2","batch2","","9273.300000011921","img/question_3_10.jpeg","5","spm_respsonse","1","6","mat_34","","","","","","1","9273.300000011921","","","","","","","","","","","","","","",""
"","","","","","html-keyboard-response","257","975788","0.0-3.0-4.0-0.10","63d8766016c0bfcd19d3c732","B2","batch2","","null","<p class=block-text>Trial 35 out of 60</p>","null","spm_show_trial_num","","","","","","","","","","","","","","","","","","","","","","","","",""
"","","","","","image-button-response","258","1034985","0.0-3.0-4.0-1.10","63d8766016c0bfcd19d3c732","B2","batch2","","59192.20000001788","img/question_3_11.jpeg","4","spm_respsonse","0","1","mat_35","","","","","","0","59192.20000001788","","","","","","","","","","","","","","",""
"","","","","","html-keyboard-response","259","1036050","0.0-3.0-4.0-0.11","63d8766016c0bfcd19d3c732","B2","batch2","","null","<p class=block-text>Trial 36 out of 60</p>","null","spm_show_trial_num","","","","","","","","","","","","","","","","","","","","","","","","",""
"","","","","","image-button-response","260","1061153","0.0-3.0-4.0-1.11","63d8766016c0bfcd19d3c732","B2","batch2","","25099.80000001192","img/question_3_12.jpeg","2","spm_respsonse","0","2","mat_36","","","","","","0","25099.80000001192","","","","","","","","","","","","","","",""
"","","","","","html-keyboard-response","261","1062223","0.0-3.0-4.0-0.12","63d8766016c0bfcd19d3c732","B2","batch2","","null","<p class=block-text>Trial 37 out of 60</p>","null","spm_show_trial_num","","","","","","","","","","","","","","","","","","","","","","","","",""
"","","","","","image-button-response","262","1067786","0.0-3.0-4.0-1.12","63d8766016c0bfcd19d3c732","B2","batch2","","5560.0999999940395","img/question_4_1.jpeg","2","spm_respsonse","1","3","mat_37","","","","","","1","5560.0999999940395","","","","","","","","","","","","","","",""
"","","","","","html-keyboard-response","263","1068851","0.0-3.0-4.0-0.13","63d8766016c0bfcd19d3c732","B2","batch2","","null","<p class=block-text>Trial 38 out of 60</p>","null","spm_show_trial_num","","","","","","","","","","","","","","","","","","","","","","","","",""
"","","","","","image-button-response","264","1077669","0.0-3.0-4.0-1.13","63d8766016c0bfcd19d3c732","B2","batch2","","8815.09999999404","img/question_4_2.jpeg","3","spm_respsonse","1","4","mat_38","","","","","","1","8815.09999999404","","","","","","","","","","","","","","",""
"","","","","","html-keyboard-response","265","1078735","0.0-3.0-4.0-0.14","63d8766016c0bfcd19d3c732","B2","batch2","","null","<p class=block-text>Trial 39 out of 60</p>","null","spm_show_trial_num","","","","","","","","","","","","","","","","","","","","","","","","",""
"","","","","","image-button-response","266","1092075","0.0-3.0-4.0-1.14","63d8766016c0bfcd19d3c732","B2","batch2","","13336.90000000596","img/question_4_3.jpeg","2","spm_respsonse","1","3","mat_39","","","","","","1","13336.90000000596","","","","","","","","","","","","","","",""
"","","","","","html-keyboard-response","267","1093144","0.0-3.0-4.0-0.15","63d8766016c0bfcd19d3c732","B2","batch2","","null","<p class=block-text>Trial 40 out of 60</p>","null","spm_show_trial_num","","","","","","","","","","","","","","","","","","","","","","","","",""
"","","","","","image-button-response","268","1102340","0.0-3.0-4.0-1.15","63d8766016c0bfcd19d3c732","B2","batch2","","9192.699999988079","img/question_4_4.jpeg","6","spm_respsonse","1","7","mat_40","","","","","","1","9192.699999988079","","","","","","","","","","","","","","",""
"","","","","","html-keyboard-response","269","1103408","0.0-3.0-4.0-0.16","63d8766016c0bfcd19d3c732","B2","batch2","","null","<p class=block-text>Trial 41 out of 60</p>","null","spm_show_trial_num","","","","","","","","","","","","","","","","","","","","","","","","",""
"","","","","","image-button-response","270","1114098","0.0-3.0-4.0-1.16","63d8766016c0bfcd19d3c732","B2","batch2","","10686.699999988079","img/question_4_5.jpeg","7","spm_respsonse","1","8","mat_41","","","","","","1","10686.699999988079","","","","","","","","","","","","","","",""
"","","","","","html-keyboard-response","271","1115169","0.0-3.0-4.0-0.17","63d8766016c0bfcd19d3c732","B2","batch2","","null","<p class=block-text>Trial 42 out of 60</p>","null","spm_show_trial_num","","","","","","","","","","","","","","","","","","","","","","","","",""
"","","","","","image-button-response","272","1129393","0.0-3.0-4.0-1.17","63d8766016c0bfcd19d3c732","B2","batch2","","14221.300000011921","img/question_4_6.jpeg","5","spm_respsonse","1","6","mat_42","","","","","","1","14221.300000011921","","","","","","","","","","","","","","",""
"","","","","","html-keyboard-response","273","1130453","0.0-3.0-4.0-0.18","63d8766016c0bfcd19d3c732","B2","batch2","","null","<p class=block-text>Trial 43 out of 60</p>","null","spm_show_trial_num","","","","","","","","","","","","","","","","","","","","","","","","",""
"","","","","","image-button-response","274","1147836","0.0-3.0-4.0-1.18","63d8766016c0bfcd19d3c732","B2","batch2","","17379.29999998212","img/question_4_7.jpeg","4","spm_respsonse","1","5","mat_43","","","","","","1","17379.29999998212","","","","","","","","","","","","","","",""
"","","","","","html-keyboard-response","275","1148901","0.0-3.0-4.0-0.19","63d8766016c0bfcd19d3c732","B2","batch2","","null","<p class=block-text>Trial 44 out of 60</p>","null","spm_show_trial_num","","","","","","","","","","","","","","","","","","","","","","","","",""
"","","","","","image-button-response","276","1155471","0.0-3.0-4.0-1.19","63d8766016c0bfcd19d3c732","B2","batch2","","6566.5","img/question_4_8.jpeg","4","spm_respsonse","0","4","mat_44","","","","","","0","6566.5","","","","","","","","","","","","","","",""
"","","","","","html-keyboard-response","277","1156534","0.0-3.0-4.0-0.20","63d8766016c0bfcd19d3c732","B2","batch2","","null","<p class=block-text>Trial 45 out of 60</p>","null","spm_show_trial_num","","","","","","","","","","","","","","","","","","","","","","","","",""
"","","","","","image-button-response","278","1172724","0.0-3.0-4.0-1.20","63d8766016c0bfcd19d3c732","B2","batch2","","16186.799999982119","img/question_4_9.jpeg","3","spm_respsonse","0","1","mat_45","","","","","","0","16186.799999982119","","","","","","","","","","","","","","",""
"","","","","","html-keyboard-response","279","1173793","0.0-3.0-4.0-0.21","63d8766016c0bfcd19d3c732","B2","batch2","","null","<p class=block-text>Trial 46 out of 60</p>","null","spm_show_trial_num","","","","","","","","","","","","","","","","","","","","","","","","",""
"","","","","","image-button-response","280","1186941","0.0-3.0-4.0-1.21","63d8766016c0bfcd19d3c732","B2","batch2","","13145.200000017881","img/question_4_10.jpeg","1","spm_respsonse","1","2","mat_46","","","","","","1","13145.200000017881","","","","","","","","","","","","","","",""
"","","","","","html-keyboard-response","281","1188011","0.0-3.0-4.0-0.22","63d8766016c0bfcd19d3c732","B2","batch2","","null","<p class=block-text>Trial 47 out of 60</p>","null","spm_show_trial_num","","","","","","","","","","","","","","","","","","","","","","","","",""
"","","","","","image-button-response","282","1277140","0.0-3.0-4.0-1.22","63d8766016c0bfcd19d3c732","B2","batch2","","89123.79999998212","img/question_4_11.jpeg","1","spm_respsonse","0","5","mat_47","","","","","","0","89123.79999998212","","","","","","","","","","","","","","",""
"","","","","","html-keyboard-response","283","1278205","0.0-3.0-4.0-0.23","63d8766016c0bfcd19d3c732","B2","batch2","","null","<p class=block-text>Trial 48 out of 60</p>","null","spm_show_trial_num","","","","","","","","","","","","","","","","","","","","","","","","",""
"","","","","","image-button-response","284","1329772","0.0-3.0-4.0-1.23","63d8766016c0bfcd19d3c732","B2","batch2","","51562.30000001192","img/question_4_12.jpeg","4","spm_respsonse","0","6","mat_48","","","","","","0","51562.30000001192","","","","","","","","","","","","","","",""
"","","","","","html-keyboard-response","285","1330839","0.0-3.0-4.0-0.24","63d8766016c0bfcd19d3c732","B2","batch2","","null","<p class=block-text>Trial 49 out of 60</p>","null","spm_show_trial_num","","","","","","","","","","","","","","","","","","","","","","","","",""
"","","","","","image-button-response","286","1357304","0.0-3.0-4.0-1.24","63d8766016c0bfcd19d3c732","B2","batch2","","26461.30000001192","img/question_5_1.jpeg","6","spm_respsonse","1","7","mat_49","","","","","","1","26461.30000001192","","","","","","","","","","","","","","",""
"","","","","","html-keyboard-response","287","1358368","0.0-3.0-4.0-0.25","63d8766016c0bfcd19d3c732","B2","batch2","","null","<p class=block-text>Trial 50 out of 60</p>","null","spm_show_trial_num","","","","","","","","","","","","","","","","","","","","","","","","",""
"","","","","","image-button-response","288","1379526","0.0-3.0-4.0-1.25","63d8766016c0bfcd19d3c732","B2","batch2","","21155.09999999404","img/question_5_2.jpeg","5","spm_respsonse","1","6","mat_50","","","","","","1","21155.09999999404","","","","","","","","","","","","","","",""
"","","","","","html-keyboard-response","289","1380593","0.0-3.0-4.0-0.26","63d8766016c0bfcd19d3c732","B2","batch2","","null","<p class=block-text>Trial 51 out of 60</p>","null","spm_show_trial_num","","","","","","","","","","","","","","","","","","","","","","","","",""
"","","","","","image-button-response","290","1405165","0.0-3.0-4.0-1.26","63d8766016c0bfcd19d3c732","B2","batch2","","24569.20000001788","img/question_5_3.jpeg","7","spm_respsonse","1","8","mat_51","","","","","","1","24569.20000001788","","","","","","","","","","","","","","",""
"","","","","","html-keyboard-response","291","1406233","0.0-3.0-4.0-0.27","63d8766016c0bfcd19d3c732","B2","batch2","","null","<p class=block-text>Trial 52 out of 60</p>","null","spm_show_trial_num","","","","","","","","","","","","","","","","","","","","","","","","",""
"","","","","","image-button-response","292","1432928","0.0-3.0-4.0-1.27","63d8766016c0bfcd19d3c732","B2","batch2","","26691.69999998808","img/question_5_4.jpeg","2","spm_respsonse","0","2","mat_52","","","","","","0","26691.69999998808","","","","","","","","","","","","","","",""
"","","","","","html-keyboard-response","293","1433994","0.0-3.0-4.0-0.28","63d8766016c0bfcd19d3c732","B2","batch2","","null","<p class=block-text>Trial 53 out of 60</p>","null","spm_show_trial_num","","","","","","","","","","","","","","","","","","","","","","","","",""
"","","","","","image-button-response","294","1469469","0.0-3.0-4.0-1.28","63d8766016c0bfcd19d3c732","B2","batch2","","35470.90000000596","img/question_5_5.jpeg","6","spm_respsonse","0","1","mat_53","","","","","","0","35470.90000000596","","","","","","","","","","","","","","",""
"","","","","","html-keyboard-response","295","1470535","0.0-3.0-4.0-0.29","63d8766016c0bfcd19d3c732","B2","batch2","","null","<p class=block-text>Trial 54 out of 60</p>","null","spm_show_trial_num","","","","","","","","","","","","","","","","","","","","","","","","",""
"","","","","","image-button-response","296","1488593","0.0-3.0-4.0-1.29","63d8766016c0bfcd19d3c732","B2","batch2","","18054.70000001788","img/question_5_6.jpeg","3","spm_respsonse","0","5","mat_54","","","","","","0","18054.70000001788","","","","","","","","","","","","","","",""
"","","","","","html-keyboard-response","297","1489660","0.0-3.0-4.0-0.30","63d8766016c0bfcd19d3c732","B2","batch2","","null","<p class=block-text>Trial 55 out of 60</p>","null","spm_show_trial_num","","","","","","","","","","","","","","","","","","","","","","","","",""
"","","","","","image-button-response","298","1542329","0.0-3.0-4.0-1.30","63d8766016c0bfcd19d3c732","B2","batch2","","52665.29999998212","img/question_5_7.jpeg","4","spm_respsonse","0","1","mat_55","","","","","","0","52665.29999998212","","","","","","","","","","","","","","",""
"","","","","","html-keyboard-response","299","1543397","0.0-3.0-4.0-0.31","63d8766016c0bfcd19d3c732","B2","batch2","","null","<p class=block-text>Trial 56 out of 60</p>","null","spm_show_trial_num","","","","","","","","","","","","","","","","","","","","","","","","",""
"","","","","","image-button-response","300","1575201","0.0-3.0-4.0-1.31","63d8766016c0bfcd19d3c732","B2","batch2","","31799.69999998808","img/question_5_8.jpeg","7","spm_respsonse","0","6","mat_56","","","","","","0","31799.69999998808","","","","","","","","","","","","","","",""
"","","","","","html-keyboard-response","301","1576270","0.0-3.0-4.0-0.32","63d8766016c0bfcd19d3c732","B2","batch2","","null","<p class=block-text>Trial 57 out of 60</p>","null","spm_show_trial_num","","","","","","","","","","","","","","","","","","","","","","","","",""
"","","","","","image-button-response","302","1597775","0.0-3.0-4.0-1.32","63d8766016c0bfcd19d3c732","B2","batch2","","21501.40000000596","img/question_5_9.jpeg","2","spm_respsonse","1","3","mat_57","","","","","","1","21501.40000000596","","","","","","","","","","","","","","",""
"","","","","","html-keyboard-response","303","1598835","0.0-3.0-4.0-0.33","63d8766016c0bfcd19d3c732","B2","batch2","","null","<p class=block-text>Trial 58 out of 60</p>","null","spm_show_trial_num","","","","","","","","","","","","","","","","","","","","","","","","",""
"","","","","","image-button-response","304","1654128","0.0-3.0-4.0-1.33","63d8766016c0bfcd19d3c732","B2","batch2","","55288.69999998808","img/question_5_10.jpeg","3","spm_respsonse","0","2","mat_58","","","","","","0","55288.69999998808","","","","","","","","","","","","","","",""
"","","","","","html-keyboard-response","305","1655193","0.0-3.0-4.0-0.34","63d8766016c0bfcd19d3c732","B2","batch2","","null","<p class=block-text>Trial 59 out of 60</p>","null","spm_show_trial_num","","","","","","","","","","","","","","","","","","","","","","","","",""
"","","","","","image-button-response","306","1682187","0.0-3.0-4.0-1.34","63d8766016c0bfcd19d3c732","B2","batch2","","26990.90000000596","img/question_5_11.jpeg","4","spm_respsonse","0","4","mat_59","","","","","","0","26990.90000000596","","","","","","","","","","","","","","",""
"","","","","","html-keyboard-response","307","1683258","0.0-3.0-4.0-0.35","63d8766016c0bfcd19d3c732","B2","batch2","","null","<p class=block-text>Trial 60 out of 60</p>","null","spm_show_trial_num","","","","","","","","","","","","","","","","","","","","","","","","",""
"","","","","","image-button-response","308","1721507","0.0-3.0-4.0-1.35","63d8766016c0bfcd19d3c732","B2","batch2","","38246","img/question_5_12.jpeg","5","spm_respsonse","0","5","mat_60","","","","","","0","38246","","","","","","","","","","","","","","",""
"","","","","","html-button-response","309","1737023","0.0-3.0-5.0","63d8766016c0bfcd19d3c732","B2","batch2","","15255.09999999404","<p class= block-text>This concludes the Standard Progressive Matrix game. Thank you for your responses!<br> When you are ready, click the button continue</p>","0","spm_goodbye","","","","","","","","","","","","","","","","","","","","","","","","",""
"true","","","","","fullscreen","310","1740267","0.0-4.0-0.0","63d8766016c0bfcd19d3c732","B2","batch2","","","","","","","","","","","","","","","","","","","","","","","","","","","","","",""
"","","","","","instructions","311","1797038","0.0-4.0-1.0-0.0-0.0","63d8766016c0bfcd19d3c732","B2","batch2","[{""page_index"":0,""viewing_time"":16944.5},{""page_index"":1,""viewing_time"":6098.299999982119},{""page_index"":2,""viewing_time"":7464.200000017881},{""page_index"":3,""viewing_time"":8755.40000000596},{""page_index"":4,""viewing_time"":4133.799999982119},{""page_index"":5,""viewing_time"":10345.800000011921},{""page_index"":6,""viewing_time"":3025.5999999940395}]","56767.90000000596","","","tol-instructions","","","","","","","","","","","","","","","","","","","","","","","","",""
"","","","","","html-button-response","312","1798272","0.0-4.0-1.0-1.0-0.0","63d8766016c0bfcd19d3c732","B2","batch2","","1232.800000011921","<p class=block-text> Let's answer a few questions <br>","0","tol_enter_quiz","","","","","","","","","","","","","","","","","","","","","","","","",""
"","","","","","html-button-response","313","1801034","0.0-4.0-1.0-1.0-1.0","63d8766016c0bfcd19d3c732","B2","batch2","","2760.0999999940395","<p class = block-text>True or False: You can only move the ball on top of a peg. <br></p>","0","tol_quiz","true","","","","","","","","","","","","","","","","","","","","","","","",""
"","","","","","html-button-response","314","1802404","0.0-4.0-1.0-1.0-2.0","63d8766016c0bfcd19d3c732","B2","batch2","","1368.800000011921","<p class = block-text>Correct! You can only move the ball on top of a peg.</p>","0","tol_quiz_feedback","","","","","","","","","","","","","","","","","","","","","","","","",""
"","","","","","html-button-response","315","1805542","0.0-4.0-1.0-1.0-3.0","63d8766016c0bfcd19d3c732","B2","batch2","","3136.800000011921","<p class = block-text>True or False: You should try to match your board with the target board with fewest moves possible. <br></p>","0","tol_quiz","true","","","","","","","","","","","","","","","","","","","","","","","",""
"","","","","","html-button-response","316","1806536","0.0-4.0-1.0-1.0-4.0","63d8766016c0bfcd19d3c732","B2","batch2","","992.0999999940395","<p class = block-text>Correct! </p>","0","tol_quiz_feedback","","","","","","","","","","","","","","","","","","","","","","","","",""
"","","","","","html-button-response","317","1808348","0.0-4.0-2.0","63d8766016c0bfcd19d3c732","B2","batch2","","1809.699999988079","<p class=block-text> Now that you've understood the game, let's practice a few easier examples before we start!<br> <br>","0","","","","","","","","","","","","","","","","","","","","","","","","","",""
"","","","","","single-stim-button","318","1811955","0.0-4.0-3.0-0.0","63d8766016c0bfcd19d3c732","B2","batch2","","3605","","","tol_practice","","","","","","","","","","","tol_peg_2","3605","3605","0","[[1,2,0],[0,0],[0]]","1","[[1,2,0],[0,0],[3]]","practice","3605","","","","","",""
"","","","","","single-stim-button","319","1813081","0.0-4.0-3.0-1.0","63d8766016c0bfcd19d3c732","B2","batch2","","1125","","","tol_practice","","","","","","","","","","","tol_peg_3","1125","1125","0","[[1,2,0],[0,0],[3]]","1","[[1,2,0],[0,0],[3]]","practice","1125","","","","","",""
"","","","","","poldrack-single-stim","320","1814090","0.0-4.0-4.0","63d8766016c0bfcd19d3c732","B2","batch2","","-1","","","tol_feedback","true","","","","","","","","","","","1000","1000","500","","","","","","-1","none","true","","0",""
"","","","","","single-stim-button","321","1817759","0.0-4.0-5.0-0.0","63d8766016c0bfcd19d3c732","B2","batch2","","3668","","","tol_practice","","","","","","","","","","","tol_peg_1","3668","3668","0","[[1,0,0],[3,0],[0]]","2","[[0,0,0],[3,1],[2]]","practice","3668","","","","","",""
"","","","","","single-stim-button","322","1819194","0.0-4.0-5.0-1.0","63d8766016c0bfcd19d3c732","B2","batch2","","1433","","","tol_practice","","","","","","","","","","","tol_peg_3","1433","1433","0","[[1,0,0],[3,0],[2]]","2","[[0,0,0],[3,1],[2]]","practice","1433","","","","","",""
"","","","","","single-stim-button","323","1820821","0.0-4.0-5.1-0.1","63d8766016c0bfcd19d3c732","B2","batch2","","1626","","","tol_practice","","","","","","","","","","","tol_peg_1","1626","1626","0","[[0,0,0],[3,0],[2]]","3","[[0,0,0],[3,1],[2]]","practice","1626","","","","","",""
"","","","","","single-stim-button","324","1821582","0.0-4.0-5.1-1.1","63d8766016c0bfcd19d3c732","B2","batch2","","760","","","tol_practice","","","","","","","","","","","tol_peg_2","760","760","0","[[0,0,0],[3,1],[2]]","3","[[0,0,0],[3,1],[2]]","practice","760","","","","","",""
"","","","","","poldrack-single-stim","325","1822590","0.0-4.0-6.0","63d8766016c0bfcd19d3c732","B2","batch2","","-1","","","tol_feedback","true","","","","","","","","","","","1000","1000","500","","","","","","-1","none","true","","0",""
"","","","","","single-stim-button","326","1825145","0.0-4.0-7.0-0.0","63d8766016c0bfcd19d3c732","B2","batch2","","2553","","","tol_practice","","","","","","","","","","","tol_peg_2","2553","2553","0","[[1,2,0],[0,0],[0]]","4","[[1,0,0],[2,0],[3]]","practice","2553","","","","","",""
"","","","","","single-stim-button","327","1826151","0.0-4.0-7.0-1.0","63d8766016c0bfcd19d3c732","B2","batch2","","1005","","","tol_practice","","","","","","","","","","","tol_peg_3","1005","1005","0","[[1,2,0],[0,0],[3]]","4","[[1,0,0],[2,0],[3]]","practice","1005","","","","","",""
"","","","","","single-stim-button","328","1827080","0.0-4.0-7.1-0.1","63d8766016c0bfcd19d3c732","B2","batch2","","929","","","tol_practice","","","","","","","","","","","tol_peg_1","929","929","0","[[1,0,0],[0,0],[3]]","5","[[1,0,0],[2,0],[3]]","practice","929","","","","","",""
"","","","","","single-stim-button","329","1827890","0.0-4.0-7.1-1.1","63d8766016c0bfcd19d3c732","B2","batch2","","809","","","tol_practice","","","","","","","","","","","tol_peg_2","809","809","0","[[1,0,0],[2,0],[3]]","5","[[1,0,0],[2,0],[3]]","practice","809","","","","","",""
"","","","","","poldrack-single-stim","330","1828897","0.0-4.0-8.0","63d8766016c0bfcd19d3c732","B2","batch2","","-1","","","tol_feedback","true","","","","","","","","","","","1000","1000","500","","","","","","-1","none","true","","0",""
"","","","","","html-button-response","331","1832494","0.0-4.0-9.0","63d8766016c0bfcd19d3c732","B2","batch2","","3595.5","<div class = centerbox><p class = center-block-text>Great job! You are done with practice trials<br>You are about to start official trials.<br> <br> Problem <strong>1</strong> out of 25 problems</p></div>","0","tol_instruction","","","","","","","","","","","","","","","","","","","","","","","","",""
"","","","","","single-stim-button","332","1836874","0.0-4.0-10.0-0.0","63d8766016c0bfcd19d3c732","B2","batch2","","3371","","","tol_tohand","","","","","","","","","","","tol_peg_2","3371","3371","0","[[1,2,0],[0,0],[0]]","1","[[1,3,0],[2,0],[0]]","0","0","","","","","","3"
"","","","","","single-stim-button","333","1839146","0.0-4.0-10.0-1.0","63d8766016c0bfcd19d3c732","B2","batch2","","2271","","","tol_toboard","","","","","","","","","","","tol_peg_3","2271","2271","0","[[1,2,0],[0,0],[3]]","1","[[1,3,0],[2,0],[0]]","0","0","","","","","","3"
"","","","","","single-stim-button","334","1840124","0.0-4.0-10.1-0.1","63d8766016c0bfcd19d3c732","B2","batch2","","977","","","tol_tohand","","","","","","","","","","","tol_peg_1","977","977","0","[[1,0,0],[0,0],[3]]","2","[[1,3,0],[2,0],[0]]","0","0","","","","","","3"
"","","","","","single-stim-button","335","1841182","0.0-4.0-10.1-1.1","63d8766016c0bfcd19d3c732","B2","batch2","","1057","","","tol_toboard","","","","","","","","","","","tol_peg_2","1057","1057","0","[[1,0,0],[2,0],[3]]","2","[[1,3,0],[2,0],[0]]","0","0","","","","","","3"
"","","","","","single-stim-button","336","1842577","0.0-4.0-10.2-0.2","63d8766016c0bfcd19d3c732","B2","batch2","","1394","","","tol_tohand","","","","","","","","","","","tol_peg_3","1394","1394","0","[[1,0,0],[2,0],[0]]","3","[[1,3,0],[2,0],[0]]","0","0","","","","","","3"
"","","","","","single-stim-button","337","1844329","0.0-4.0-10.2-1.2","63d8766016c0bfcd19d3c732","B2","batch2","","1750","","","tol_toboard","","","","","","","","","","","tol_peg_1","1750","1750","0","[[1,3,0],[2,0],[0]]","3","[[1,3,0],[2,0],[0]]","0","0","","","","","","3"
"","","","","","poldrack-single-stim","338","1845343","0.0-4.0-11.0","63d8766016c0bfcd19d3c732","B2","batch2","","-1","","","tol_feedback","true","","","","","","","","","","","1000","1000","500","","","","","","-1","none","true","3371","5742",""
"","","","","","html-button-response","339","1846613","0.0-4.0-12.0","63d8766016c0bfcd19d3c732","B2","batch2","","1269.199999988079","<div class = centerbox><p class = center-block-text>problem <strong>2</strong> out of 25 problems</p></div>","0","tol_trial_num","","","","","","","","","","","","","","","","","","","","","","","","",""
"","","","","","single-stim-button","340","1857015","0.0-4.0-13.0-0.0","63d8766016c0bfcd19d3c732","B2","batch2","","10401","","","tol_tohand","","","","","","","","","","","tol_peg_2","10401","10401","0","[[1,2,0],[0,0],[0]]","1","[[2,1,3],[0,0],[0]]","1","0","","","","","","5"
"","","","","","single-stim-button","341","1864908","0.0-4.0-13.0-1.0","63d8766016c0bfcd19d3c732","B2","batch2","","7892","","","tol_toboard","","","","","","","","","","","tol_peg_2","7892","7892","0","[[1,2,0],[3,0],[0]]","1","[[2,1,3],[0,0],[0]]","1","0","","","","","","5"
"","","","","","single-stim-button","342","1866824","0.0-4.0-13.1-0.1","63d8766016c0bfcd19d3c732","B2","batch2","","1913","","","tol_tohand","","","","","","","","","","","tol_peg_1","1913","1913","0","[[1,0,0],[3,0],[0]]","2","[[2,1,3],[0,0],[0]]","1","0","","","","","","5"
"","","","","","single-stim-button","343","1875042","0.0-4.0-13.1-1.1","63d8766016c0bfcd19d3c732","B2","batch2","","8218","","","tol_toboard","","","","","","","","","","","tol_peg_1","8218","8218","0","[[1,2,0],[3,0],[0]]","2","[[2,1,3],[0,0],[0]]","1","0","","","","","","5"
"","","","","","single-stim-button","344","1875848","0.0-4.0-13.2-0.2","63d8766016c0bfcd19d3c732","B2","batch2","","805","","","tol_tohand","","","","","","","","","","","tol_peg_2","805","805","0","[[1,2,0],[0,0],[0]]","3","[[2,1,3],[0,0],[0]]","1","0","","","","","","5"
"","","","","","single-stim-button","345","1876822","0.0-4.0-13.2-1.2","63d8766016c0bfcd19d3c732","B2","batch2","","973","","","tol_toboard","","","","","","","","","","","tol_peg_3","973","973","0","[[1,2,0],[0,0],[3]]","3","[[2,1,3],[0,0],[0]]","1","0","","","","","","5"
