"success","timeout","failed_images","failed_audio","failed_video","trial_type","trial_index","time_elapsed","internal_node_id","subject_id","study_id","session_id","task","rt","stimulus","response","item","answer","correct","spm_correct","spm_rt","view_history","mouse_click","stim_duration","block_duration","timing_post_trial","current_position","tol_num_moves_made","tol_target","tol_problem_id","tol_rt","key_press","possible_responses","tol_correct","preplanning","tol_rt_per_trial","tol_min_moves","fiar_detect_rt","fiar_detect_correct","total_correct_fiar_detect","post_trial_gap","choices"
"true","false","[]","[]","[]","preload","0","3268","0.0-0.0","63d83b5d3a1951db0fb600a4","A3","batch1","","","","","","","","","","","","","","","","","","","","","","","","","","","","","",""
"true","","","","","fullscreen","1","8804","0.0-1.0-0.0","63d83b5d3a1951db0fb600a4","A3","batch1","","","","","","","","","","","","","","","","","","","","","","","","","","","","","",""
"true","","","","","fullscreen","2","11908","0.0-2.0-0.0","63d83b5d3a1951db0fb600a4","A3","batch1","spm_fullscreen","","","","","","","","","","","","","","","","","","","","","","","","","","","","",""
"","","","","","html-button-response","3","17336","0.0-2.0-1.0","63d83b5d3a1951db0fb600a4","A3","batch1","","5424.799999999988","<p class = block-text><b>Instructions</b> <br>This is a widely used intelligence test in research. <br>In this test, a figure with a missing piece will be presented.<br>Below the figure are alternative pieces to complete the figure, only one of which is correct.<br> Different figures might involve different principles for obtaining the missing piece<br>Your job is to select the most logical piece to complete the figure.</p>","0","","","","","","","","","","","","","","","","","","","","","","","","","",""
"","","","","","html-keyboard-response","4","18140","0.0-2.0-2.0-0.0","63d83b5d3a1951db0fb600a4","A3","batch1","spm_show_trial_num","null","<p class=block-text>Trial 1 out of 60</p>","null","","","","","","","","","","","","","","","","","","","","","","","","","",""
"","","","","","image-button-response","5","31235","0.0-2.0-2.0-1.0","63d83b5d3a1951db0fb600a4","A3","batch1","spm_respsonse","13073.5","img/question_1_1.jpeg","3","mat_01","4","1","1","13073.5","","","","","","","","","","","","","","","","","","","","",""
"","","","","","html-keyboard-response","6","32301","0.0-2.0-2.0-0.1","63d83b5d3a1951db0fb600a4","A3","batch1","spm_show_trial_num","null","<p class=block-text>Trial 2 out of 60</p>","null","","","","","","","","","","","","","","","","","","","","","","","","","",""
"","","","","","image-button-response","7","35550","0.0-2.0-2.0-1.1","63d83b5d3a1951db0fb600a4","A3","batch1","spm_respsonse","3246.5999999999767","img/question_1_2.jpeg","4","mat_02","5","1","1","3246.5999999999767","","","","","","","","","","","","","","","","","","","","",""
"","","","","","html-keyboard-response","8","36612","0.0-2.0-2.0-0.2","63d83b5d3a1951db0fb600a4","A3","batch1","spm_show_trial_num","null","<p class=block-text>Trial 3 out of 60</p>","null","","","","","","","","","","","","","","","","","","","","","","","","","",""
"","","","","","image-button-response","9","39142","0.0-2.0-2.0-1.2","63d83b5d3a1951db0fb600a4","A3","batch1","spm_respsonse","2526.4000000000233","img/question_1_3.jpeg","0","mat_03","1","1","1","2526.4000000000233","","","","","","","","","","","","","","","","","","","","",""
"","","","","","html-keyboard-response","10","40204","0.0-2.0-2.0-0.3","63d83b5d3a1951db0fb600a4","A3","batch1","spm_show_trial_num","null","<p class=block-text>Trial 4 out of 60</p>","null","","","","","","","","","","","","","","","","","","","","","","","","","",""
"","","","","","image-button-response","11","44210","0.0-2.0-2.0-1.3","63d83b5d3a1951db0fb600a4","A3","batch1","spm_respsonse","4002.2000000000116","img/question_1_4.jpeg","1","mat_04","2","1","1","4002.2000000000116","","","","","","","","","","","","","","","","","","","","",""
"","","","","","html-keyboard-response","12","45276","0.0-2.0-2.0-0.4","63d83b5d3a1951db0fb600a4","A3","batch1","spm_show_trial_num","null","<p class=block-text>Trial 5 out of 60</p>","null","","","","","","","","","","","","","","","","","","","","","","","","","",""
"","","","","","image-button-response","13","48948","0.0-2.0-2.0-1.4","63d83b5d3a1951db0fb600a4","A3","batch1","spm_respsonse","3668","img/question_1_5.jpeg","5","mat_05","6","1","1","3668","","","","","","","","","","","","","","","","","","","","",""
"","","","","","html-keyboard-response","14","50012","0.0-2.0-2.0-0.5","63d83b5d3a1951db0fb600a4","A3","batch1","spm_show_trial_num","null","<p class=block-text>Trial 6 out of 60</p>","null","","","","","","","","","","","","","","","","","","","","","","","","","",""
"","","","","","image-button-response","15","53129","0.0-2.0-2.0-1.5","63d83b5d3a1951db0fb600a4","A3","batch1","spm_respsonse","3113.2999999999884","img/question_1_6.jpeg","2","mat_06","3","1","1","3113.2999999999884","","","","","","","","","","","","","","","","","","","","",""
"","","","","","html-keyboard-response","16","54188","0.0-2.0-2.0-0.6","63d83b5d3a1951db0fb600a4","A3","batch1","spm_show_trial_num","null","<p class=block-text>Trial 7 out of 60</p>","null","","","","","","","","","","","","","","","","","","","","","","","","","",""
"","","","","","image-button-response","17","58833","0.0-2.0-2.0-1.6","63d83b5d3a1951db0fb600a4","A3","batch1","spm_respsonse","4641.399999999965","img/question_1_7.jpeg","5","mat_07","6","1","1","4641.399999999965","","","","","","","","","","","","","","","","","","","","",""
"","","","","","html-keyboard-response","18","59892","0.0-2.0-2.0-0.7","63d83b5d3a1951db0fb600a4","A3","batch1","spm_show_trial_num","null","<p class=block-text>Trial 8 out of 60</p>","null","","","","","","","","","","","","","","","","","","","","","","","","","",""
"","","","","","image-button-response","19","69996","0.0-2.0-2.0-1.7","63d83b5d3a1951db0fb600a4","A3","batch1","spm_respsonse","10101.400000000023","img/question_1_8.jpeg","1","mat_08","2","1","1","10101.400000000023","","","","","","","","","","","","","","","","","","","","",""
"","","","","","html-keyboard-response","20","71061","0.0-2.0-2.0-0.8","63d83b5d3a1951db0fb600a4","A3","batch1","spm_show_trial_num","null","<p class=block-text>Trial 9 out of 60</p>","null","","","","","","","","","","","","","","","","","","","","","","","","","",""
"","","","","","image-button-response","21","74317","0.0-2.0-2.0-1.8","63d83b5d3a1951db0fb600a4","A3","batch1","spm_respsonse","3252.8000000000466","img/question_1_9.jpeg","0","mat_09","1","1","1","3252.8000000000466","","","","","","","","","","","","","","","","","","","","",""
"","","","","","html-keyboard-response","22","75380","0.0-2.0-2.0-0.9","63d83b5d3a1951db0fb600a4","A3","batch1","spm_show_trial_num","null","<p class=block-text>Trial 10 out of 60</p>","null","","","","","","","","","","","","","","","","","","","","","","","","","",""
"","","","","","image-button-response","23","80605","0.0-2.0-2.0-1.9","63d83b5d3a1951db0fb600a4","A3","batch1","spm_respsonse","5221.299999999988","img/question_1_10.jpeg","2","mat_10","3","1","1","5221.299999999988","","","","","","","","","","","","","","","","","","","","",""
"","","","","","html-keyboard-response","24","81669","0.0-2.0-2.0-0.10","63d83b5d3a1951db0fb600a4","A3","batch1","spm_show_trial_num","null","<p class=block-text>Trial 11 out of 60</p>","null","","","","","","","","","","","","","","","","","","","","","","","","","",""
"","","","","","image-button-response","25","100042","0.0-2.0-2.0-1.10","63d83b5d3a1951db0fb600a4","A3","batch1","spm_respsonse","18369.70000000001","img/question_1_11.jpeg","3","mat_11","4","1","1","18369.70000000001","","","","","","","","","","","","","","","","","","","","",""
"","","","","","html-keyboard-response","26","101108","0.0-2.0-2.0-0.11","63d83b5d3a1951db0fb600a4","A3","batch1","spm_show_trial_num","null","<p class=block-text>Trial 12 out of 60</p>","null","","","","","","","","","","","","","","","","","","","","","","","","","",""
"","","","","","image-button-response","27","125674","0.0-2.0-2.0-1.11","63d83b5d3a1951db0fb600a4","A3","batch1","spm_respsonse","24561.70000000001","img/question_1_12.jpeg","4","mat_12","5","1","1","24561.70000000001","","","","","","","","","","","","","","","","","","","","",""
"","","","","","html-keyboard-response","28","126740","0.0-2.0-2.0-0.12","63d83b5d3a1951db0fb600a4","A3","batch1","spm_show_trial_num","null","<p class=block-text>Trial 13 out of 60</p>","null","","","","","","","","","","","","","","","","","","","","","","","","","",""
"","","","","","image-button-response","29","129856","0.0-2.0-2.0-1.12","63d83b5d3a1951db0fb600a4","A3","batch1","spm_respsonse","3112.7000000000116","img/question_2_1.jpeg","1","mat_13","2","1","1","3112.7000000000116","","","","","","","","","","","","","","","","","","","","",""
"","","","","","html-keyboard-response","30","130916","0.0-2.0-2.0-0.13","63d83b5d3a1951db0fb600a4","A3","batch1","spm_show_trial_num","null","<p class=block-text>Trial 14 out of 60</p>","null","","","","","","","","","","","","","","","","","","","","","","","","","",""
"","","","","","image-button-response","31","136254","0.0-2.0-2.0-1.13","63d83b5d3a1951db0fb600a4","A3","batch1","spm_respsonse","5334","img/question_2_2.jpeg","5","mat_14","6","1","1","5334","","","","","","","","","","","","","","","","","","","","",""
"","","","","","html-keyboard-response","32","137316","0.0-2.0-2.0-0.14","63d83b5d3a1951db0fb600a4","A3","batch1","spm_show_trial_num","null","<p class=block-text>Trial 15 out of 60</p>","null","","","","","","","","","","","","","","","","","","","","","","","","","",""
"","","","","","image-button-response","33","150543","0.0-2.0-2.0-1.14","63d83b5d3a1951db0fb600a4","A3","batch1","spm_respsonse","13223.400000000023","img/question_2_3.jpeg","0","mat_15","1","1","1","13223.400000000023","","","","","","","","","","","","","","","","","","","","",""
"","","","","","html-keyboard-response","34","151605","0.0-2.0-2.0-0.15","63d83b5d3a1951db0fb600a4","A3","batch1","spm_show_trial_num","null","<p class=block-text>Trial 16 out of 60</p>","null","","","","","","","","","","","","","","","","","","","","","","","","","",""
"","","","","","image-button-response","35","155084","0.0-2.0-2.0-1.15","63d83b5d3a1951db0fb600a4","A3","batch1","spm_respsonse","3476.899999999965","img/question_2_4.jpeg","1","mat_16","2","1","1","3476.899999999965","","","","","","","","","","","","","","","","","","","","",""
"","","","","","html-keyboard-response","36","156148","0.0-2.0-2.0-0.16","63d83b5d3a1951db0fb600a4","A3","batch1","spm_show_trial_num","null","<p class=block-text>Trial 17 out of 60</p>","null","","","","","","","","","","","","","","","","","","","","","","","","","",""
"","","","","","image-button-response","37","161300","0.0-2.0-2.0-1.16","63d83b5d3a1951db0fb600a4","A3","batch1","spm_respsonse","5148.799999999988","img/question_2_5.jpeg","0","mat_17","1","1","1","5148.799999999988","","","","","","","","","","","","","","","","","","","","",""
"","","","","","html-keyboard-response","38","162364","0.0-2.0-2.0-0.17","63d83b5d3a1951db0fb600a4","A3","batch1","spm_show_trial_num","null","<p class=block-text>Trial 18 out of 60</p>","null","","","","","","","","","","","","","","","","","","","","","","","","","",""
"","","","","","image-button-response","39","168077","0.0-2.0-2.0-1.17","63d83b5d3a1951db0fb600a4","A3","batch1","spm_respsonse","5708.599999999977","img/question_2_6.jpeg","2","mat_18","3","1","1","5708.599999999977","","","","","","","","","","","","","","","","","","","","",""
"","","","","","html-keyboard-response","40","169140","0.0-2.0-2.0-0.18","63d83b5d3a1951db0fb600a4","A3","batch1","spm_show_trial_num","null","<p class=block-text>Trial 19 out of 60</p>","null","","","","","","","","","","","","","","","","","","","","","","","","","",""
"","","","","","image-button-response","41","173031","0.0-2.0-2.0-1.18","63d83b5d3a1951db0fb600a4","A3","batch1","spm_respsonse","3887.6999999999534","img/question_2_7.jpeg","5","mat_19","5","0","0","3887.6999999999534","","","","","","","","","","","","","","","","","","","","",""
"","","","","","html-keyboard-response","42","174092","0.0-2.0-2.0-0.19","63d83b5d3a1951db0fb600a4","A3","batch1","spm_show_trial_num","null","<p class=block-text>Trial 20 out of 60</p>","null","","","","","","","","","","","","","","","","","","","","","","","","","",""
"","","","","","image-button-response","43","179956","0.0-2.0-2.0-1.19","63d83b5d3a1951db0fb600a4","A3","batch1","spm_respsonse","5861.299999999988","img/question_2_8.jpeg","5","mat_20","6","1","1","5861.299999999988","","","","","","","","","","","","","","","","","","","","",""
"","","","","","html-keyboard-response","44","181020","0.0-2.0-2.0-0.20","63d83b5d3a1951db0fb600a4","A3","batch1","spm_show_trial_num","null","<p class=block-text>Trial 21 out of 60</p>","null","","","","","","","","","","","","","","","","","","","","","","","","","",""
"","","","","","image-button-response","45","184832","0.0-2.0-2.0-1.20","63d83b5d3a1951db0fb600a4","A3","batch1","spm_respsonse","3809","img/question_2_9.jpeg","0","mat_21","4","0","0","3809","","","","","","","","","","","","","","","","","","","","",""
"","","","","","html-keyboard-response","46","185886","0.0-2.0-2.0-0.21","63d83b5d3a1951db0fb600a4","A3","batch1","spm_show_trial_num","null","<p class=block-text>Trial 22 out of 60</p>","null","","","","","","","","","","","","","","","","","","","","","","","","","",""
"","","","","","image-button-response","47","194268","0.0-2.0-2.0-1.21","63d83b5d3a1951db0fb600a4","A3","batch1","spm_respsonse","8377.900000000023","img/question_2_10.jpeg","2","mat_22","3","1","1","8377.900000000023","","","","","","","","","","","","","","","","","","","","",""
"","","","","","html-keyboard-response","48","195332","0.0-2.0-2.0-0.22","63d83b5d3a1951db0fb600a4","A3","batch1","spm_show_trial_num","null","<p class=block-text>Trial 23 out of 60</p>","null","","","","","","","","","","","","","","","","","","","","","","","","","",""
"","","","","","image-button-response","49","204902","0.0-2.0-2.0-1.22","63d83b5d3a1951db0fb600a4","A3","batch1","spm_respsonse","9566.299999999988","img/question_2_11.jpeg","3","mat_23","4","1","1","9566.299999999988","","","","","","","","","","","","","","","","","","","","",""
"","","","","","html-keyboard-response","50","205964","0.0-2.0-2.0-0.23","63d83b5d3a1951db0fb600a4","A3","batch1","spm_show_trial_num","null","<p class=block-text>Trial 24 out of 60</p>","null","","","","","","","","","","","","","","","","","","","","","","","","","",""
"","","","","","image-button-response","51","235039","0.0-2.0-2.0-1.23","63d83b5d3a1951db0fb600a4","A3","batch1","spm_respsonse","29072.199999999953","img/question_2_12.jpeg","4","mat_24","5","1","1","29072.199999999953","","","","","","","","","","","","","","","","","","","","",""
"","","","","","html-button-response","52","236872","0.0-2.0-3.0","63d83b5d3a1951db0fb600a4","A3","batch1","attention_check","1577.4000000000233","<p class = block-text>Attention check: Please choose 1<br></p>","0","","","true","","","","","","","","","","","","","","","","","","","","","","",""
"","","","","","html-keyboard-response","53","237677","0.0-2.0-4.0-0.0","63d83b5d3a1951db0fb600a4","A3","batch1","spm_show_trial_num","null","<p class=block-text>Trial 25 out of 60</p>","null","","","","","","","","","","","","","","","","","","","","","","","","","",""
"","","","","","image-button-response","54","250328","0.0-2.0-4.0-1.0","63d83b5d3a1951db0fb600a4","A3","batch1","spm_respsonse","12647.79999999993","img/question_3_1.jpeg","7","mat_25","8","1","1","12647.79999999993","","","","","","","","","","","","","","","","","","","","",""
"","","","","","html-keyboard-response","55","251389","0.0-2.0-4.0-0.1","63d83b5d3a1951db0fb600a4","A3","batch1","spm_show_trial_num","null","<p class=block-text>Trial 26 out of 60</p>","null","","","","","","","","","","","","","","","","","","","","","","","","","",""
"","","","","","image-button-response","56","262378","0.0-2.0-4.0-1.1","63d83b5d3a1951db0fb600a4","A3","batch1","spm_respsonse","10985.29999999993","img/question_3_2.jpeg","1","mat_26","2","1","1","10985.29999999993","","","","","","","","","","","","","","","","","","","","",""
"","","","","","html-keyboard-response","57","263445","0.0-2.0-4.0-0.2","63d83b5d3a1951db0fb600a4","A3","batch1","spm_show_trial_num","null","<p class=block-text>Trial 27 out of 60</p>","null","","","","","","","","","","","","","","","","","","","","","","","","","",""
"","","","","","image-button-response","58","287000","0.0-2.0-4.0-1.2","63d83b5d3a1951db0fb600a4","A3","batch1","spm_respsonse","23551.900000000023","img/question_3_3.jpeg","2","mat_27","3","1","1","23551.900000000023","","","","","","","","","","","","","","","","","","","","",""
"","","","","","html-keyboard-response","59","288060","0.0-2.0-4.0-0.3","63d83b5d3a1951db0fb600a4","A3","batch1","spm_show_trial_num","null","<p class=block-text>Trial 28 out of 60</p>","null","","","","","","","","","","","","","","","","","","","","","","","","","",""
"","","","","","image-button-response","60","308563","0.0-2.0-4.0-1.3","63d83b5d3a1951db0fb600a4","A3","batch1","spm_respsonse","20498.699999999953","img/question_3_4.jpeg","7","mat_28","8","1","1","20498.699999999953","","","","","","","","","","","","","","","","","","","","",""
"","","","","","html-keyboard-response","61","309628","0.0-2.0-4.0-0.4","63d83b5d3a1951db0fb600a4","A3","batch1","spm_show_trial_num","null","<p class=block-text>Trial 29 out of 60</p>","null","","","","","","","","","","","","","","","","","","","","","","","","","",""
"","","","","","image-button-response","62","321479","0.0-2.0-4.0-1.4","63d83b5d3a1951db0fb600a4","A3","batch1","spm_respsonse","11847.599999999977","img/question_3_5.jpeg","6","mat_29","7","1","1","11847.599999999977","","","","","","","","","","","","","","","","","","","","",""
"","","","","","html-keyboard-response","63","322540","0.0-2.0-4.0-0.5","63d83b5d3a1951db0fb600a4","A3","batch1","spm_show_trial_num","null","<p class=block-text>Trial 30 out of 60</p>","null","","","","","","","","","","","","","","","","","","","","","","","","","",""
"","","","","","image-button-response","64","330910","0.0-2.0-4.0-1.5","63d83b5d3a1951db0fb600a4","A3","batch1","spm_respsonse","8366.900000000023","img/question_3_6.jpeg","3","mat_30","4","1","1","8366.900000000023","","","","","","","","","","","","","","","","","","","","",""
"","","","","","html-keyboard-response","65","331972","0.0-2.0-4.0-0.6","63d83b5d3a1951db0fb600a4","A3","batch1","spm_show_trial_num","null","<p class=block-text>Trial 31 out of 60</p>","null","","","","","","","","","","","","","","","","","","","","","","","","","",""
"","","","","","image-button-response","66","337599","0.0-2.0-4.0-1.6","63d83b5d3a1951db0fb600a4","A3","batch1","spm_respsonse","5623","img/question_3_7.jpeg","4","mat_31","5","1","1","5623","","","","","","","","","","","","","","","","","","","","",""
"","","","","","html-keyboard-response","67","338661","0.0-2.0-4.0-0.7","63d83b5d3a1951db0fb600a4","A3","batch1","spm_show_trial_num","null","<p class=block-text>Trial 32 out of 60</p>","null","","","","","","","","","","","","","","","","","","","","","","","","","",""
"","","","","","image-button-response","68","368166","0.0-2.0-4.0-1.7","63d83b5d3a1951db0fb600a4","A3","batch1","spm_respsonse","29502.400000000023","img/question_3_8.jpeg","0","mat_32","1","1","1","29502.400000000023","","","","","","","","","","","","","","","","","","","","",""
"","","","","","html-keyboard-response","69","369228","0.0-2.0-4.0-0.8","63d83b5d3a1951db0fb600a4","A3","batch1","spm_show_trial_num","null","<p class=block-text>Trial 33 out of 60</p>","null","","","","","","","","","","","","","","","","","","","","","","","","","",""
"","","","","","image-button-response","70","372074","0.0-2.0-4.0-1.8","63d83b5d3a1951db0fb600a4","A3","batch1","spm_respsonse","2843","img/question_3_9.jpeg","5","mat_33","7","0","0","2843","","","","","","","","","","","","","","","","","","","","",""
"","","","","","html-keyboard-response","71","373133","0.0-2.0-4.0-0.9","63d83b5d3a1951db0fb600a4","A3","batch1","spm_show_trial_num","null","<p class=block-text>Trial 34 out of 60</p>","null","","","","","","","","","","","","","","","","","","","","","","","","","",""
"","","","","","image-button-response","72","375241","0.0-2.0-4.0-1.9","63d83b5d3a1951db0fb600a4","A3","batch1","spm_respsonse","2105.0999999999767","img/question_3_10.jpeg","3","mat_34","6","0","0","2105.0999999999767","","","","","","","","","","","","","","","","","","","","",""
"","","","","","html-keyboard-response","73","376308","0.0-2.0-4.0-0.10","63d83b5d3a1951db0fb600a4","A3","batch1","spm_show_trial_num","null","<p class=block-text>Trial 35 out of 60</p>","null","","","","","","","","","","","","","","","","","","","","","","","","","",""
"","","","","","image-button-response","74","376678","0.0-2.0-4.0-1.10","63d83b5d3a1951db0fb600a4","A3","batch1","spm_respsonse","366.9000000000233","img/question_3_11.jpeg","5","mat_35","1","0","0","366.9000000000233","","","","","","","","","","","","","","","","","","","","",""
"","","","","","html-keyboard-response","75","377740","0.0-2.0-4.0-0.11","63d83b5d3a1951db0fb600a4","A3","batch1","spm_show_trial_num","null","<p class=block-text>Trial 36 out of 60</p>","null","","","","","","","","","","","","","","","","","","","","","","","","","",""
"","","","","","image-button-response","76","378319","0.0-2.0-4.0-1.11","63d83b5d3a1951db0fb600a4","A3","batch1","spm_respsonse","576.7000000000698","img/question_3_12.jpeg","3","mat_36","2","0","0","576.7000000000698","","","","","","","","","","","","","","","","","","","","",""
"","","","","","html-keyboard-response","77","379380","0.0-2.0-4.0-0.12","63d83b5d3a1951db0fb600a4","A3","batch1","spm_show_trial_num","null","<p class=block-text>Trial 37 out of 60</p>","null","","","","","","","","","","","","","","","","","","","","","","","","","",""
"","","","","","image-button-response","78","379859","0.0-2.0-4.0-1.12","63d83b5d3a1951db0fb600a4","A3","batch1","spm_respsonse","476.70000000006985","img/question_4_1.jpeg","5","mat_37","3","0","0","476.70000000006985","","","","","","","","","","","","","","","","","","","","",""
"","","","","","html-keyboard-response","79","380924","0.0-2.0-4.0-0.13","63d83b5d3a1951db0fb600a4","A3","batch1","spm_show_trial_num","null","<p class=block-text>Trial 38 out of 60</p>","null","","","","","","","","","","","","","","","","","","","","","","","","","",""
"","","","","","image-button-response","80","381410","0.0-2.0-4.0-1.13","63d83b5d3a1951db0fb600a4","A3","batch1","spm_respsonse","483.70000000006985","img/question_4_2.jpeg","3","mat_38","4","1","1","483.70000000006985","","","","","","","","","","","","","","","","","","","","",""
"","","","","","html-keyboard-response","81","382468","0.0-2.0-4.0-0.14","63d83b5d3a1951db0fb600a4","A3","batch1","spm_show_trial_num","null","<p class=block-text>Trial 39 out of 60</p>","null","","","","","","","","","","","","","","","","","","","","","","","","","",""
"","","","","","image-button-response","82","382713","0.0-2.0-4.0-1.14","63d83b5d3a1951db0fb600a4","A3","batch1","spm_respsonse","242.20000000006985","img/question_4_3.jpeg","1","mat_39","3","0","0","242.20000000006985","","","","","","","","","","","","","","","","","","","","",""
"","","","","","html-keyboard-response","83","383772","0.0-2.0-4.0-0.15","63d83b5d3a1951db0fb600a4","A3","batch1","spm_show_trial_num","null","<p class=block-text>Trial 40 out of 60</p>","null","","","","","","","","","","","","","","","","","","","","","","","","","",""
"","","","","","image-button-response","84","384450","0.0-2.0-4.0-1.15","63d83b5d3a1951db0fb600a4","A3","batch1","spm_respsonse","674.6999999999534","img/question_4_4.jpeg","5","mat_40","7","0","0","674.6999999999534","","","","","","","","","","","","","","","","","","","","",""
"","","","","","html-keyboard-response","85","385516","0.0-2.0-4.0-0.16","63d83b5d3a1951db0fb600a4","A3","batch1","spm_show_trial_num","null","<p class=block-text>Trial 41 out of 60</p>","null","","","","","","","","","","","","","","","","","","","","","","","","","",""
"","","","","","image-button-response","86","386632","0.0-2.0-4.0-1.16","63d83b5d3a1951db0fb600a4","A3","batch1","spm_respsonse","1113.4000000000233","img/question_4_5.jpeg","3","mat_41","8","0","0","1113.4000000000233","","","","","","","","","","","","","","","","","","","","",""
"","","","","","html-keyboard-response","87","387693","0.0-2.0-4.0-0.17","63d83b5d3a1951db0fb600a4","A3","batch1","spm_show_trial_num","null","<p class=block-text>Trial 42 out of 60</p>","null","","","","","","","","","","","","","","","","","","","","","","","","","",""
"","","","","","image-button-response","88","388637","0.0-2.0-4.0-1.17","63d83b5d3a1951db0fb600a4","A3","batch1","spm_respsonse","941.8000000000466","img/question_4_6.jpeg","6","mat_42","6","0","0","941.8000000000466","","","","","","","","","","","","","","","","","","","","",""
"","","","","","html-keyboard-response","89","389700","0.0-2.0-4.0-0.18","63d83b5d3a1951db0fb600a4","A3","batch1","spm_show_trial_num","null","<p class=block-text>Trial 43 out of 60</p>","null","","","","","","","","","","","","","","","","","","","","","","","","","",""
"","","","","","image-button-response","90","390086","0.0-2.0-4.0-1.18","63d83b5d3a1951db0fb600a4","A3","batch1","spm_respsonse","383.20000000006985","img/question_4_7.jpeg","2","mat_43","5","0","0","383.20000000006985","","","","","","","","","","","","","","","","","","","","",""
"","","","","","html-keyboard-response","91","391148","0.0-2.0-4.0-0.19","63d83b5d3a1951db0fb600a4","A3","batch1","spm_show_trial_num","null","<p class=block-text>Trial 44 out of 60</p>","null","","","","","","","","","","","","","","","","","","","","","","","","","",""
"","","","","","image-button-response","92","391260","0.0-2.0-4.0-1.19","63d83b5d3a1951db0fb600a4","A3","batch1","spm_respsonse","109.80000000004657","img/question_4_8.jpeg","4","mat_44","4","0","0","109.80000000004657","","","","","","","","","","","","","","","","","","","","",""
"","","","","","html-keyboard-response","93","392324","0.0-2.0-4.0-0.20","63d83b5d3a1951db0fb600a4","A3","batch1","spm_show_trial_num","null","<p class=block-text>Trial 45 out of 60</p>","null","","","","","","","","","","","","","","","","","","","","","","","","","",""
"","","","","","image-button-response","94","392337","0.0-2.0-4.0-1.20","63d83b5d3a1951db0fb600a4","A3","batch1","spm_respsonse","10.5","img/question_4_9.jpeg","3","mat_45","1","0","0","10.5","","","","","","","","","","","","","","","","","","","","",""
"","","","","","html-keyboard-response","95","393396","0.0-2.0-4.0-0.21","63d83b5d3a1951db0fb600a4","A3","batch1","spm_show_trial_num","null","<p class=block-text>Trial 46 out of 60</p>","null","","","","","","","","","","","","","","","","","","","","","","","","","",""
"","","","","","image-button-response","96","394363","0.0-2.0-4.0-1.21","63d83b5d3a1951db0fb600a4","A3","batch1","spm_respsonse","963.1000000000931","img/question_4_10.jpeg","4","mat_46","2","0","0","963.1000000000931","","","","","","","","","","","","","","","","","","","","",""
"","","","","","html-keyboard-response","97","395428","0.0-2.0-4.0-0.22","63d83b5d3a1951db0fb600a4","A3","batch1","spm_show_trial_num","null","<p class=block-text>Trial 47 out of 60</p>","null","","","","","","","","","","","","","","","","","","","","","","","","","",""
"","","","","","image-button-response","98","396617","0.0-2.0-4.0-1.22","63d83b5d3a1951db0fb600a4","A3","batch1","spm_respsonse","1186","img/question_4_11.jpeg","6","mat_47","5","0","0","1186","","","","","","","","","","","","","","","","","","","","",""
"","","","","","html-keyboard-response","99","397676","0.0-2.0-4.0-0.23","63d83b5d3a1951db0fb600a4","A3","batch1","spm_show_trial_num","null","<p class=block-text>Trial 48 out of 60</p>","null","","","","","","","","","","","","","","","","","","","","","","","","","",""
"","","","","","image-button-response","100","397963","0.0-2.0-4.0-1.23","63d83b5d3a1951db0fb600a4","A3","batch1","spm_respsonse","284.30000000004657","img/question_4_12.jpeg","0","mat_48","6","0","0","284.30000000004657","","","","","","","","","","","","","","","","","","","","",""
"","","","","","html-keyboard-response","101","399023","0.0-2.0-4.0-0.24","63d83b5d3a1951db0fb600a4","A3","batch1","spm_show_trial_num","null","<p class=block-text>Trial 49 out of 60</p>","null","","","","","","","","","","","","","","","","","","","","","","","","","",""
"","","","","","image-button-response","102","399232","0.0-2.0-4.0-1.24","63d83b5d3a1951db0fb600a4","A3","batch1","spm_respsonse","206.20000000006985","img/question_5_1.jpeg","7","mat_49","7","0","0","206.20000000006985","","","","","","","","","","","","","","","","","","","","",""
"","","","","","html-keyboard-response","103","400292","0.0-2.0-4.0-0.25","63d83b5d3a1951db0fb600a4","A3","batch1","spm_show_trial_num","null","<p class=block-text>Trial 50 out of 60</p>","null","","","","","","","","","","","","","","","","","","","","","","","","","",""
"","","","","","image-button-response","104","400347","0.0-2.0-4.0-1.25","63d83b5d3a1951db0fb600a4","A3","batch1","spm_respsonse","52.90000000002328","img/question_5_2.jpeg","4","mat_50","6","0","0","52.90000000002328","","","","","","","","","","","","","","","","","","","","",""
"","","","","","html-keyboard-response","105","401412","0.0-2.0-4.0-0.26","63d83b5d3a1951db0fb600a4","A3","batch1","spm_show_trial_num","null","<p class=block-text>Trial 51 out of 60</p>","null","","","","","","","","","","","","","","","","","","","","","","","","","",""
"","","","","","image-button-response","106","401610","0.0-2.0-4.0-1.26","63d83b5d3a1951db0fb600a4","A3","batch1","spm_respsonse","195.09999999997672","img/question_5_3.jpeg","6","mat_51","8","0","0","195.09999999997672","","","","","","","","","","","","","","","","","","","","",""
"","","","","","html-keyboard-response","107","402677","0.0-2.0-4.0-0.27","63d83b5d3a1951db0fb600a4","A3","batch1","spm_show_trial_num","null","<p class=block-text>Trial 52 out of 60</p>","null","","","","","","","","","","","","","","","","","","","","","","","","","",""
"","","","","","image-button-response","108","402738","0.0-2.0-4.0-1.27","63d83b5d3a1951db0fb600a4","A3","batch1","spm_respsonse","57.800000000046566","img/question_5_4.jpeg","3","mat_52","2","0","0","57.800000000046566","","","","","","","","","","","","","","","","","","","","",""
"","","","","","html-keyboard-response","109","403804","0.0-2.0-4.0-0.28","63d83b5d3a1951db0fb600a4","A3","batch1","spm_show_trial_num","null","<p class=block-text>Trial 53 out of 60</p>","null","","","","","","","","","","","","","","","","","","","","","","","","","",""
"","","","","","image-button-response","110","403935","0.0-2.0-4.0-1.28","63d83b5d3a1951db0fb600a4","A3","batch1","spm_respsonse","128.40000000002328","img/question_5_5.jpeg","4","mat_53","1","0","0","128.40000000002328","","","","","","","","","","","","","","","","","","","","",""
"","","","","","html-keyboard-response","111","404997","0.0-2.0-4.0-0.29","63d83b5d3a1951db0fb600a4","A3","batch1","spm_show_trial_num","null","<p class=block-text>Trial 54 out of 60</p>","null","","","","","","","","","","","","","","","","","","","","","","","","","",""
"","","","","","image-button-response","112","405799","0.0-2.0-4.0-1.29","63d83b5d3a1951db0fb600a4","A3","batch1","spm_respsonse","800","img/question_5_6.jpeg","2","mat_54","5","0","0","800","","","","","","","","","","","","","","","","","","","","",""
"","","","","","html-keyboard-response","113","406860","0.0-2.0-4.0-0.30","63d83b5d3a1951db0fb600a4","A3","batch1","spm_show_trial_num","null","<p class=block-text>Trial 55 out of 60</p>","null","","","","","","","","","","","","","","","","","","","","","","","","","",""
"","","","","","image-button-response","114","407683","0.0-2.0-4.0-1.30","63d83b5d3a1951db0fb600a4","A3","batch1","spm_respsonse","820.7000000000698","img/question_5_7.jpeg","6","mat_55","1","0","0","820.7000000000698","","","","","","","","","","","","","","","","","","","","",""
"","","","","","html-keyboard-response","115","408748","0.0-2.0-4.0-0.31","63d83b5d3a1951db0fb600a4","A3","batch1","spm_show_trial_num","null","<p class=block-text>Trial 56 out of 60</p>","null","","","","","","","","","","","","","","","","","","","","","","","","","",""
"","","","","","image-button-response","116","408815","0.0-2.0-4.0-1.31","63d83b5d3a1951db0fb600a4","A3","batch1","spm_respsonse","64","img/question_5_8.jpeg","3","mat_56","6","0","0","64","","","","","","","","","","","","","","","","","","","","",""
"","","","","","html-keyboard-response","117","409877","0.0-2.0-4.0-0.32","63d83b5d3a1951db0fb600a4","A3","batch1","spm_show_trial_num","null","<p class=block-text>Trial 57 out of 60</p>","null","","","","","","","","","","","","","","","","","","","","","","","","","",""
"","","","","","image-button-response","118","410014","0.0-2.0-4.0-1.32","63d83b5d3a1951db0fb600a4","A3","batch1","spm_respsonse","135","img/question_5_9.jpeg","1","mat_57","3","0","0","135","","","","","","","","","","","","","","","","","","","","",""
"","","","","","html-keyboard-response","119","411077","0.0-2.0-4.0-0.33","63d83b5d3a1951db0fb600a4","A3","batch1","spm_show_trial_num","null","<p class=block-text>Trial 58 out of 60</p>","null","","","","","","","","","","","","","","","","","","","","","","","","","",""
"","","","","","image-button-response","120","411802","0.0-2.0-4.0-1.33","63d83b5d3a1951db0fb600a4","A3","batch1","spm_respsonse","722.2999999999302","img/question_5_10.jpeg","4","mat_58","2","0","0","722.2999999999302","","","","","","","","","","","","","","","","","","","","",""
"","","","","","html-keyboard-response","121","412868","0.0-2.0-4.0-0.34","63d83b5d3a1951db0fb600a4","A3","batch1","spm_show_trial_num","null","<p class=block-text>Trial 59 out of 60</p>","null","","","","","","","","","","","","","","","","","","","","","","","","","",""
"","","","","","image-button-response","122","412932","0.0-2.0-4.0-1.34","63d83b5d3a1951db0fb600a4","A3","batch1","spm_respsonse","61.300000000046566","img/question_5_11.jpeg","2","mat_59","4","0","0","61.300000000046566","","","","","","","","","","","","","","","","","","","","",""
"","","","","","html-keyboard-response","123","413996","0.0-2.0-4.0-0.35","63d83b5d3a1951db0fb600a4","A3","batch1","spm_show_trial_num","null","<p class=block-text>Trial 60 out of 60</p>","null","","","","","","","","","","","","","","","","","","","","","","","","","",""
"","","","","","image-button-response","124","414432","0.0-2.0-4.0-1.35","63d83b5d3a1951db0fb600a4","A3","batch1","spm_respsonse","433","img/question_5_12.jpeg","4","mat_60","5","1","1","433","","","","","","","","","","","","","","","","","","","","",""
"","","","","","html-button-response","125","416580","0.0-2.0-5.0","63d83b5d3a1951db0fb600a4","A3","batch1","spm_goodbye","1893.5999999999767","<p class= block-text>This concludes the Standard Progressive Matrix game. Thank you for your responses!<br> When you are ready, click the button continue</p>","0","","","","","","","","","","","","","","","","","","","","","","","","","",""
"true","","","","","fullscreen","126","418364","0.0-3.0-0.0","63d83b5d3a1951db0fb600a4","A3","batch1","","","","","","","","","","","","","","","","","","","","","","","","","","","","","",""
"","","","","","instructions","127","434763","0.0-3.0-1.0-0.0-0.0","63d83b5d3a1951db0fb600a4","A3","batch1","tol-instructions","16397.399999999907","","","","","","","","[{""page_index"":0,""viewing_time"":2586.899999999907},{""page_index"":1,""viewing_time"":1321.7000000000698},{""page_index"":2,""viewing_time"":2966.29999999993},{""page_index"":3,""viewing_time"":5606.20000000007},{""page_index"":4,""viewing_time"":1182.9000000000233},{""page_index"":5,""viewing_time"":735},{""page_index"":6,""viewing_time"":1997.7999999999302}]","","","","","","","","","","","","","","","","","","","",""
"","","","","","html-button-response","128","435610","0.0-3.0-1.0-1.0-0.0","63d83b5d3a1951db0fb600a4","A3","batch1","tol_enter_quiz","844.9000000000233","<p class=block-text> Let's answer a few questions <br>","0","","","","","","","","","","","","","","","","","","","","","","","","","",""
"","","","","","html-button-response","129","437665","0.0-3.0-1.0-1.0-1.0","63d83b5d3a1951db0fb600a4","A3","batch1","tol_quiz","2054","<p class = block-text>True or False: You can only move the ball on top of a peg. <br></p>","1","","","false","","","","","","","","","","","","","","","","","","","","","","",""
"","","","","","html-button-response","130","438591","0.0-3.0-1.0-1.0-2.0","63d83b5d3a1951db0fb600a4","A3","batch1","tol_quiz_feedback","923.0999999999767","<p class = block-text>Incorrect. Remember, you can only move the ball on top of a peg.</p>","0","","","","","","","","","","","","","","","","","","","","","","","","","",""
"","","","","","html-button-response","131","439993","0.0-3.0-1.0-1.0-3.0","63d83b5d3a1951db0fb600a4","A3","batch1","tol_quiz","1399.5","<p class = block-text>True or False: You should try to match your board with the target board with fewest moves possible. <br></p>","0","","","true","","","","","","","","","","","","","","","","","","","","","","",""
"","","","","","html-button-response","132","441206","0.0-3.0-1.0-1.0-4.0","63d83b5d3a1951db0fb600a4","A3","batch1","tol_quiz_feedback","1211.5","<p class = block-text>Correct! </p>","0","","","","","","","","","","","","","","","","","","","","","","","","","",""
"","","","","","html-button-response","133","442754","0.0-3.0-1.0-2.0-0.0","63d83b5d3a1951db0fb600a4","A3","batch1","","1545.4000000000233","<p class = block-text>You made too many incorrect choices.</p><p class = block-text>You will now repeat the instructions and quiz</p>","0","","","","","","","","","","","","","","","","","","","","","","","","","",""
"","","","","","instructions","134","447069","0.0-3.0-1.1-0.1-0.1","63d83b5d3a1951db0fb600a4","A3","batch1","tol-instructions","4312.800000000047","","","","","","","","[{""page_index"":0,""viewing_time"":873.0999999999767},{""page_index"":1,""viewing_time"":682},{""page_index"":2,""viewing_time"":162.10000000009313},{""page_index"":3,""viewing_time"":848.5},{""page_index"":4,""viewing_time"":189.19999999995343},{""page_index"":5,""viewing_time"":196.30000000004657},{""page_index"":6,""viewing_time"":1361.1999999999534}]","","","","","","","","","","","","","","","","","","","",""
"","","","","","html-button-response","135","447952","0.0-3.0-1.1-1.1-0.1","63d83b5d3a1951db0fb600a4","A3","batch1","tol_enter_quiz","881.3999999999069","<p class=block-text> Let's answer a few questions <br>","0","","","","","","","","","","","","","","","","","","","","","","","","","",""
"","","","","","html-button-response","136","449196","0.0-3.0-1.1-1.1-1.1","63d83b5d3a1951db0fb600a4","A3","batch1","tol_quiz","1242.5","<p class = block-text>True or False: You can only move the ball on top of a peg. <br></p>","0","","","true","","","","","","","","","","","","","","","","","","","","","","",""
"","","","","","html-button-response","137","449864","0.0-3.0-1.1-1.1-2.1","63d83b5d3a1951db0fb600a4","A3","batch1","tol_quiz_feedback","665.5","<p class = block-text>Correct! You can only move the ball on top of a peg.</p>","0","","","","","","","","","","","","","","","","","","","","","","","","","",""
"","","","","","html-button-response","138","451066","0.0-3.0-1.1-1.1-3.1","63d83b5d3a1951db0fb600a4","A3","batch1","tol_quiz","1200.1999999999534","<p class = block-text>True or False: You should try to match your board with the target board with fewest moves possible. <br></p>","0","","","true","","","","","","","","","","","","","","","","","","","","","","",""
"","","","","","html-button-response","139","451114","0.0-3.0-1.1-1.1-4.1","63d83b5d3a1951db0fb600a4","A3","batch1","tol_quiz_feedback","46.300000000046566","<p class = block-text>Correct! </p>","0","","","","","","","","","","","","","","","","","","","","","","","","","",""
"","","","","","html-button-response","140","451794","0.0-3.0-2.0","63d83b5d3a1951db0fb600a4","A3","batch1","","678","<p class=block-text> Now that you've understood the game, let's practice a few easier examples before we start!<br> <br>","0","","","","","","","","","","","","","","","","","","","","","","","","","",""
"","","","","","single-stim-button","141","460974","0.0-3.0-3.0-0.0","63d83b5d3a1951db0fb600a4","A3","batch1","tol_practice","9176","","","","","","","","","tol_peg_2","9176","9176","0","[[1,2,0],[0,0],[0]]","1","[[1,2,0],[0,0],[3]]","practice","9176","","","","","","","","","","",""
"","","","","","single-stim-button","142","462501","0.0-3.0-3.0-1.0","63d83b5d3a1951db0fb600a4","A3","batch1","tol_practice","1526","","","","","","","","","tol_peg_3","1526","1526","0","[[1,2,0],[0,0],[3]]","1","[[1,2,0],[0,0],[3]]","practice","1526","","","","","","","","","","",""
"","","","","","poldrack-single-stim","143","463507","0.0-3.0-4.0","63d83b5d3a1951db0fb600a4","A3","batch1","tol_feedback","-1","","","","","true","","","","","1000","1000","500","","","","","","-1","none","true","","0","","","","","",""
"","","","","","single-stim-button","144","465889","0.0-3.0-5.0-0.0","63d83b5d3a1951db0fb600a4","A3","batch1","tol_practice","2380","","","","","","","","","tol_peg_1","2380","2380","0","[[1,0,0],[3,0],[0]]","2","[[0,0,0],[3,1],[2]]","practice","2380","","","","","","","","","","",""
"","","","","","single-stim-button","145","467341","0.0-3.0-5.0-1.0","63d83b5d3a1951db0fb600a4","A3","batch1","tol_practice","1450","","","","","","","","","tol_peg_3","1450","1450","0","[[1,0,0],[3,0],[2]]","2","[[0,0,0],[3,1],[2]]","practice","1450","","","","","","","","","","",""
"","","","","","single-stim-button","146","468688","0.0-3.0-5.1-0.1","63d83b5d3a1951db0fb600a4","A3","batch1","tol_practice","1346","","","","","","","","","tol_peg_1","1346","1346","0","[[0,0,0],[3,0],[2]]","3","[[0,0,0],[3,1],[2]]","practice","1346","","","","","","","","","","",""
"","","","","","single-stim-button","147","469631","0.0-3.0-5.1-1.1","63d83b5d3a1951db0fb600a4","A3","batch1","tol_practice","941","","","","","","","","","tol_peg_2","941","941","0","[[0,0,0],[3,1],[2]]","3","[[0,0,0],[3,1],[2]]","practice","941","","","","","","","","","","",""
"","","","","","poldrack-single-stim","148","470636","0.0-3.0-6.0","63d83b5d3a1951db0fb600a4","A3","batch1","tol_feedback","-1","","","","","true","","","","","1000","1000","500","","","","","","-1","none","true","","0","","","","","",""
"","","","","","single-stim-button","149","473738","0.0-3.0-7.0-0.0","63d83b5d3a1951db0fb600a4","A3","batch1","tol_practice","3100","","","","","","","","","tol_peg_2","3100","3100","0","[[1,2,0],[0,0],[0]]","4","[[1,0,0],[2,0],[3]]","practice","3100","","","","","","","","","","",""
"","","","","","single-stim-button","150","475485","0.0-3.0-7.0-1.0","63d83b5d3a1951db0fb600a4","A3","batch1","tol_practice","1746","","","","","","","","","tol_peg_3","1746","1746","0","[[1,2,0],[0,0],[3]]","4","[[1,0,0],[2,0],[3]]","practice","1746","","","","","","","","","","",""
"","","","","","single-stim-button","151","477408","0.0-3.0-7.1-0.1","63d83b5d3a1951db0fb600a4","A3","batch1","tol_practice","1922","","","","","","","","","tol_peg_1","1922","1922","0","[[1,0,0],[0,0],[3]]","5","[[1,0,0],[2,0],[3]]","practice","1922","","","","","","","","","","",""
"","","","","","single-stim-button","152","478745","0.0-3.0-7.1-1.1","63d83b5d3a1951db0fb600a4","A3","batch1","tol_practice","1335","","","","","","","","","tol_peg_2","1335","1335","0","[[1,0,0],[2,0],[3]]","5","[[1,0,0],[2,0],[3]]","practice","1335","","","","","","","","","","",""
"","","","","","poldrack-single-stim","153","479749","0.0-3.0-8.0","63d83b5d3a1951db0fb600a4","A3","batch1","tol_feedback","-1","","","","","true","","","","","1000","1000","500","","","","","","-1","none","true","","0","","","","","",""
"","","","","","html-button-response","154","481268","0.0-3.0-9.0","63d83b5d3a1951db0fb600a4","A3","batch1","tol_instruction","1517.3000000000466","<div class = centerbox><p class = center-block-text>Great job! You are done with practice trials<br>You are about to start official trials.<br> <br> Problem <strong>1</strong> out of 25 problems</p></div>","0","","","","","","","","","","","","","","","","","","","","","","","","","",""
"","","","","","single-stim-button","155","487002","0.0-3.0-10.0-0.0","63d83b5d3a1951db0fb600a4","A3","batch1","tol_tohand","4724","","","","","","","","","tol_peg_2","4724","4724","0","[[1,2,0],[0,0],[0]]","1","[[1,3,0],[2,0],[0]]","0","0","","","","","","3","","","","",""
"","","","","","single-stim-button","156","490247","0.0-3.0-10.0-1.0","63d83b5d3a1951db0fb600a4","A3","batch1","tol_toboard","3243","","","","","","","","","tol_peg_1","3243","3243","0","[[1,2,3],[0,0],[0]]","1","[[1,3,0],[2,0],[0]]","0","0","","","","","","3","","","","",""
"","","","","","single-stim-button","157","492309","0.0-3.0-10.1-0.1","63d83b5d3a1951db0fb600a4","A3","batch1","tol_tohand","2060","","","","","","","","","tol_peg_1","2060","2060","0","[[1,2,0],[0,0],[0]]","2","[[1,3,0],[2,0],[0]]","0","0","","","","","","3","","","","",""
"","","","","","single-stim-button","158","493608","0.0-3.0-10.1-1.1","63d83b5d3a1951db0fb600a4","A3","batch1","tol_toboard","1299","","","","","","","","","tol_peg_3","1299","1299","0","[[1,2,0],[0,0],[3]]","2","[[1,3,0],[2,0],[0]]","0","0","","","","","","3","","","","",""
"","","","","","single-stim-button","159","494542","0.0-3.0-10.2-0.2","63d83b5d3a1951db0fb600a4","A3","batch1","tol_tohand","932","","","","","","","","","tol_peg_1","932","932","0","[[1,0,0],[0,0],[3]]","3","[[1,3,0],[2,0],[0]]","0","0","","","","","","3","","","","",""
"","","","","","single-stim-button","160","495398","0.0-3.0-10.2-1.2","63d83b5d3a1951db0fb600a4","A3","batch1","tol_toboard","855","","","","","","","","","tol_peg_2","855","855","0","[[1,0,0],[2,0],[3]]","3","[[1,3,0],[2,0],[0]]","0","0","","","","","","3","","","","",""
"","","","","","single-stim-button","161","496419","0.0-3.0-10.3-0.3","63d83b5d3a1951db0fb600a4","A3","batch1","tol_tohand","1019","","","","","","","","","tol_peg_3","1019","1019","0","[[1,0,0],[2,0],[0]]","4","[[1,3,0],[2,0],[0]]","0","0","","","","","","3","","","","",""
"","","","","","single-stim-button","162","497560","0.0-3.0-10.3-1.3","63d83b5d3a1951db0fb600a4","A3","batch1","tol_toboard","1140","","","","","","","","","tol_peg_1","1140","1140","0","[[1,3,0],[2,0],[0]]","4","[[1,3,0],[2,0],[0]]","0","0","","","","","","3","","","","",""
"","","","","","poldrack-single-stim","163","498564","0.0-3.0-11.0","63d83b5d3a1951db0fb600a4","A3","batch1","tol_feedback","-1","","","","","true","","","","","1000","1000","500","","","","","","-1","none","true","4724","8735","","","","","",""
"","","","","","html-button-response","164","499328","0.0-3.0-12.0","63d83b5d3a1951db0fb600a4","A3","batch1","tol_trial_num","761.5999999999767","<div class = centerbox><p class = center-block-text>problem <strong>2</strong> out of 25 problems</p></div>","0","","","","","","","","","","","","","","","","","","","","","","","","","",""
"","","","","","single-stim-button","165","503858","0.0-3.0-13.0-0.0","63d83b5d3a1951db0fb600a4","A3","batch1","tol_tohand","4528","","","","","","","","","tol_peg_1","4528","4528","0","[[1,0,0],[3,0],[0]]","1","[[2,1,3],[0,0],[0]]","1","0","","","","","","5","","","","",""
"","","","","","single-stim-button","166","507845","0.0-3.0-13.0-1.0","63d83b5d3a1951db0fb600a4","A3","batch1","tol_toboard","3985","","","","","","","","","tol_peg_3","3985","3985","0","[[1,0,0],[3,0],[2]]","1","[[2,1,3],[0,0],[0]]","1","0","","","","","","5","","","","",""
"","","","","","single-stim-button","167","508846","0.0-3.0-13.1-0.1","63d83b5d3a1951db0fb600a4","A3","batch1","tol_tohand","999","","","","","","","","","tol_peg_1","999","999","0","[[0,0,0],[3,0],[2]]","2","[[2,1,3],[0,0],[0]]","1","0","","","","","","5","","","","",""
"","","","","","single-stim-button","168","509856","0.0-3.0-13.1-1.1","63d83b5d3a1951db0fb600a4","A3","batch1","tol_toboard","1009","","","","","","","","","tol_peg_2","1009","1009","0","[[0,0,0],[3,1],[2]]","2","[[2,1,3],[0,0],[0]]","1","0","","","","","","5","","","","",""
"","","","","","single-stim-button","169","510729","0.0-3.0-13.2-0.2","63d83b5d3a1951db0fb600a4","A3","batch1","tol_tohand","872","","","","","","","","","tol_peg_3","872","872","0","[[0,0,0],[3,1],[0]]","3","[[2,1,3],[0,0],[0]]","1","0","","","","","","5","","","","",""
"","","","","","single-stim-button","170","511684","0.0-3.0-13.2-1.2","63d83b5d3a1951db0fb600a4","A3","batch1","tol_toboard","954","","","","","","","","","tol_peg_1","954","954","0","[[2,0,0],[3,1],[0]]","3","[[2,1,3],[0,0],[0]]","1","0","","","","","","5","","","","",""
"","","","","","single-stim-button","171","512991","0.0-3.0-13.3-0.3","63d83b5d3a1951db0fb600a4","A3","batch1","tol_tohand","1306","","","","","","","","","tol_peg_2","1306","1306","0","[[2,0,0],[3,0],[0]]","4","[[2,1,3],[0,0],[0]]","1","0","","","","","","5","","","","",""
"","","","","","single-stim-button","172","513935","0.0-3.0-13.3-1.3","63d83b5d3a1951db0fb600a4","A3","batch1","tol_toboard","942","","","","","","","","","tol_peg_1","942","942","0","[[2,1,0],[3,0],[0]]","4","[[2,1,3],[0,0],[0]]","1","0","","","","","","5","","","","",""
"","","","","","single-stim-button","173","514926","0.0-3.0-13.4-0.4","63d83b5d3a1951db0fb600a4","A3","batch1","tol_tohand","989","","","","","","","","","tol_peg_2","989","989","0","[[2,1,0],[0,0],[0]]","5","[[2,1,3],[0,0],[0]]","1","0","","","","","","5","","","","",""
"","","","","","single-stim-button","174","515707","0.0-3.0-13.4-1.4","63d83b5d3a1951db0fb600a4","A3","batch1","tol_toboard","781","","","","","","","","","tol_peg_1","781","781","0","[[2,1,3],[0,0],[0]]","5","[[2,1,3],[0,0],[0]]","1","0","","","","","","5","","","","",""
"","","","","","poldrack-single-stim","175","516716","0.0-3.0-14.0","63d83b5d3a1951db0fb600a4","A3","batch1","tol_feedback","-1","","","","","true","","","","","1000","1000","500","","","","","","-1","none","true","4528","8694","","","","","",""
"","","","","","html-button-response","176","517159","0.0-3.0-15.0","63d83b5d3a1951db0fb600a4","A3","batch1","tol_trial_num","440.9000000000233","<div class = centerbox><p class = center-block-text>problem <strong>3</strong> out of 25 problems</p></div>","0","","","","","","","","","","","","","","","","","","","","","","","","","",""
"","","","","","single-stim-button","177","519430","0.0-3.0-16.0-0.0","63d83b5d3a1951db0fb600a4","A3","batch1","tol_tohand","2269","","","","","","","","","tol_peg_1","2269","2269","0","[[2,0,0],[0,0],[1]]","1","[[1,2,0],[3,0],[0]]","2","0","","","","","","4","","","","",""
"","","","","","single-stim-button","178","520279","0.0-3.0-16.0-1.0","63d83b5d3a1951db0fb600a4","A3","batch1","tol_toboard","849","","","","","","","","","tol_peg_2","849","849","0","[[2,0,0],[3,0],[1]]","1","[[1,2,0],[3,0],[0]]","2","0","","","","","","4","","","","",""
"","","","","","single-stim-button","179","522254","0.0-3.0-16.1-0.1","63d83b5d3a1951db0fb600a4","A3","batch1","tol_tohand","1974","","","","","","","","","tol_peg_1","1974","1974","0","[[0,0,0],[3,0],[1]]","2","[[1,2,0],[3,0],[0]]","2","0","","","","","","4","","","","",""
"","","","","","single-stim-button","180","524243","0.0-3.0-16.1-1.1","63d83b5d3a1951db0fb600a4","A3","batch1","tol_toboard","1988","","","","","","","","","tol_peg_2","1988","1988","0","[[0,0,0],[3,2],[1]]","2","[[1,2,0],[3,0],[0]]","2","0","","","","","","4","","","","",""
"","","","","","single-stim-button","181","524951","0.0-3.0-16.2-0.2","63d83b5d3a1951db0fb600a4","A3","batch1","tol_tohand","706","","","","","","","","","tol_peg_3","706","706","0","[[0,0,0],[3,2],[0]]","3","[[1,2,0],[3,0],[0]]","2","0","","","","","","4","","","","",""
"","","","","","single-stim-button","182","526126","0.0-3.0-16.2-1.2","63d83b5d3a1951db0fb600a4","A3","batch1","tol_toboard","1174","","","","","","","","","tol_peg_1","1174","1174","0","[[1,0,0],[3,2],[0]]","3","[[1,2,0],[3,0],[0]]","2","0","","","","","","4","","","","",""
"","","","","","single-stim-button","183","526952","0.0-3.0-16.3-0.3","63d83b5d3a1951db0fb600a4","A3","batch1","tol_tohand","824","","","","","","","","","tol_peg_2","824","824","0","[[1,0,0],[3,0],[0]]","4","[[1,2,0],[3,0],[0]]","2","0","","","","","","4","","","","",""
"","","","","","single-stim-button","184","528157","0.0-3.0-16.3-1.3","63d83b5d3a1951db0fb600a4","A3","batch1","tol_toboard","1204","","","","","","","","","tol_peg_1","1204","1204","0","[[1,2,0],[3,0],[0]]","4","[[1,2,0],[3,0],[0]]","2","0","","","","","","4","","","","",""
"","","","","","poldrack-single-stim","185","529160","0.0-3.0-17.0","63d83b5d3a1951db0fb600a4","A3","batch1","tol_feedback","-1","","","","","true","","","","","1000","1000","500","","","","","","-1","none","true","2269","5773","","","","","",""
"","","","","","html-button-response","186","529557","0.0-3.0-18.0","63d83b5d3a1951db0fb600a4","A3","batch1","tol_trial_num","395.10000000009313","<div class = centerbox><p class = center-block-text>problem <strong>4</strong> out of 25 problems</p></div>","0","","","","","","","","","","","","","","","","","","","","","","","","","",""
"","","","","","single-stim-button","187","532113","0.0-3.0-19.0-0.0","63d83b5d3a1951db0fb600a4","A3","batch1","tol_tohand","2555","","","","","","","","","tol_peg_2","2555","2555","0","[[3,0,0],[2,0],[0]]","1","[[3,0,0],[1,0],[2]]","3","0","","","","","","3","","","","",""
"","","","","","single-stim-button","188","536769","0.0-3.0-19.0-1.0","63d83b5d3a1951db0fb600a4","A3","batch1","tol_toboard","4654","","","","","","","","","tol_peg_3","4654","4654","0","[[3,0,0],[2,0],[1]]","1","[[3,0,0],[1,0],[2]]","3","0","","","","","","3","","","","",""
"","","","","","single-stim-button","189","539895","0.0-3.0-19.1-0.1","63d83b5d3a1951db0fb600a4","A3","batch1","tol_tohand","3124","","","","","","","","","tol_peg_2","3124","3124","0","[[3,0,0],[0,0],[1]]","2","[[3,0,0],[1,0],[2]]","3","0","","","","","","3","","","","",""
"","","","","","single-stim-button","190","540800","0.0-3.0-19.1-1.1","63d83b5d3a1951db0fb600a4","A3","batch1","tol_toboard","904","","","","","","","","","tol_peg_1","904","904","0","[[3,2,0],[0,0],[1]]","2","[[3,0,0],[1,0],[2]]","3","0","","","","","","3","","","","",""
"","","","","","single-stim-button","191","541755","0.0-3.0-19.2-0.2","63d83b5d3a1951db0fb600a4","A3","batch1","tol_tohand","954","","","","","","","","","tol_peg_3","954","954","0","[[3,2,0],[0,0],[0]]","3","[[3,0,0],[1,0],[2]]","3","0","","","","","","3","","","","",""
"","","","","","single-stim-button","192","542616","0.0-3.0-19.2-1.2","63d83b5d3a1951db0fb600a4","A3","batch1","tol_toboard","860","","","","","","","","","tol_peg_2","860","860","0","[[3,2,0],[1,0],[0]]","3","[[3,0,0],[1,0],[2]]","3","0","","","","","","3","","","","",""
"","","","","","single-stim-button","193","543319","0.0-3.0-19.3-0.3","63d83b5d3a1951db0fb600a4","A3","batch1","tol_tohand","701","","","","","","","","","tol_peg_1","701","701","0","[[3,0,0],[1,0],[0]]","4","[[3,0,0],[1,0],[2]]","3","0","","","","","","3","","","","",""
"","","","","","single-stim-button","194","544944","0.0-3.0-19.3-1.3","63d83b5d3a1951db0fb600a4","A3","batch1","tol_toboard","1623","","","","","","","","","tol_peg_3","1623","1623","0","[[3,0,0],[1,0],[2]]","4","[[3,0,0],[1,0],[2]]","3","0","","","","","","3","","","","",""
"","","","","","poldrack-single-stim","195","545948","0.0-3.0-20.0","63d83b5d3a1951db0fb600a4","A3","batch1","tol_feedback","-1","","","","","true","","","","","1000","1000","500","","","","","","-1","none","true","2555","7334","","","","","",""
"","","","","","html-button-response","196","546278","0.0-3.0-21.0","63d83b5d3a1951db0fb600a4","A3","batch1","tol_trial_num","328.4000000001397","<div class = centerbox><p class = center-block-text>problem <strong>5</strong> out of 25 problems</p></div>","0","","","","","","","","","","","","","","","","","","","","","","","","","",""
"","","","","","single-stim-button","197","548098","0.0-3.0-22.0-0.0","63d83b5d3a1951db0fb600a4","A3","batch1","tol_tohand","1818","","","","","","","","","tol_peg_3","1818","1818","0","[[1,0,0],[2,0],[0]]","1","[[0,0,0],[1,2],[3]]","4","0","","","","","","7","","","","",""
"","","","","","single-stim-button","198","550811","0.0-3.0-22.0-1.0","63d83b5d3a1951db0fb600a4","A3","batch1","tol_toboard","2712","","","","","","","","","tol_peg_3","2712","2712","0","[[1,0,0],[2,0],[3]]","1","[[0,0,0],[1,2],[3]]","4","0","","","","","","7","","","","",""
"","","","","","single-stim-button","199","552764","0.0-3.0-22.1-0.1","63d83b5d3a1951db0fb600a4","A3","batch1","tol_tohand","1952","","","","","","","","","tol_peg_1","1952","1952","0","[[0,0,0],[2,0],[3]]","2","[[0,0,0],[1,2],[3]]","4","0","","","","","","7","","","","",""
"","","","","","single-stim-button","200","558291","0.0-3.0-22.1-1.1","63d83b5d3a1951db0fb600a4","A3","batch1","tol_toboard","5526","","","","","","","","","tol_peg_1","5526","5526","0","[[1,0,0],[2,0],[3]]","2","[[0,0,0],[1,2],[3]]","4","0","","","","","","7","","","","",""
"","","","","","single-stim-button","201","561166","0.0-3.0-22.2-0.2","63d83b5d3a1951db0fb600a4","A3","batch1","tol_tohand","2873","","","","","","","","","tol_peg_3","2873","2873","0","[[1,0,0],[2,0],[0]]","3","[[0,0,0],[1,2],[3]]","4","0","","","","","","7","","","","",""
"","","","","","single-stim-button","202","562290","0.0-3.0-22.2-1.2","63d83b5d3a1951db0fb600a4","A3","batch1","tol_toboard","1123","","","","","","","","","tol_peg_1","1123","1123","0","[[1,3,0],[2,0],[0]]","3","[[0,0,0],[1,2],[3]]","4","0","","","","","","7","","","","",""
"","","","","","single-stim-button","203","562959","0.0-3.0-22.3-0.3","63d83b5d3a1951db0fb600a4","A3","batch1","tol_tohand","667","","","","","","","","","tol_peg_2","667","667","0","[[1,3,0],[0,0],[0]]","4","[[0,0,0],[1,2],[3]]","4","0","","","","","","7","","","","",""
"","","","","","single-stim-button","204","563939","0.0-3.0-22.3-1.3","63d83b5d3a1951db0fb600a4","A3","batch1","tol_toboard","979","","","","","","","","","tol_peg_3","979","979","0","[[1,3,0],[0,0],[2]]","4","[[0,0,0],[1,2],[3]]","4","0","","","","","","7","","","","",""
"","","","","","single-stim-button","205","567235","0.0-3.0-22.4-0.4","63d83b5d3a1951db0fb600a4","A3","batch1","tol_tohand","3295","","","","","","","","","tol_peg_1","3295","3295","0","[[1,0,0],[0,0],[2]]","5","[[0,0,0],[1,2],[3]]","4","0","","","","","","7","","","","",""
"","","","","","single-stim-button","206","568663","0.0-3.0-22.4-1.4","63d83b5d3a1951db0fb600a4","A3","batch1","tol_toboard","1427","","","","","","","","","tol_peg_2","1427","1427","0","[[1,0,0],[3,0],[2]]","5","[[0,0,0],[1,2],[3]]","4","0","","","","","","7","","","","",""
"","","","","","single-stim-button","207","570104","0.0-3.0-22.5-0.5","63d83b5d3a1951db0fb600a4","A3","batch1","tol_tohand","1440","","","","","","","","","tol_peg_1","1440","1440","0","[[0,0,0],[3,0],[2]]","6","[[0,0,0],[1,2],[3]]","4","0","","","","","","7","","","","",""
"","","","","","single-stim-button","208","571316","0.0-3.0-22.5-1.5","63d83b5d3a1951db0fb600a4","A3","batch1","tol_toboard","1212","","","","","","","","","tol_peg_2","1212","1212","0","[[0,0,0],[3,1],[2]]","6","[[0,0,0],[1,2],[3]]","4","0","","","","","","7","","","","",""
"","","","","","single-stim-button","209","572246","0.0-3.0-22.6-0.6","63d83b5d3a1951db0fb600a4","A3","batch1","tol_tohand","928","","","","","","","","","tol_peg_3","928","928","0","[[0,0,0],[3,1],[0]]","7","[[0,0,0],[1,2],[3]]","4","0","","","","","","7","","","","",""
"","","","","","single-stim-button","210","573217","0.0-3.0-22.6-1.6","63d83b5d3a1951db0fb600a4","A3","batch1","tol_toboard","970","","","","","","","","","tol_peg_1","970","970","0","[[2,0,0],[3,1],[0]]","7","[[0,0,0],[1,2],[3]]","4","0","","","","","","7","","","","",""
"","","","","","single-stim-button","211","573944","0.0-3.0-22.7-0.7","63d83b5d3a1951db0fb600a4","A3","batch1","tol_tohand","726","","","","","","","","","tol_peg_2","726","726","0","[[2,0,0],[3,0],[0]]","8","[[0,0,0],[1,2],[3]]","4","0","","","","","","7","","","","",""
"","","","","","single-stim-button","212","574738","0.0-3.0-22.7-1.7","63d83b5d3a1951db0fb600a4","A3","batch1","tol_toboard","792","","","","","","","","","tol_peg_3","792","792","0","[[2,0,0],[3,0],[1]]","8","[[0,0,0],[1,2],[3]]","4","0","","","","","","7","","","","",""
"","","","","","single-stim-button","213","575829","0.0-3.0-22.8-0.8","63d83b5d3a1951db0fb600a4","A3","batch1","tol_tohand","1090","","","","","","","","","tol_peg_2","1090","1090","0","[[2,0,0],[0,0],[1]]","9","[[0,0,0],[1,2],[3]]","4","0","","","","","","7","","","","",""
"","","","","","single-stim-button","214","577972","0.0-3.0-22.8-1.8","63d83b5d3a1951db0fb600a4","A3","batch1","tol_toboard","2143","","","","","","","","","tol_peg_1","2143","2143","0","[[2,3,0],[0,0],[1]]","9","[[0,0,0],[1,2],[3]]","4","0","","","","","","7","","","","",""
"","","","","","single-stim-button","215","578945","0.0-3.0-22.9-0.9","63d83b5d3a1951db0fb600a4","A3","batch1","tol_tohand","964","","","","","","","","","tol_peg_3","964","964","0","[[2,3,0],[0,0],[0]]","10","[[0,0,0],[1,2],[3]]","4","0","","","","","","7","","","","",""
"","","","","","single-stim-button","216","579770","0.0-3.0-22.9-1.9","63d83b5d3a1951db0fb600a4","A3","batch1","tol_toboard","823","","","","","","","","","tol_peg_2","823","823","0","[[2,3,0],[1,0],[0]]","10","[[0,0,0],[1,2],[3]]","4","0","","","","","","7","","","","",""
"","","","","","single-stim-button","217","580929","0.0-3.0-22.10-0.10","63d83b5d3a1951db0fb600a4","A3","batch1","tol_tohand","1159","","","","","","","","","tol_peg_1","1159","1159","0","[[2,0,0],[1,0],[0]]","11","[[0,0,0],[1,2],[3]]","4","0","","","","","","7","","","","",""
"","","","","","single-stim-button","218","582040","0.0-3.0-22.10-1.10","63d83b5d3a1951db0fb600a4","A3","batch1","tol_toboard","1109","","","","","","","","","tol_peg_3","1109","1109","0","[[2,0,0],[1,0],[3]]","11","[[0,0,0],[1,2],[3]]","4","0","","","","","","7","","","","",""
"","","","","","single-stim-button","219","583253","0.0-3.0-22.11-0.11","63d83b5d3a1951db0fb600a4","A3","batch1","tol_tohand","1213","","","","","","","","","tol_peg_1","1213","1213","0","[[0,0,0],[1,0],[3]]","12","[[0,0,0],[1,2],[3]]","4","0","","","","","","7","","","","",""
"","","","","","single-stim-button","220","584620","0.0-3.0-22.11-1.11","63d83b5d3a1951db0fb600a4","A3","batch1","tol_toboard","1366","","","","","","","","","tol_peg_2","1366","1366","0","[[0,0,0],[1,2],[3]]","12","[[0,0,0],[1,2],[3]]","4","0","","","","","","7","","","","",""
"","","","","","poldrack-single-stim","221","585623","0.0-3.0-23.0","63d83b5d3a1951db0fb600a4","A3","batch1","tol_feedback","-1","","","","","true","","","","","1000","1000","500","","","","","","-1","none","true","1818","18125","","","","","",""
"","","","","","html-button-response","222","586137","0.0-3.0-24.0","63d83b5d3a1951db0fb600a4","A3","batch1","tol_trial_num","512.9000000001397","<div class = centerbox><p class = center-block-text>problem <strong>6</strong> out of 25 problems</p></div>","0","","","","","","","","","","","","","","","","","","","","","","","","","",""
"","","","","","single-stim-button","223","593484","0.0-3.0-25.0-0.0","63d83b5d3a1951db0fb600a4","A3","batch1","tol_tohand","7345","","","","","","","","","tol_peg_3","7345","7345","0","[[0,0,0],[1,2],[0]]","1","[[1,0,0],[2,3],[0]]","5","0","","","","","","6","","","","",""
"","","","","","single-stim-button","224","594418","0.0-3.0-25.0-1.0","63d83b5d3a1951db0fb600a4","A3","batch1","tol_toboard","932","","","","","","","","","tol_peg_1","932","932","0","[[3,0,0],[1,2],[0]]","1","[[1,0,0],[2,3],[0]]","5","0","","","","","","6","","","","",""
"","","","","","single-stim-button","225","595259","0.0-3.0-25.1-0.1","63d83b5d3a1951db0fb600a4","A3","batch1","tol_tohand","839","","","","","","","","","tol_peg_2","839","839","0","[[3,0,0],[1,0],[0]]","2","[[1,0,0],[2,3],[0]]","5","0","","","","","","6","","","","",""
"","","","","","single-stim-button","226","596253","0.0-3.0-25.1-1.1","63d83b5d3a1951db0fb600a4","A3","batch1","tol_toboard","993","","","","","","","","","tol_peg_3","993","993","0","[[3,0,0],[1,0],[2]]","2","[[1,0,0],[2,3],[0]]","5","0","","","","","","6","","","","",""
"","","","","","single-stim-button","227","597402","0.0-3.0-25.2-0.2","63d83b5d3a1951db0fb600a4","A3","batch1","tol_tohand","1148","","","","","","","","","tol_peg_2","1148","1148","0","[[3,0,0],[0,0],[2]]","3","[[1,0,0],[2,3],[0]]","5","0","","","","","","6","","","","",""
"","","","","","single-stim-button","228","598330","0.0-3.0-25.2-1.2","63d83b5d3a1951db0fb600a4","A3","batch1","tol_toboard","926","","","","","","","","","tol_peg_1","926","926","0","[[3,1,0],[0,0],[2]]","3","[[1,0,0],[2,3],[0]]","5","0","","","","","","6","","","","",""
"","","","","","single-stim-button","229","599869","0.0-3.0-25.3-0.3","63d83b5d3a1951db0fb600a4","A3","batch1","tol_tohand","1538","","","","","","","","","tol_peg_3","1538","1538","0","[[3,1,0],[0,0],[0]]","4","[[1,0,0],[2,3],[0]]","5","0","","","","","","6","","","","",""
"","","","","","single-stim-button","230","600670","0.0-3.0-25.3-1.3","63d83b5d3a1951db0fb600a4","A3","batch1","tol_toboard","799","","","","","","","","","tol_peg_2","799","799","0","[[3,1,0],[2,0],[0]]","4","[[1,0,0],[2,3],[0]]","5","0","","","","","","6","","","","",""
"","","","","","single-stim-button","231","601294","0.0-3.0-25.4-0.4","63d83b5d3a1951db0fb600a4","A3","batch1","tol_tohand","622","","","","","","","","","tol_peg_1","622","622","0","[[3,0,0],[2,0],[0]]","5","[[1,0,0],[2,3],[0]]","5","0","","","","","","6","","","","",""
"","","","","","single-stim-button","232","602948","0.0-3.0-25.4-1.4","63d83b5d3a1951db0fb600a4","A3","batch1","tol_toboard","1653","","","","","","","","","tol_peg_3","1653","1653","0","[[3,0,0],[2,0],[1]]","5","[[1,0,0],[2,3],[0]]","5","0","","","","","","6","","","","",""
"","","","","","single-stim-button","233","603804","0.0-3.0-25.5-0.5","63d83b5d3a1951db0fb600a4","A3","batch1","tol_tohand","855","","","","","","","","","tol_peg_1","855","855","0","[[0,0,0],[2,0],[1]]","6","[[1,0,0],[2,3],[0]]","5","0","","","","","","6","","","","",""
"","","","","","single-stim-button","234","605346","0.0-3.0-25.5-1.5","63d83b5d3a1951db0fb600a4","A3","batch1","tol_toboard","1541","","","","","","","","","tol_peg_2","1541","1541","0","[[0,0,0],[2,3],[1]]","6","[[1,0,0],[2,3],[0]]","5","0","","","","","","6","","","","",""
"","","","","","single-stim-button","235","605974","0.0-3.0-25.6-0.6","63d83b5d3a1951db0fb600a4","A3","batch1","tol_tohand","627","","","","","","","","","tol_peg_2","627","627","0","[[0,0,0],[2,0],[1]]","7","[[1,0,0],[2,3],[0]]","5","0","","","","","","6","","","","",""
"","","","","","single-stim-button","236","606840","0.0-3.0-25.6-1.6","63d83b5d3a1951db0fb600a4","A3","batch1","tol_toboard","865","","","","","","","","","tol_peg_2","865","865","0","[[0,0,0],[2,3],[1]]","7","[[1,0,0],[2,3],[0]]","5","0","","","","","","6","","","","",""
"","","","","","single-stim-button","237","607692","0.0-3.0-25.7-0.7","63d83b5d3a1951db0fb600a4","A3","batch1","tol_tohand","850","","","","","","","","","tol_peg_2","850","850","0","[[0,0,0],[2,0],[1]]","8","[[1,0,0],[2,3],[0]]","5","0","","","","","","6","","","","",""
"","","","","","single-stim-button","238","608367","0.0-3.0-25.7-1.7","63d83b5d3a1951db0fb600a4","A3","batch1","tol_toboard","675","","","","","","","","","tol_peg_1","675","675","0","[[3,0,0],[2,0],[1]]","8","[[1,0,0],[2,3],[0]]","5","0","","","","","","6","","","","",""
"","","","","","single-stim-button","239","609154","0.0-3.0-25.8-0.8","63d83b5d3a1951db0fb600a4","A3","batch1","tol_tohand","786","","","","","","","","","tol_peg_2","786","786","0","[[3,0,0],[0,0],[1]]","9","[[1,0,0],[2,3],[0]]","5","0","","","","","","6","","","","",""
"","","","","","single-stim-button","240","610592","0.0-3.0-25.8-1.8","63d83b5d3a1951db0fb600a4","A3","batch1","tol_toboard","1436","","","","","","","","","tol_peg_1","1436","1436","0","[[3,2,0],[0,0],[1]]","9","[[1,0,0],[2,3],[0]]","5","0","","","","","","6","","","","",""
"","","","","","single-stim-button","241","611535","0.0-3.0-25.9-0.9","63d83b5d3a1951db0fb600a4","A3","batch1","tol_tohand","941","","","","","","","","","tol_peg_3","941","941","0","[[3,2,0],[0,0],[0]]","10","[[1,0,0],[2,3],[0]]","5","0","","","","","","6","","","","",""
"","","","","","single-stim-button","242","612628","0.0-3.0-25.9-1.9","63d83b5d3a1951db0fb600a4","A3","batch1","tol_toboard","1092","","","","","","","","","tol_peg_2","1092","1092","0","[[3,2,0],[1,0],[0]]","10","[[1,0,0],[2,3],[0]]","5","0","","","","","","6","","","","",""
"","","","","","single-stim-button","243","613315","0.0-3.0-25.10-0.10","63d83b5d3a1951db0fb600a4","A3","batch1","tol_tohand","685","","","","","","","","","tol_peg_1","685","685","0","[[3,0,0],[1,0],[0]]","11","[[1,0,0],[2,3],[0]]","5","0","","","","","","6","","","","",""
"","","","","","single-stim-button","244","615794","0.0-3.0-25.10-1.10","63d83b5d3a1951db0fb600a4","A3","batch1","tol_toboard","2477","","","","","","","","","tol_peg_3","2477","2477","0","[[3,0,0],[1,0],[2]]","11","[[1,0,0],[2,3],[0]]","5","0","","","","","","6","","","","",""
"","","","","","single-stim-button","245","616615","0.0-3.0-25.11-0.11","63d83b5d3a1951db0fb600a4","A3","batch1","tol_tohand","819","","","","","","","","","tol_peg_2","819","819","0","[[3,0,0],[0,0],[2]]","12","[[1,0,0],[2,3],[0]]","5","0","","","","","","6","","","","",""
"","","","","","single-stim-button","246","617901","0.0-3.0-25.11-1.11","63d83b5d3a1951db0fb600a4","A3","batch1","tol_toboard","1286","","","","","","","","","tol_peg_2","1286","1286","0","[[3,0,0],[1,0],[2]]","12","[[1,0,0],[2,3],[0]]","5","0","","","","","","6","","","","",""
"","","","","","single-stim-button","247","619227","0.0-3.0-25.12-0.12","63d83b5d3a1951db0fb600a4","A3","batch1","tol_tohand","1324","","","","","","","","","tol_peg_1","1324","1324","0","[[0,0,0],[1,0],[2]]","13","[[1,0,0],[2,3],[0]]","5","0","","","","","","6","","","","",""
"","","","","","single-stim-button","248","620456","0.0-3.0-25.12-1.12","63d83b5d3a1951db0fb600a4","A3","batch1","tol_toboard","1228","","","","","","","","","tol_peg_2","1228","1228","0","[[0,0,0],[1,3],[2]]","13","[[1,0,0],[2,3],[0]]","5","0","","","","","","6","","","","",""
"","","","","","single-stim-button","249","622196","0.0-3.0-25.13-0.13","63d83b5d3a1951db0fb600a4","A3","batch1","tol_tohand","1739","","","","","","","","","tol_peg_3","1739","1739","0","[[0,0,0],[1,3],[0]]","14","[[1,0,0],[2,3],[0]]","5","0","","","","","","6","","","","",""
"","","","","","single-stim-button","250","623652","0.0-3.0-25.13-1.13","63d83b5d3a1951db0fb600a4","A3","batch1","tol_toboard","1454","","","","","","","","","tol_peg_1","1454","1454","0","[[2,0,0],[1,3],[0]]","14","[[1,0,0],[2,3],[0]]","5","0","","","","","","6","","","","",""
"","","","","","single-stim-button","251","624853","0.0-3.0-25.14-0.14","63d83b5d3a1951db0fb600a4","A3","batch1","tol_tohand","1200","","","","","","","","","tol_peg_2","1200","1200","0","[[2,0,0],[1,0],[0]]","15","[[1,0,0],[2,3],[0]]","5","0","","","","","","6","","","","",""
"","","","","","single-stim-button","252","625626","0.0-3.0-25.14-1.14","63d83b5d3a1951db0fb600a4","A3","batch1","tol_toboard","773","","","","","","","","","tol_peg_3","773","773","0","[[2,0,0],[1,0],[3]]","15","[[1,0,0],[2,3],[0]]","5","0","","","","","","6","","","","",""
"","","","","","single-stim-button","253","628466","0.0-3.0-25.15-0.15","63d83b5d3a1951db0fb600a4","A3","batch1","tol_tohand","2839","","","","","","","","","tol_peg_1","2839","2839","0","[[0,0,0],[1,0],[3]]","16","[[1,0,0],[2,3],[0]]","5","0","","","","","","6","","","","",""
"","","","","","single-stim-button","254","631196","0.0-3.0-25.15-1.15","63d83b5d3a1951db0fb600a4","A3","batch1","tol_toboard","2729","","","","","","","","","tol_peg_1","2729","2729","0","[[2,0,0],[1,0],[3]]","16","[[1,0,0],[2,3],[0]]","5","0","","","","","","6","","","","",""
"","","","","","single-stim-button","255","632133","0.0-3.0-25.16-0.16","63d83b5d3a1951db0fb600a4","A3","batch1","tol_tohand","936","","","","","","","","","tol_peg_2","936","936","0","[[2,0,0],[0,0],[3]]","17","[[1,0,0],[2,3],[0]]","5","0","","","","","","6","","","","",""
"","","","","","single-stim-button","256","636858","0.0-3.0-25.16-1.16","63d83b5d3a1951db0fb600a4","A3","batch1","tol_toboard","4723","","","","","","","","","tol_peg_2","4723","4723","0","[[2,0,0],[1,0],[3]]","17","[[1,0,0],[2,3],[0]]","5","0","","","","","","6","","","","",""
"","","","","","single-stim-button","257","637537","0.0-3.0-25.17-0.17","63d83b5d3a1951db0fb600a4","A3","batch1","tol_tohand","678","","","","","","","","","tol_peg_3","678","678","0","[[2,0,0],[1,0],[0]]","18","[[1,0,0],[2,3],[0]]","5","0","","","","","","6","","","","",""
"","","","","","single-stim-button","258","638497","0.0-3.0-25.17-1.17","63d83b5d3a1951db0fb600a4","A3","batch1","tol_toboard","958","","","","","","","","","tol_peg_1","958","958","0","[[2,3,0],[1,0],[0]]","18","[[1,0,0],[2,3],[0]]","5","0","","","","","","6","","","","",""
"","","","","","single-stim-button","259","639467","0.0-3.0-25.18-0.18","63d83b5d3a1951db0fb600a4","A3","batch1","tol_tohand","970","","","","","","","","","tol_peg_2","970","970","0","[[2,3,0],[0,0],[0]]","19","[[1,0,0],[2,3],[0]]","5","0","","","","","","6","","","","",""
"","","","","","single-stim-button","260","640239","0.0-3.0-25.18-1.18","63d83b5d3a1951db0fb600a4","A3","batch1","tol_toboard","770","","","","","","","","","tol_peg_3","770","770","0","[[2,3,0],[0,0],[1]]","19","[[1,0,0],[2,3],[0]]","5","0","","","","","","6","","","","",""
"","","","","","single-stim-button","261","646190","0.0-3.0-25.19-0.19","63d83b5d3a1951db0fb600a4","A3","batch1","tol_tohand","5949","","","","","","","","","tol_peg_1","5949","5949","0","[[2,0,0],[0,0],[1]]","20","[[1,0,0],[2,3],[0]]","5","0","","","","","","6","","","","",""
"","","","","","single-stim-button","262","651819","0.0-3.0-25.19-1.19","63d83b5d3a1951db0fb600a4","A3","batch1","tol_toboard","5628","","","","","","","","","tol_peg_2","5628","5628","0","[[2,0,0],[3,0],[1]]","20","[[1,0,0],[2,3],[0]]","5","0","","","","","","6","","","","",""
"","","","","","single-stim-button","263","652571","0.0-3.0-25.20-0.20","63d83b5d3a1951db0fb600a4","A3","batch1","tol_tohand","750","","","","","","","","","tol_peg_3","750","750","0","[[2,0,0],[3,0],[0]]","21","[[1,0,0],[2,3],[0]]","5","0","","","","","","6","","","","",""
"","","","","","single-stim-button","264","653990","0.0-3.0-25.20-1.20","63d83b5d3a1951db0fb600a4","A3","batch1","tol_toboard","1418","","","","","","","","","tol_peg_1","1418","1418","0","[[2,1,0],[3,0],[0]]","21","[[1,0,0],[2,3],[0]]","5","0","","","","","","6","","","","",""
"","","","","","single-stim-button","265","654657","0.0-3.0-25.21-0.21","63d83b5d3a1951db0fb600a4","A3","batch1","tol_tohand","665","","","","","","","","","tol_peg_1","665","665","0","[[2,0,0],[3,0],[0]]","22","[[1,0,0],[2,3],[0]]","5","0","","","","","","6","","","","",""
"","","","","","single-stim-button","266","655606","0.0-3.0-25.21-1.21","63d83b5d3a1951db0fb600a4","A3","batch1","tol_toboard","948","","","","","","","","","tol_peg_1","948","948","0","[[2,1,0],[3,0],[0]]","22","[[1,0,0],[2,3],[0]]","5","0","","","","","","6","","","","",""
"","","","","","single-stim-button","267","656534","0.0-3.0-25.22-0.22","63d83b5d3a1951db0fb600a4","A3","batch1","tol_tohand","926","","","","","","","","","tol_peg_1","926","926","0","[[2,0,0],[3,0],[0]]","23","[[1,0,0],[2,3],[0]]","5","0","","","","","","6","","","","",""
"","","","","","single-stim-button","268","657186","0.0-3.0-25.22-1.22","63d83b5d3a1951db0fb600a4","A3","batch1","tol_toboard","651","","","","","","","","","tol_peg_2","651","651","0","[[2,0,0],[3,1],[0]]","23","[[1,0,0],[2,3],[0]]","5","0","","","","","","6","","","","",""
"","","","","","single-stim-button","269","657914","0.0-3.0-25.23-0.23","63d83b5d3a1951db0fb600a4","A3","batch1","tol_tohand","726","","","","","","","","","tol_peg_1","726","726","0","[[0,0,0],[3,1],[0]]","24","[[1,0,0],[2,3],[0]]","5","0","","","","","","6","","","","",""
"","","","","","single-stim-button","270","658866","0.0-3.0-25.23-1.23","63d83b5d3a1951db0fb600a4","A3","batch1","tol_toboard","951","","","","","","","","","tol_peg_3","951","951","0","[[0,0,0],[3,1],[2]]","24","[[1,0,0],[2,3],[0]]","5","0","","","","","","6","","","","",""
"","","","","","single-stim-button","271","659661","0.0-3.0-25.24-0.24","63d83b5d3a1951db0fb600a4","A3","batch1","tol_tohand","794","","","","","","","","","tol_peg_2","794","794","0","[[0,0,0],[3,0],[2]]","25","[[1,0,0],[2,3],[0]]","5","0","","","","","","6","","","","",""
"","","","","","single-stim-button","272","660645","0.0-3.0-25.24-1.24","63d83b5d3a1951db0fb600a4","A3","batch1","tol_toboard","983","","","","","","","","","tol_peg_1","983","983","0","[[1,0,0],[3,0],[2]]","25","[[1,0,0],[2,3],[0]]","5","0","","","","","","6","","","","",""
"","","","","","single-stim-button","273","662807","0.0-3.0-25.25-0.25","63d83b5d3a1951db0fb600a4","A3","batch1","tol_tohand","2160","","","","","","","","","tol_peg_2","2160","2160","0","[[1,0,0],[0,0],[2]]","26","[[1,0,0],[2,3],[0]]","5","0","","","","","","6","","","","",""
"","","","","","single-stim-button","274","663596","0.0-3.0-25.25-1.25","63d83b5d3a1951db0fb600a4","A3","batch1","tol_toboard","788","","","","","","","","","tol_peg_1","788","788","0","[[1,3,0],[0,0],[2]]","26","[[1,0,0],[2,3],[0]]","5","0","","","","","","6","","","","",""
"","","","","","single-stim-button","275","664366","0.0-3.0-25.26-0.26","63d83b5d3a1951db0fb600a4","A3","batch1","tol_tohand","768","","","","","","","","","tol_peg_3","768","768","0","[[1,3,0],[0,0],[0]]","27","[[1,0,0],[2,3],[0]]","5","0","","","","","","6","","","","",""
"","","","","","single-stim-button","276","665039","0.0-3.0-25.26-1.26","63d83b5d3a1951db0fb600a4","A3","batch1","tol_toboard","672","","","","","","","","","tol_peg_2","672","672","0","[[1,3,0],[2,0],[0]]","27","[[1,0,0],[2,3],[0]]","5","0","","","","","","6","","","","",""
"","","","","","single-stim-button","277","665897","0.0-3.0-25.27-0.27","63d83b5d3a1951db0fb600a4","A3","batch1","tol_tohand","857","","","","","","","","","tol_peg_1","857","857","0","[[1,0,0],[2,0],[0]]","28","[[1,0,0],[2,3],[0]]","5","0","","","","","","6","","","","",""
"","","","","","single-stim-button","278","667044","0.0-3.0-25.27-1.27","63d83b5d3a1951db0fb600a4","A3","batch1","tol_toboard","1145","","","","","","","","","tol_peg_2","1145","1145","0","[[1,0,0],[2,3],[0]]","28","[[1,0,0],[2,3],[0]]","5","0","","","","","","6","","","","",""
"","","","","","poldrack-single-stim","279","668051","0.0-3.0-26.0","63d83b5d3a1951db0fb600a4","A3","batch1","tol_feedback","-1","","","","","true","","","","","1000","1000","500","","","","","","-1","none","true","7345","40336","","","","","",""
"","","","","","html-button-response","280","669289","0.0-3.0-27.0","63d83b5d3a1951db0fb600a4","A3","batch1","tol_trial_num","1235.8999999999069","<div class = centerbox><p class = center-block-text>problem <strong>7</strong> out of 25 problems</p></div>","0","","","","","","","","","","","","","","","","","","","","","","","","","",""
"","","","","","single-stim-button","281","674609","0.0-3.0-28.0-0.0","63d83b5d3a1951db0fb600a4","A3","batch1","tol_tohand","5318","","","","","","","","","tol_peg_3","5318","5318","0","[[2,1,0],[0,0],[0]]","1","[[1,2,0],[3,0],[0]]","6","0","","","","","","5","","","","",""
"","","","","","single-stim-button","282","675769","0.0-3.0-28.0-1.0","63d83b5d3a1951db0fb600a4","A3","batch1","tol_toboard","1159","","","","","","","","","tol_peg_2","1159","1159","0","[[2,1,0],[3,0],[0]]","1","[[1,2,0],[3,0],[0]]","6","0","","","","","","5","","","","",""
"","","","","","single-stim-button","283","676787","0.0-3.0-28.1-0.1","63d83b5d3a1951db0fb600a4","A3","batch1","tol_tohand","1016","","","","","","","","","tol_peg_1","1016","1016","0","[[2,0,0],[3,0],[0]]","2","[[1,2,0],[3,0],[0]]","6","0","","","","","","5","","","","",""
"","","","","","single-stim-button","284","678280","0.0-3.0-28.1-1.1","63d83b5d3a1951db0fb600a4","A3","batch1","tol_toboard","1491","","","","","","","","","tol_peg_3","1491","1491","0","[[2,0,0],[3,0],[1]]","2","[[1,2,0],[3,0],[0]]","6","0","","","","","","5","","","","",""
"","","","","","single-stim-button","285","679007","0.0-3.0-28.2-0.2","63d83b5d3a1951db0fb600a4","A3","batch1","tol_tohand","726","","","","","","","","","tol_peg_1","726","726","0","[[0,0,0],[3,0],[1]]","3","[[1,2,0],[3,0],[0]]","6","0","","","","","","5","","","","",""
"","","","","","single-stim-button","286","679954","0.0-3.0-28.2-1.2","63d83b5d3a1951db0fb600a4","A3","batch1","tol_toboard","945","","","","","","","","","tol_peg_2","945","945","0","[[0,0,0],[3,2],[1]]","3","[[1,2,0],[3,0],[0]]","6","0","","","","","","5","","","","",""
"","","","","","single-stim-button","287","681275","0.0-3.0-28.3-0.3","63d83b5d3a1951db0fb600a4","A3","batch1","tol_tohand","1319","","","","","","","","","tol_peg_3","1319","1319","0","[[0,0,0],[3,2],[0]]","4","[[1,2,0],[3,0],[0]]","6","0","","","","","","5","","","","",""
"","","","","","single-stim-button","288","682115","0.0-3.0-28.3-1.3","63d83b5d3a1951db0fb600a4","A3","batch1","tol_toboard","839","","","","","","","","","tol_peg_1","839","839","0","[[1,0,0],[3,2],[0]]","4","[[1,2,0],[3,0],[0]]","6","0","","","","","","5","","","","",""
"","","","","","single-stim-button","289","683236","0.0-3.0-28.4-0.4","63d83b5d3a1951db0fb600a4","A3","batch1","tol_tohand","1119","","","","","","","","","tol_peg_2","1119","1119","0","[[1,0,0],[3,0],[0]]","5","[[1,2,0],[3,0],[0]]","6","0","","","","","","5","","","","",""
"","","","","","single-stim-button","290","683911","0.0-3.0-28.4-1.4","63d83b5d3a1951db0fb600a4","A3","batch1","tol_toboard","674","","","","","","","","","tol_peg_1","674","674","0","[[1,2,0],[3,0],[0]]","5","[[1,2,0],[3,0],[0]]","6","0","","","","","","5","","","","",""
"","","","","","poldrack-single-stim","291","684916","0.0-3.0-29.0","63d83b5d3a1951db0fb600a4","A3","batch1","tol_feedback","-1","","","","","true","","","","","1000","1000","500","","","","","","-1","none","true","5318","9498","","","","","",""
"","","","","","html-button-response","292","685582","0.0-3.0-30.0","63d83b5d3a1951db0fb600a4","A3","batch1","tol_trial_num","664.5999999998603","<div class = centerbox><p class = center-block-text>problem <strong>8</strong> out of 25 problems</p></div>","0","","","","","","","","","","","","","","","","","","","","","","","","","",""
"","","","","","single-stim-button","293","690331","0.0-3.0-31.0-0.0","63d83b5d3a1951db0fb600a4","A3","batch1","tol_tohand","4747","","","","","","","","","tol_peg_3","4747","4747","0","[[0,0,0],[2,3],[0]]","1","[[1,2,0],[3,0],[0]]","7","0","","","","","","4","","","","",""
"","","","","","single-stim-button","294","692518","0.0-3.0-31.0-1.0","63d83b5d3a1951db0fb600a4","A3","batch1","tol_toboard","2186","","","","","","","","","tol_peg_1","2186","2186","0","[[1,0,0],[2,3],[0]]","1","[[1,2,0],[3,0],[0]]","7","0","","","","","","4","","","","",""
"","","","","","single-stim-button","295","695769","0.0-3.0-31.1-0.1","63d83b5d3a1951db0fb600a4","A3","batch1","tol_tohand","3249","","","","","","","","","tol_peg_2","3249","3249","0","[[1,0,0],[2,0],[0]]","2","[[1,2,0],[3,0],[0]]","7","0","","","","","","4","","","","",""
"","","","","","single-stim-button","296","698221","0.0-3.0-31.1-1.1","63d83b5d3a1951db0fb600a4","A3","batch1","tol_toboard","2451","","","","","","","","","tol_peg_3","2451","2451","0","[[1,0,0],[2,0],[3]]","2","[[1,2,0],[3,0],[0]]","7","0","","","","","","4","","","","",""
"","","","","","single-stim-button","297","699584","0.0-3.0-31.2-0.2","63d83b5d3a1951db0fb600a4","A3","batch1","tol_tohand","1362","","","","","","","","","tol_peg_2","1362","1362","0","[[1,0,0],[0,0],[3]]","3","[[1,2,0],[3,0],[0]]","7","0","","","","","","4","","","","",""
"","","","","","single-stim-button","298","700376","0.0-3.0-31.2-1.2","63d83b5d3a1951db0fb600a4","A3","batch1","tol_toboard","790","","","","","","","","","tol_peg_1","790","790","0","[[1,2,0],[0,0],[3]]","3","[[1,2,0],[3,0],[0]]","7","0","","","","","","4","","","","",""
"","","","","","single-stim-button","299","701631","0.0-3.0-31.3-0.3","63d83b5d3a1951db0fb600a4","A3","batch1","tol_tohand","1253","","","","","","","","","tol_peg_3","1253","1253","0","[[1,2,0],[0,0],[0]]","4","[[1,2,0],[3,0],[0]]","7","0","","","","","","4","","","","",""
"","","","","","single-stim-button","300","702747","0.0-3.0-31.3-1.3","63d83b5d3a1951db0fb600a4","A3","batch1","tol_toboard","1115","","","","","","","","","tol_peg_2","1115","1115","0","[[1,2,0],[3,0],[0]]","4","[[1,2,0],[3,0],[0]]","7","0","","","","","","4","","","","",""
"","","","","","poldrack-single-stim","301","703756","0.0-3.0-32.0","63d83b5d3a1951db0fb600a4","A3","batch1","tol_feedback","-1","","","","","true","","","","","1000","1000","500","","","","","","-1","none","true","4747","10611","","","","","",""
"","","","","","html-button-response","302","704625","0.0-3.0-33.0","63d83b5d3a1951db0fb600a4","A3","batch1","tol_trial_num","867.3000000000466","<div class = centerbox><p class = center-block-text>problem <strong>9</strong> out of 25 problems</p></div>","0","","","","","","","","","","","","","","","","","","","","","","","","","",""
"","","","","","single-stim-button","303","714475","0.0-3.0-34.0-0.0","63d83b5d3a1951db0fb600a4","A3","batch1","tol_tohand","9848","","","","","","","","","tol_peg_1","9848","9848","0","[[3,0,0],[0,0],[1]]","1","[[2,1,0],[3,0],[0]]","8","0","","","","","","6","","","","",""
"","","","","","single-stim-button","304","716854","0.0-3.0-34.0-1.0","63d83b5d3a1951db0fb600a4","A3","batch1","tol_toboard","2378","","","","","","","","","tol_peg_2","2378","2378","0","[[3,0,0],[2,0],[1]]","1","[[2,1,0],[3,0],[0]]","8","0","","","","","","6","","","","",""
"","","","","","single-stim-button","305","717864","0.0-3.0-34.1-0.1","63d83b5d3a1951db0fb600a4","A3","batch1","tol_tohand","1008","","","","","","","","","tol_peg_1","1008","1008","0","[[0,0,0],[2,0],[1]]","2","[[2,1,0],[3,0],[0]]","8","0","","","","","","6","","","","",""
"","","","","","single-stim-button","306","720628","0.0-3.0-34.1-1.1","63d83b5d3a1951db0fb600a4","A3","batch1","tol_toboard","2762","","","","","","","","","tol_peg_1","2762","2762","0","[[3,0,0],[2,0],[1]]","2","[[2,1,0],[3,0],[0]]","8","0","","","","","","6","","","","",""
"","","","","","single-stim-button","307","721810","0.0-3.0-34.2-0.2","63d83b5d3a1951db0fb600a4","A3","batch1","tol_tohand","1181","","","","","","","","","tol_peg_3","1181","1181","0","[[3,0,0],[2,0],[0]]","3","[[2,1,0],[3,0],[0]]","8","0","","","","","","6","","","","",""
"","","","","","single-stim-button","308","722869","0.0-3.0-34.2-1.2","63d83b5d3a1951db0fb600a4","A3","batch1","tol_toboard","1057","","","","","","","","","tol_peg_2","1057","1057","0","[[3,0,0],[2,1],[0]]","3","[[2,1,0],[3,0],[0]]","8","0","","","","","","6","","","","",""
"","","","","","single-stim-button","309","723908","0.0-3.0-34.3-0.3","63d83b5d3a1951db0fb600a4","A3","batch1","tol_tohand","1038","","","","","","","","","tol_peg_1","1038","1038","0","[[0,0,0],[2,1],[0]]","4","[[2,1,0],[3,0],[0]]","8","0","","","","","","6","","","","",""
"","","","","","single-stim-button","310","724883","0.0-3.0-34.3-1.3","63d83b5d3a1951db0fb600a4","A3","batch1","tol_toboard","973","","","","","","","","","tol_peg_3","973","973","0","[[0,0,0],[2,1],[3]]","4","[[2,1,0],[3,0],[0]]","8","0","","","","","","6","","","","",""
"","","","","","single-stim-button","311","725680","0.0-3.0-34.4-0.4","63d83b5d3a1951db0fb600a4","A3","batch1","tol_tohand","796","","","","","","","","","tol_peg_2","796","796","0","[[0,0,0],[2,0],[3]]","5","[[2,1,0],[3,0],[0]]","8","0","","","","","","6","","","","",""
"","","","","","single-stim-button","312","726473","0.0-3.0-34.4-1.4","63d83b5d3a1951db0fb600a4","A3","batch1","tol_toboard","793","","","","","","","","","tol_peg_1","793","793","0","[[1,0,0],[2,0],[3]]","5","[[2,1,0],[3,0],[0]]","8","0","","","","","","6","","","","",""
"","","","","","single-stim-button","313","727489","0.0-3.0-34.5-0.5","63d83b5d3a1951db0fb600a4","A3","batch1","tol_tohand","1015","","","","","","","","","tol_peg_2","1015","1015","0","[[1,0,0],[0,0],[3]]","6","[[2,1,0],[3,0],[0]]","8","0","","","","","","6","","","","",""
"","","","","","single-stim-button","314","730720","0.0-3.0-34.5-1.5","63d83b5d3a1951db0fb600a4","A3","batch1","tol_toboard","3229","","","","","","","","","tol_peg_2","3229","3229","0","[[1,0,0],[2,0],[3]]","6","[[2,1,0],[3,0],[0]]","8","0","","","","","","6","","","","",""
"","","","","","single-stim-button","315","731831","0.0-3.0-34.6-0.6","63d83b5d3a1951db0fb600a4","A3","batch1","tol_tohand","1109","","","","","","","","","tol_peg_3","1109","1109","0","[[1,0,0],[2,0],[0]]","7","[[2,1,0],[3,0],[0]]","8","0","","","","","","6","","","","",""
"","","","","","single-stim-button","316","732765","0.0-3.0-34.6-1.6","63d83b5d3a1951db0fb600a4","A3","batch1","tol_toboard","933","","","","","","","","","tol_peg_2","933","933","0","[[1,0,0],[2,3],[0]]","7","[[2,1,0],[3,0],[0]]","8","0","","","","","","6","","","","",""
"","","","","","single-stim-button","317","734947","0.0-3.0-34.7-0.7","63d83b5d3a1951db0fb600a4","A3","batch1","tol_tohand","2181","","","","","","","","","tol_peg_2","2181","2181","0","[[1,0,0],[2,0],[0]]","8","[[2,1,0],[3,0],[0]]","8","0","","","","","","6","","","","",""
"","","","","","single-stim-button","318","735507","0.0-3.0-34.7-1.7","63d83b5d3a1951db0fb600a4","A3","batch1","tol_toboard","559","","","","","","","","","tol_peg_2","559","559","0","[[1,0,0],[2,3],[0]]","8","[[2,1,0],[3,0],[0]]","8","0","","","","","","6","","","","",""
"","","","","","single-stim-button","319","736183","0.0-3.0-34.8-0.8","63d83b5d3a1951db0fb600a4","A3","batch1","tol_tohand","674","","","","","","","","","tol_peg_2","674","674","0","[[1,0,0],[2,0],[0]]","9","[[2,1,0],[3,0],[0]]","8","0","","","","","","6","","","","",""
"","","","","","single-stim-button","320","737022","0.0-3.0-34.8-1.8","63d83b5d3a1951db0fb600a4","A3","batch1","tol_toboard","837","","","","","","","","","tol_peg_3","837","837","0","[[1,0,0],[2,0],[3]]","9","[[2,1,0],[3,0],[0]]","8","0","","","","","","6","","","","",""
"","","","","","single-stim-button","321","737684","0.0-3.0-34.9-0.9","63d83b5d3a1951db0fb600a4","A3","batch1","tol_tohand","661","","","","","","","","","tol_peg_2","661","661","0","[[1,0,0],[0,0],[3]]","10","[[2,1,0],[3,0],[0]]","8","0","","","","","","6","","","","",""
"","","","","","single-stim-button","322","738466","0.0-3.0-34.9-1.9","63d83b5d3a1951db0fb600a4","A3","batch1","tol_toboard","781","","","","","","","","","tol_peg_1","781","781","0","[[1,2,0],[0,0],[3]]","10","[[2,1,0],[3,0],[0]]","8","0","","","","","","6","","","","",""
"","","","","","single-stim-button","323","739926","0.0-3.0-34.10-0.10","63d83b5d3a1951db0fb600a4","A3","batch1","tol_tohand","1459","","","","","","","","","tol_peg_3","1459","1459","0","[[1,2,0],[0,0],[0]]","11","[[2,1,0],[3,0],[0]]","8","0","","","","","","6","","","","",""
"","","","","","single-stim-button","324","741028","0.0-3.0-34.10-1.10","63d83b5d3a1951db0fb600a4","A3","batch1","tol_toboard","1101","","","","","","","","","tol_peg_2","1101","1101","0","[[1,2,0],[3,0],[0]]","11","[[2,1,0],[3,0],[0]]","8","0","","","","","","6","","","","",""
"","","","","","single-stim-button","325","741929","0.0-3.0-34.11-0.11","63d83b5d3a1951db0fb600a4","A3","batch1","tol_tohand","899","","","","","","","","","tol_peg_1","899","899","0","[[1,0,0],[3,0],[0]]","12","[[2,1,0],[3,0],[0]]","8","0","","","","","","6","","","","",""
"","","","","","single-stim-button","326","744611","0.0-3.0-34.11-1.11","63d83b5d3a1951db0fb600a4","A3","batch1","tol_toboard","2680","","","","","","","","","tol_peg_3","2680","2680","0","[[1,0,0],[3,0],[2]]","12","[[2,1,0],[3,0],[0]]","8","0","","","","","","6","","","","",""
"","","","","","single-stim-button","327","746172","0.0-3.0-34.12-0.12","63d83b5d3a1951db0fb600a4","A3","batch1","tol_tohand","1559","","","","","","","","","tol_peg_1","1559","1559","0","[[0,0,0],[3,0],[2]]","13","[[2,1,0],[3,0],[0]]","8","0","","","","","","6","","","","",""
"","","","","","single-stim-button","328","746963","0.0-3.0-34.12-1.12","63d83b5d3a1951db0fb600a4","A3","batch1","tol_toboard","789","","","","","","","","","tol_peg_2","789","789","0","[[0,0,0],[3,1],[2]]","13","[[2,1,0],[3,0],[0]]","8","0","","","","","","6","","","","",""
"","","","","","single-stim-button","329","747740","0.0-3.0-34.13-0.13","63d83b5d3a1951db0fb600a4","A3","batch1","tol_tohand","775","","","","","","","","","tol_peg_3","775","775","0","[[0,0,0],[3,1],[0]]","14","[[2,1,0],[3,0],[0]]","8","0","","","","","","6","","","","",""
"","","","","","single-stim-button","330","748628","0.0-3.0-34.13-1.13","63d83b5d3a1951db0fb600a4","A3","batch1","tol_toboard","888","","","","","","","","","tol_peg_1","888","888","0","[[2,0,0],[3,1],[0]]","14","[[2,1,0],[3,0],[0]]","8","0","","","","","","6","","","","",""
"","","","","","single-stim-button","331","749640","0.0-3.0-34.14-0.14","63d83b5d3a1951db0fb600a4","A3","batch1","tol_tohand","1010","","","","","","","","","tol_peg_2","1010","1010","0","[[2,0,0],[3,0],[0]]","15","[[2,1,0],[3,0],[0]]","8","0","","","","","","6","","","","",""
"","","","","","single-stim-button","332","750404","0.0-3.0-34.14-1.14","63d83b5d3a1951db0fb600a4","A3","batch1","tol_toboard","764","","","","","","","","","tol_peg_1","764","764","0","[[2,1,0],[3,0],[0]]","15","[[2,1,0],[3,0],[0]]","8","0","","","","","","6","","","","",""
"","","","","","poldrack-single-stim","333","751408","0.0-3.0-35.0","63d83b5d3a1951db0fb600a4","A3","batch1","tol_feedback","-1","","","","","true","","","","","1000","1000","500","","","","","","-1","none","true","9848","25213","","","","","",""
"","","","","","html-button-response","334","752138","0.0-3.0-36.0","63d83b5d3a1951db0fb600a4","A3","batch1","tol_trial_num","729.1999999999534","<div class = centerbox><p class = center-block-text>problem <strong>10</strong> out of 25 problems</p></div>","0","","","","","","","","","","","","","","","","","","","","","","","","","",""
"","","","","","single-stim-button","335","758543","0.0-3.0-37.0-0.0","63d83b5d3a1951db0fb600a4","A3","batch1","tol_tohand","6403","","","","","","","","","tol_peg_2","6403","6403","0","[[3,0,0],[0,0],[2]]","1","[[3,0,0],[2,1],[0]]","9","0","","","","","","3","","","","",""
"","","","","","single-stim-button","336","759693","0.0-3.0-37.0-1.0","63d83b5d3a1951db0fb600a4","A3","batch1","tol_toboard","1149","","","","","","","","","tol_peg_1","1149","1149","0","[[3,1,0],[0,0],[2]]","1","[[3,0,0],[2,1],[0]]","9","0","","","","","","3","","","","",""
"","","","","","single-stim-button","337","761246","0.0-3.0-37.1-0.1","63d83b5d3a1951db0fb600a4","A3","batch1","tol_tohand","1552","","","","","","","","","tol_peg_3","1552","1552","0","[[3,1,0],[0,0],[0]]","2","[[3,0,0],[2,1],[0]]","9","0","","","","","","3","","","","",""
"","","","","","single-stim-button","338","762098","0.0-3.0-37.1-1.1","63d83b5d3a1951db0fb600a4","A3","batch1","tol_toboard","851","","","","","","","","","tol_peg_2","851","851","0","[[3,1,0],[2,0],[0]]","2","[[3,0,0],[2,1],[0]]","9","0","","","","","","3","","","","",""
"","","","","","single-stim-button","339","762773","0.0-3.0-37.2-0.2","63d83b5d3a1951db0fb600a4","A3","batch1","tol_tohand","674","","","","","","","","","tol_peg_1","674","674","0","[[3,0,0],[2,0],[0]]","3","[[3,0,0],[2,1],[0]]","9","0","","","","","","3","","","","",""
"","","","","","single-stim-button","340","763569","0.0-3.0-37.2-1.2","63d83b5d3a1951db0fb600a4","A3","batch1","tol_toboard","794","","","","","","","","","tol_peg_2","794","794","0","[[3,0,0],[2,1],[0]]","3","[[3,0,0],[2,1],[0]]","9","0","","","","","","3","","","","",""
"","","","","","poldrack-single-stim","341","764573","0.0-3.0-38.0","63d83b5d3a1951db0fb600a4","A3","batch1","tol_feedback","-1","","","","","true","","","","","1000","1000","500","","","","","","-1","none","true","6403","8629","","","","","",""
"","","","","","html-button-response","342","766316","0.0-3.0-39.0","63d83b5d3a1951db0fb600a4","A3","batch1","tol_trial_num","1741.8000000000466","<div class = centerbox><p class = center-block-text>problem <strong>11</strong> out of 25 problems</p></div>","0","","","","","","","","","","","","","","","","","","","","","","","","","",""
"","","","","","single-stim-button","343","769302","0.0-3.0-40.0-0.0","63d83b5d3a1951db0fb600a4","A3","batch1","tol_tohand","2984","","","","","","","","","tol_peg_1","2984","2984","0","[[1,0,0],[3,0],[0]]","1","[[2,0,0],[1,3],[0]]","10","0","","","","","","6","","","","",""
"","","","","","single-stim-button","344","770234","0.0-3.0-40.0-1.0","63d83b5d3a1951db0fb600a4","A3","batch1","tol_toboard","931","","","","","","","","","tol_peg_3","931","931","0","[[1,0,0],[3,0],[2]]","1","[[2,0,0],[1,3],[0]]","10","0","","","","","","6","","","","",""
"","","","","","single-stim-button","345","781371","0.0-3.0-40.1-0.1","63d83b5d3a1951db0fb600a4","A3","batch1","tol_tohand","11136","","","","","","","","","tol_peg_1","11136","11136","0","[[0,0,0],[3,0],[2]]","2","[[2,0,0],[1,3],[0]]","10","0","","","","","","6","","","","",""
"","","","","","single-stim-button","346","782322","0.0-3.0-40.1-1.1","63d83b5d3a1951db0fb600a4","A3","batch1","tol_toboard","949","","","","","","","","","tol_peg_2","949","949","0","[[0,0,0],[3,1],[2]]","2","[[2,0,0],[1,3],[0]]","10","0","","","","","","6","","","","",""
"","","","","","single-stim-button","347","783089","0.0-3.0-40.2-0.2","63d83b5d3a1951db0fb600a4","A3","batch1","tol_tohand","766","","","","","","","","","tol_peg_3","766","766","0","[[0,0,0],[3,1],[0]]","3","[[2,0,0],[1,3],[0]]","10","0","","","","","","6","","","","",""
"","","","","","single-stim-button","348","783923","0.0-3.0-40.2-1.2","63d83b5d3a1951db0fb600a4","A3","batch1","tol_toboard","832","","","","","","","","","tol_peg_1","832","832","0","[[2,0,0],[3,1],[0]]","3","[[2,0,0],[1,3],[0]]","10","0","","","","","","6","","","","",""
"","","","","","single-stim-button","349","786120","0.0-3.0-40.3-0.3","63d83b5d3a1951db0fb600a4","A3","batch1","tol_tohand","2196","","","","","","","","","tol_peg_2","2196","2196","0","[[2,0,0],[3,0],[0]]","4","[[2,0,0],[1,3],[0]]","10","0","","","","","","6","","","","",""
"","","","","","single-stim-button","350","787313","0.0-3.0-40.3-1.3","63d83b5d3a1951db0fb600a4","A3","batch1","tol_toboard","1188","","","","","","","","","tol_peg_3","1188","1188","0","[[2,0,0],[3,0],[1]]","4","[[2,0,0],[1,3],[0]]","10","0","","","","","","6","","","","",""
"","","","","","single-stim-button","351","788173","0.0-3.0-40.4-0.4","63d83b5d3a1951db0fb600a4","A3","batch1","tol_tohand","858","","","","","","","","","tol_peg_2","858","858","0","[[2,0,0],[0,0],[1]]","5","[[2,0,0],[1,3],[0]]","10","0","","","","","","6","","","","",""
"","","","","","single-stim-button","352","788970","0.0-3.0-40.4-1.4","63d83b5d3a1951db0fb600a4","A3","batch1","tol_toboard","795","","","","","","","","","tol_peg_1","795","795","0","[[2,3,0],[0,0],[1]]","5","[[2,0,0],[1,3],[0]]","10","0","","","","","","6","","","","",""
"","","","","","single-stim-button","353","789649","0.0-3.0-40.5-0.5","63d83b5d3a1951db0fb600a4","A3","batch1","tol_tohand","678","","","","","","","","","tol_peg_3","678","678","0","[[2,3,0],[0,0],[0]]","6","[[2,0,0],[1,3],[0]]","10","0","","","","","","6","","","","",""
