"success","timeout","failed_images","failed_audio","failed_video","trial_type","trial_index","time_elapsed","internal_node_id","subject_id","study_id","session_id","view_history","rt","stimulus","response","task","correct","answer","item","fiar_detect_rt","fiar_detect_correct","total_correct_fiar_detect","post_trial_gap","choices","mouse_click","stim_duration","block_duration","timing_post_trial","current_position","tol_num_moves_made","tol_target","tol_problem_id","tol_rt","key_press","possible_responses","tol_correct","preplanning","tol_rt_per_trial","tol_min_moves","spm_correct","spm_rt"
"true","false","[]","[]","[]","preload","0","26091","0.0-0.0","63d950327d82a384a24b606c","C3","batch3","","","","","","","","","","","","","","","","","","","","","","","","","","","","","",""
"true","","","","","fullscreen","1","65294","0.0-1.0-0.0","63d950327d82a384a24b606c","C3","batch3","","","","","","","","","","","","","","","","","","","","","","","","","","","","","",""
"true","","","","","fullscreen","2","74824","0.0-2.0-0.0","63d950327d82a384a24b606c","C3","batch3","","","","","","","","","","","","","","","","","","","","","","","","","","","","","",""
"","","","","","instructions","3","130853","0.0-2.0-1.0-0.0","63d950327d82a384a24b606c","C3","batch3","[{""page_index"":0,""viewing_time"":41963.19999998808},{""page_index"":1,""viewing_time"":14063.70000000298}]","56027.09999999404","","","","","","","","","","","","","","","","","","","","","","","","","","","",""
"","","","","","html-button-response","4","132186","0.0-2.0-1.0-1.0-0.0","63d950327d82a384a24b606c","C3","batch3","","1331.5","<p class=block-text> Let's answer a few questions <br>","0","pattern_enter_quiz","","","","","","","","","","","","","","","","","","","","","","","","",""
"","","","","","html-button-response","5","135820","0.0-2.0-1.0-1.0-1.0","63d950327d82a384a24b606c","C3","batch3","","3632.7999999970198","<p class = block-text>True or False: You will have as much time as you want to make each choice. <br></p>","1","pattern_quiz","true","","","","","","","","","","","","","","","","","","","","","","","",""
"","","","","","html-button-response","6","137475","0.0-2.0-1.0-1.0-2.0","63d950327d82a384a24b606c","C3","batch3","","1653.5","<p class = block-text>Correct! You should make your choice <strong> as fast as you can</strong>.</p>","0","pattern_quiz_feedback","","","","","","","","","","","","","","","","","","","","","","","","",""
"","","","","","html-button-response","7","142886","0.0-2.0-1.0-1.0-3.0","63d950327d82a384a24b606c","C3","batch3","","5410.20000000298","<p class = block-text>True or False: You will look for 4 pieces in black or white color connected in a row either horizontally, vertically or diagonally. <br></p>","0","pattern_quiz","true","","","","","","","","","","","","","","","","","","","","","","","",""
"","","","","","html-button-response","8","144082","0.0-2.0-1.0-1.0-4.0","63d950327d82a384a24b606c","C3","batch3","","1194.2999999970198","<p class = block-text>Correct! </p>","0","pattern_quiz_feedback","","","","","","","","","","","","","","","","","","","","","","","","",""
"","","","","","html-button-response","9","147716","0.0-2.0-2.0","63d950327d82a384a24b606c","C3","batch3","","3632.300000011921","<p class=block-text> Now that you've understood the game, let's do a few practice trials before we start!<br> <br>","0","pattern_enter_practice","","","","","","","","","","","","","","","","","","","","","","","","",""
"","","","","","image-keyboard-response","10","153161","0.0-2.0-3.0-0.0","63d950327d82a384a24b606c","C3","batch3","","5420","stim/prac_no_16_1.png","j","pattern_practice","true","j","","","","","","","","","","","","","","","","","","","","","","",""
"","","","","","html-keyboard-response","11","154175","0.0-2.0-3.0-1.0","63d950327d82a384a24b606c","C3","batch3","","null","<p style=""font-size:30px;color:green;"">Correct!</p>","null","pattern_feedback","","","","","","","","","","","","","","","","","","","","","","","","",""
"","","","","","image-keyboard-response","12","155465","0.0-2.0-3.0-0.1","63d950327d82a384a24b606c","C3","batch3","","1287.8999999910593","stim/prac_no_18_1.png","j","pattern_practice","true","j","","","","","","","","","","","","","","","","","","","","","","",""
"","","","","","html-keyboard-response","13","156479","0.0-2.0-3.0-1.1","63d950327d82a384a24b606c","C3","batch3","","null","<p style=""font-size:30px;color:green;"">Correct!</p>","null","pattern_feedback","","","","","","","","","","","","","","","","","","","","","","","","",""
"","","","","","image-keyboard-response","14","157554","0.0-2.0-3.0-0.2","63d950327d82a384a24b606c","C3","batch3","","1073.699999988079","stim/prac_yes_18_hor_w1.png","f","pattern_practice","true","f","","","","","","","","","","","","","","","","","","","","","","",""
"","","","","","html-keyboard-response","15","158563","0.0-2.0-3.0-1.2","63d950327d82a384a24b606c","C3","batch3","","null","<p style=""font-size:30px;color:green;"">Correct!</p>","null","pattern_feedback","","","","","","","","","","","","","","","","","","","","","","","","",""
"","","","","","image-keyboard-response","16","159620","0.0-2.0-3.0-0.3","63d950327d82a384a24b606c","C3","batch3","","1055.5","stim/prac_yes_16_ver_w1.png","f","pattern_practice","true","f","","","","","","","","","","","","","","","","","","","","","","",""
"","","","","","html-keyboard-response","17","160627","0.0-2.0-3.0-1.3","63d950327d82a384a24b606c","C3","batch3","","null","<p style=""font-size:30px;color:green;"">Correct!</p>","null","pattern_feedback","","","","","","","","","","","","","","","","","","","","","","","","",""
"","","","","","image-keyboard-response","18","162263","0.0-2.0-3.0-0.4","63d950327d82a384a24b606c","C3","batch3","","1634.199999988079","stim/prac_yes_20_dia_b1.png","f","pattern_practice","true","f","","","","","","","","","","","","","","","","","","","","","","",""
"","","","","","html-keyboard-response","19","163275","0.0-2.0-3.0-1.4","63d950327d82a384a24b606c","C3","batch3","","null","<p style=""font-size:30px;color:green;"">Correct!</p>","null","pattern_feedback","","","","","","","","","","","","","","","","","","","","","","","","",""
"","","","","","html-button-response","20","171411","0.0-2.0-4.0","63d950327d82a384a24b606c","C3","batch3","","8134.600000008941","<p class=block-text> Good job! You are done with practice trials!<br>
        You responded correctly on 100% of the trials.<br>
        Press the button below to start official trials. Now you won't see any feedback about your response</p>","0","pattern_enter_official_trials","","","","","","","","","","","","","","","","","","","","","","","","",""
"","","","","","html-keyboard-response","21","172221","0.0-2.0-5.0-0.0","63d950327d82a384a24b606c","C3","batch3","","null","<p class=block-text>Trial 1 out of 78</p>","null","pattern_show_trial_num","","","","","","","","","","","","","","","","","","","","","","","","",""
"","","","","","image-keyboard-response","22","174397","0.0-2.0-5.0-1.0","63d950327d82a384a24b606c","C3","batch3","","2174","stim/yes_51_dia_b1.png","j","pattern_response","false","f","pattern_72","2174","false","0","","","","","","","","","","","","","","","","","","",""
"","","","","","html-keyboard-response","23","175707","0.0-2.0-5.0-0.1","63d950327d82a384a24b606c","C3","batch3","","null","<p class=block-text>Trial 2 out of 78</p>","null","pattern_show_trial_num","","","","","","","","","","","","","","","","","","","","","","","","",""
"","","","","","image-keyboard-response","24","176625","0.0-2.0-5.0-1.1","63d950327d82a384a24b606c","C3","batch3","","917.2000000029802","stim/yes_17_ver_b1_b.png","f","pattern_response","true","f","pattern_46","917.2000000029802","true","1","","","","","","","","","","","","","","","","","","",""
"","","","","","html-keyboard-response","25","177941","0.0-2.0-5.0-0.2","63d950327d82a384a24b606c","C3","batch3","","null","<p class=block-text>Trial 3 out of 78</p>","null","pattern_show_trial_num","","","","","","","","","","","","","","","","","","","","","","","","",""
"","","","","","image-keyboard-response","26","178759","0.0-2.0-5.0-1.2","63d950327d82a384a24b606c","C3","batch3","","816.4000000059605","stim/yes_29_hor_b1_b.png","f","pattern_response","true","f","pattern_52","816.4000000059605","true","2","","","","","","","","","","","","","","","","","","",""
"","","","","","html-keyboard-response","27","180078","0.0-2.0-5.0-0.3","63d950327d82a384a24b606c","C3","batch3","","null","<p class=block-text>Trial 4 out of 78</p>","null","pattern_show_trial_num","","","","","","","","","","","","","","","","","","","","","","","","",""
"","","","","","image-keyboard-response","28","181874","0.0-2.0-5.0-1.3","63d950327d82a384a24b606c","C3","batch3","","1795.5","stim/no_33_1_b.png","j","pattern_response","true","j","pattern_15","1795.5","true","3","","","","","","","","","","","","","","","","","","",""
"","","","","","html-keyboard-response","29","183192","0.0-2.0-5.0-0.4","63d950327d82a384a24b606c","C3","batch3","","null","<p class=block-text>Trial 5 out of 78</p>","null","pattern_show_trial_num","","","","","","","","","","","","","","","","","","","","","","","","",""
"","","","","","image-keyboard-response","30","185594","0.0-2.0-5.0-1.4","63d950327d82a384a24b606c","C3","batch3","","2401.2000000029802","stim/no_39_1_w.png","j","pattern_response","true","j","pattern_21","2401.2000000029802","true","4","","","","","","","","","","","","","","","","","","",""
"","","","","","html-keyboard-response","31","186912","0.0-2.0-5.0-0.5","63d950327d82a384a24b606c","C3","batch3","","null","<p class=block-text>Trial 6 out of 78</p>","null","pattern_show_trial_num","","","","","","","","","","","","","","","","","","","","","","","","",""
"","","","","","image-keyboard-response","32","189475","0.0-2.0-5.0-1.5","63d950327d82a384a24b606c","C3","batch3","","2561.4000000059605","stim/no_28_2.png","j","pattern_response","true","j","pattern_11","2561.4000000059605","true","5","","","","","","","","","","","","","","","","","","",""
"","","","","","html-keyboard-response","33","190792","0.0-2.0-5.0-0.6","63d950327d82a384a24b606c","C3","batch3","","null","<p class=block-text>Trial 7 out of 78</p>","null","pattern_show_trial_num","","","","","","","","","","","","","","","","","","","","","","","","",""
"","","","","","image-keyboard-response","34","191919","0.0-2.0-5.0-1.6","63d950327d82a384a24b606c","C3","batch3","","1125","stim/yes_23_ver_b1.png","f","pattern_response","true","f","pattern_48","1125","true","6","","","","","","","","","","","","","","","","","","",""
"","","","","","html-keyboard-response","35","193236","0.0-2.0-5.0-0.7","63d950327d82a384a24b606c","C3","batch3","","null","<p class=block-text>Trial 8 out of 78</p>","null","pattern_show_trial_num","","","","","","","","","","","","","","","","","","","","","","","","",""
"","","","","","image-keyboard-response","36","195880","0.0-2.0-5.0-1.7","63d950327d82a384a24b606c","C3","batch3","","2642.5999999940395","stim/no_49_2_b.png","j","pattern_response","true","j","pattern_29","2642.5999999940395","true","7","","","","","","","","","","","","","","","","","","",""
"","","","","","html-keyboard-response","37","197200","0.0-2.0-5.0-0.8","63d950327d82a384a24b606c","C3","batch3","","null","<p class=block-text>Trial 9 out of 78</p>","null","pattern_show_trial_num","","","","","","","","","","","","","","","","","","","","","","","","",""
"","","","","","image-keyboard-response","38","198072","0.0-2.0-5.0-1.8","63d950327d82a384a24b606c","C3","batch3","","870","stim/yes_15_dia_b1u_b.png","f","pattern_response","true","f","pattern_44","870","true","8","","","","","","","","","","","","","","","","","","",""
"","","","","","html-keyboard-response","39","199387","0.0-2.0-5.0-0.9","63d950327d82a384a24b606c","C3","batch3","","null","<p class=block-text>Trial 10 out of 78</p>","null","pattern_show_trial_num","","","","","","","","","","","","","","","","","","","","","","","","",""
"","","","","","image-keyboard-response","40","201159","0.0-2.0-5.0-1.9","63d950327d82a384a24b606c","C3","batch3","","1771","stim/yes_33_dia_w1_w.png","j","pattern_response","false","f","pattern_56","1771","false","8","","","","","","","","","","","","","","","","","","",""
"","","","","","html-keyboard-response","41","202477","0.0-2.0-5.0-0.10","63d950327d82a384a24b606c","C3","batch3","","null","<p class=block-text>Trial 11 out of 78</p>","null","pattern_show_trial_num","","","","","","","","","","","","","","","","","","","","","","","","",""
"","","","","","image-keyboard-response","42","206709","0.0-2.0-5.0-1.10","63d950327d82a384a24b606c","C3","batch3","","4230.20000000298","stim/yes_42_dia_w1_w.png","j","pattern_response","false","f","pattern_64","4230.20000000298","false","8","","","","","","","","","","","","","","","","","","",""
"","","","","","html-keyboard-response","43","208021","0.0-2.0-5.0-0.11","63d950327d82a384a24b606c","C3","batch3","","null","<p class=block-text>Trial 12 out of 78</p>","null","pattern_show_trial_num","","","","","","","","","","","","","","","","","","","","","","","","",""
"","","","","","image-keyboard-response","44","209340","0.0-2.0-5.0-1.11","63d950327d82a384a24b606c","C3","batch3","","1315.8999999910593","stim/no_22_1_b.png","j","pattern_response","true","j","pattern_07","1315.8999999910593","true","9","","","","","","","","","","","","","","","","","","",""
"","","","","","html-keyboard-response","45","210656","0.0-2.0-5.0-0.12","63d950327d82a384a24b606c","C3","batch3","","null","<p class=block-text>Trial 13 out of 78</p>","null","pattern_show_trial_num","","","","","","","","","","","","","","","","","","","","","","","","",""
"","","","","","image-keyboard-response","46","216080","0.0-2.0-5.0-1.12","63d950327d82a384a24b606c","C3","batch3","","5422.5","stim/no_53_1_b.png","j","pattern_response","true","j","pattern_33","5422.5","true","10","","","","","","","","","","","","","","","","","","",""
"","","","","","html-keyboard-response","47","217398","0.0-2.0-5.0-0.13","63d950327d82a384a24b606c","C3","batch3","","null","<p class=block-text>Trial 14 out of 78</p>","null","pattern_show_trial_num","","","","","","","","","","","","","","","","","","","","","","","","",""
"","","","","","image-keyboard-response","48","219370","0.0-2.0-5.0-1.13","63d950327d82a384a24b606c","C3","batch3","","1970.7000000029802","stim/no_30_1_b.png","j","pattern_response","true","j","pattern_13","1970.7000000029802","true","11","","","","","","","","","","","","","","","","","","",""
"","","","","","html-keyboard-response","49","220688","0.0-2.0-5.0-0.14","63d950327d82a384a24b606c","C3","batch3","","null","<p class=block-text>Trial 15 out of 78</p>","null","pattern_show_trial_num","","","","","","","","","","","","","","","","","","","","","","","","",""
"","","","","","image-keyboard-response","50","221876","0.0-2.0-5.0-1.14","63d950327d82a384a24b606c","C3","batch3","","1185.7999999970198","stim/yes_36_ver_w1_w.png","f","pattern_response","true","f","pattern_58","1185.7999999970198","true","12","","","","","","","","","","","","","","","","","","",""
"","","","","","html-keyboard-response","51","223189","0.0-2.0-5.0-0.15","63d950327d82a384a24b606c","C3","batch3","","null","<p class=block-text>Trial 16 out of 78</p>","null","pattern_show_trial_num","","","","","","","","","","","","","","","","","","","","","","","","",""
"","","","","","image-keyboard-response","52","226463","0.0-2.0-5.0-1.15","63d950327d82a384a24b606c","C3","batch3","","3272.4000000059605","stim/no_47_1_b.png","j","pattern_response","true","j","pattern_27","3272.4000000059605","true","13","","","","","","","","","","","","","","","","","","",""
"","","","","","html-keyboard-response","53","227774","0.0-2.0-5.0-0.16","63d950327d82a384a24b606c","C3","batch3","","null","<p class=block-text>Trial 17 out of 78</p>","null","pattern_show_trial_num","","","","","","","","","","","","","","","","","","","","","","","","",""
"","","","","","image-keyboard-response","54","230177","0.0-2.0-5.0-1.16","63d950327d82a384a24b606c","C3","batch3","","2401.2000000029802","stim/no_25_1_b.png","j","pattern_response","true","j","pattern_09","2401.2000000029802","true","14","","","","","","","","","","","","","","","","","","",""
"","","","","","html-keyboard-response","55","231497","0.0-2.0-5.0-0.17","63d950327d82a384a24b606c","C3","batch3","","null","<p class=block-text>Trial 18 out of 78</p>","null","pattern_show_trial_num","","","","","","","","","","","","","","","","","","","","","","","","",""
"","","","","","image-keyboard-response","56","234410","0.0-2.0-5.0-1.17","63d950327d82a384a24b606c","C3","batch3","","2911.6000000089407","stim/no_43_2_b.png","j","pattern_response","true","j","pattern_23","2911.6000000089407","true","15","","","","","","","","","","","","","","","","","","",""
"","","","","","html-keyboard-response","57","235726","0.0-2.0-5.0-0.18","63d950327d82a384a24b606c","C3","batch3","","null","<p class=block-text>Trial 19 out of 78</p>","null","pattern_show_trial_num","","","","","","","","","","","","","","","","","","","","","","","","",""
"","","","","","image-keyboard-response","58","236635","0.0-2.0-5.0-1.18","63d950327d82a384a24b606c","C3","batch3","","907.4000000059605","stim/yes_39_hor_w1_w.png","f","pattern_response","true","f","pattern_62","907.4000000059605","true","16","","","","","","","","","","","","","","","","","","",""
"","","","","","html-keyboard-response","59","237953","0.0-2.0-5.0-0.19","63d950327d82a384a24b606c","C3","batch3","","null","<p class=block-text>Trial 20 out of 78</p>","null","pattern_show_trial_num","","","","","","","","","","","","","","","","","","","","","","","","",""
"","","","","","image-keyboard-response","60","239887","0.0-2.0-5.0-1.19","63d950327d82a384a24b606c","C3","batch3","","1933.6000000089407","stim/no_12_1.png","j","pattern_response","true","j","pattern_01","1933.6000000089407","true","17","","","","","","","","","","","","","","","","","","",""
"","","","","","html-keyboard-response","61","241205","0.0-2.0-5.0-0.20","63d950327d82a384a24b606c","C3","batch3","","null","<p class=block-text>Trial 21 out of 78</p>","null","pattern_show_trial_num","","","","","","","","","","","","","","","","","","","","","","","","",""
"","","","","","image-keyboard-response","62","246683","0.0-2.0-5.0-1.20","63d950327d82a384a24b606c","C3","batch3","","5477.5","stim/yes_63_dia_b1.png","j","pattern_response","false","f","pattern_78","5477.5","false","17","","","","","","","","","","","","","","","","","","",""
"","","","","","html-keyboard-response","63","248001","0.0-2.0-5.0-0.21","63d950327d82a384a24b606c","C3","batch3","","null","<p class=block-text>Trial 22 out of 78</p>","null","pattern_show_trial_num","","","","","","","","","","","","","","","","","","","","","","","","",""
"","","","","","image-keyboard-response","64","249461","0.0-2.0-5.0-1.21","63d950327d82a384a24b606c","C3","batch3","","1456.8999999910593","stim/yes_53_ver_b1_b.png","f","pattern_response","true","f","pattern_74","1456.8999999910593","true","18","","","","","","","","","","","","","","","","","","",""
"","","","","","html-keyboard-response","65","250777","0.0-2.0-5.0-0.22","63d950327d82a384a24b606c","C3","batch3","","null","<p class=block-text>Trial 23 out of 78</p>","null","pattern_show_trial_num","","","","","","","","","","","","","","","","","","","","","","","","",""
"","","","","","image-keyboard-response","66","255784","0.0-2.0-5.0-1.22","63d950327d82a384a24b606c","C3","batch3","","5006.20000000298","stim/no_67_1.png","j","pattern_response","true","j","pattern_39","5006.20000000298","true","19","","","","","","","","","","","","","","","","","","",""
"","","","","","html-keyboard-response","67","257105","0.0-2.0-5.0-0.23","63d950327d82a384a24b606c","C3","batch3","","null","<p class=block-text>Trial 24 out of 78</p>","null","pattern_show_trial_num","","","","","","","","","","","","","","","","","","","","","","","","",""
"","","","","","image-keyboard-response","68","261443","0.0-2.0-5.0-1.23","63d950327d82a384a24b606c","C3","batch3","","4335.9000000059605","stim/no_58_1_w.png","j","pattern_response","true","j","pattern_35","4335.9000000059605","true","20","","","","","","","","","","","","","","","","","","",""
"","","","","","html-keyboard-response","69","262760","0.0-2.0-5.0-0.24","63d950327d82a384a24b606c","C3","batch3","","null","<p class=block-text>Trial 25 out of 78</p>","null","pattern_show_trial_num","","","","","","","","","","","","","","","","","","","","","","","","",""
"","","","","","image-keyboard-response","70","263728","0.0-2.0-5.0-1.24","63d950327d82a384a24b606c","C3","batch3","","966.1999999880791","stim/yes_70_ver_b1.png","f","pattern_response","true","f","pattern_80","966.1999999880791","true","21","","","","","","","","","","","","","","","","","","",""
"","","","","","html-keyboard-response","71","265049","0.0-2.0-5.0-0.25","63d950327d82a384a24b606c","C3","batch3","","null","<p class=block-text>Trial 26 out of 78</p>","null","pattern_show_trial_num","","","","","","","","","","","","","","","","","","","","","","","","",""
"","","","","","image-keyboard-response","72","266308","0.0-2.0-5.0-1.25","63d950327d82a384a24b606c","C3","batch3","","1251.0999999940395","stim/yes_49_hor_w1_b.png","f","pattern_response","true","f","pattern_70","1251.0999999940395","true","22","","","","","","","","","","","","","","","","","","",""
"","","","","","html-keyboard-response","73","267626","0.0-2.0-5.0-0.26","63d950327d82a384a24b606c","C3","batch3","","null","<p class=block-text>Trial 27 out of 78</p>","null","pattern_show_trial_num","","","","","","","","","","","","","","","","","","","","","","","","",""
"","","","","","image-keyboard-response","74","270225","0.0-2.0-5.0-1.26","63d950327d82a384a24b606c","C3","batch3","","2598.5","stim/yes_46_ver_b1_b.png","j","pattern_response","false","f","pattern_68","2598.5","false","22","","","","","","","","","","","","","","","","","","",""
"","","","","","html-keyboard-response","75","271542","0.0-2.0-5.0-0.27","63d950327d82a384a24b606c","C3","batch3","","null","<p class=block-text>Trial 28 out of 78</p>","null","pattern_show_trial_num","","","","","","","","","","","","","","","","","","","","","","","","",""
"","","","","","image-keyboard-response","76","272362","0.0-2.0-5.0-1.27","63d950327d82a384a24b606c","C3","batch3","","817.7999999970198","stim/yes_12_hor_w1_w.png","f","pattern_response","true","f","pattern_42","817.7999999970198","true","23","","","","","","","","","","","","","","","","","","",""
"","","","","","html-keyboard-response","77","273676","0.0-2.0-5.0-0.28","63d950327d82a384a24b606c","C3","batch3","","null","<p class=block-text>Trial 29 out of 78</p>","null","pattern_show_trial_num","","","","","","","","","","","","","","","","","","","","","","","","",""
"","","","","","image-keyboard-response","78","277160","0.0-2.0-5.0-1.28","63d950327d82a384a24b606c","C3","batch3","","3483","stim/no_37_2_w.png","j","pattern_response","true","j","pattern_19","3483","true","24","","","","","","","","","","","","","","","","","","",""
"","","","","","html-keyboard-response","79","278481","0.0-2.0-5.0-0.29","63d950327d82a384a24b606c","C3","batch3","","null","<p class=block-text>Trial 30 out of 78</p>","null","pattern_show_trial_num","","","","","","","","","","","","","","","","","","","","","","","","",""
"","","","","","image-keyboard-response","80","283049","0.0-2.0-5.0-1.29","63d950327d82a384a24b606c","C3","batch3","","4565.9000000059605","stim/yes_58_dia_w1_w.png","j","pattern_response","false","f","pattern_76","4565.9000000059605","false","24","","","","","","","","","","","","","","","","","","",""
"","","","","","html-keyboard-response","81","284368","0.0-2.0-5.0-0.30","63d950327d82a384a24b606c","C3","batch3","","null","<p class=block-text>Trial 31 out of 78</p>","null","pattern_show_trial_num","","","","","","","","","","","","","","","","","","","","","","","","",""
"","","","","","image-keyboard-response","82","285620","0.0-2.0-5.0-1.30","63d950327d82a384a24b606c","C3","batch3","","1249.7000000029802","stim/yes_30_ver_b1_b.png","f","pattern_response","true","f","pattern_54","1249.7000000029802","true","25","","","","","","","","","","","","","","","","","","",""
"","","","","","html-keyboard-response","83","286934","0.0-2.0-5.0-0.31","63d950327d82a384a24b606c","C3","batch3","","null","<p class=block-text>Trial 32 out of 78</p>","null","pattern_show_trial_num","","","","","","","","","","","","","","","","","","","","","","","","",""
"","","","","","image-keyboard-response","84","290332","0.0-2.0-5.0-1.31","63d950327d82a384a24b606c","C3","batch3","","3396.7000000029802","stim/no_45_1_w.png","j","pattern_response","true","j","pattern_25","3396.7000000029802","true","26","","","","","","","","","","","","","","","","","","",""
"","","","","","html-keyboard-response","85","291649","0.0-2.0-5.0-0.32","63d950327d82a384a24b606c","C3","batch3","","null","<p class=block-text>Trial 33 out of 78</p>","null","pattern_show_trial_num","","","","","","","","","","","","","","","","","","","","","","","","",""
"","","","","","image-keyboard-response","86","294395","0.0-2.0-5.0-1.32","63d950327d82a384a24b606c","C3","batch3","","2743.5999999940395","stim/no_15_1_w.png","j","pattern_response","true","j","pattern_03","2743.5999999940395","true","27","","","","","","","","","","","","","","","","","","",""
"","","","","","html-keyboard-response","87","295712","0.0-2.0-5.0-0.33","63d950327d82a384a24b606c","C3","batch3","","null","<p class=block-text>Trial 34 out of 78</p>","null","pattern_show_trial_num","","","","","","","","","","","","","","","","","","","","","","","","",""
"","","","","","image-keyboard-response","88","296791","0.0-2.0-5.0-1.33","63d950327d82a384a24b606c","C3","batch3","","1077","stim/yes_26_dia_w2_w.png","f","pattern_response","true","f","pattern_50","1077","true","28","","","","","","","","","","","","","","","","","","",""
"","","","","","html-keyboard-response","89","298101","0.0-2.0-5.0-0.34","63d950327d82a384a24b606c","C3","batch3","","null","<p class=block-text>Trial 35 out of 78</p>","null","pattern_show_trial_num","","","","","","","","","","","","","","","","","","","","","","","","",""
"","","","","","image-keyboard-response","90","303689","0.0-2.0-5.0-1.34","63d950327d82a384a24b606c","C3","batch3","","5586.100000008941","stim/yes_44_ver_w1_w.png","j","pattern_response","false","f","pattern_66","5586.100000008941","false","28","","","","","","","","","","","","","","","","","","",""
"","","","","","html-keyboard-response","91","305010","0.0-2.0-5.0-0.35","63d950327d82a384a24b606c","C3","batch3","","null","<p class=block-text>Trial 36 out of 78</p>","null","pattern_show_trial_num","","","","","","","","","","","","","","","","","","","","","","","","",""
"","","","","","image-keyboard-response","92","306140","0.0-2.0-5.0-1.35","63d950327d82a384a24b606c","C3","batch3","","1128.5","stim/yes_37_hor_w1_w.png","f","pattern_response","true","f","pattern_60","1128.5","true","29","","","","","","","","","","","","","","","","","","",""
"","","","","","html-keyboard-response","93","307454","0.0-2.0-5.0-0.36","63d950327d82a384a24b606c","C3","batch3","","null","<p class=block-text>Trial 37 out of 78</p>","null","pattern_show_trial_num","","","","","","","","","","","","","","","","","","","","","","","","",""
"","","","","","image-keyboard-response","94","313043","0.0-2.0-5.0-1.36","63d950327d82a384a24b606c","C3","batch3","","5588.29999999702","stim/no_51_1.png","j","pattern_response","true","j","pattern_31","5588.29999999702","true","30","","","","","","","","","","","","","","","","","","",""
"","","","","","html-keyboard-response","95","314362","0.0-2.0-5.0-0.37","63d950327d82a384a24b606c","C3","batch3","","null","<p class=block-text>Trial 38 out of 78</p>","null","pattern_show_trial_num","","","","","","","","","","","","","","","","","","","","","","","","",""
"","","","","","image-keyboard-response","96","317529","0.0-2.0-5.0-1.37","63d950327d82a384a24b606c","C3","batch3","","3163.7000000029802","stim/no_18_1_b.png","j","pattern_response","true","j","pattern_05","3163.7000000029802","true","31","","","","","","","","","","","","","","","","","","",""
"","","","","","html-keyboard-response","97","318845","0.0-2.0-5.0-0.38","63d950327d82a384a24b606c","C3","batch3","","null","<p class=block-text>Trial 39 out of 78</p>","null","pattern_show_trial_num","","","","","","","","","","","","","","","","","","","","","","","","",""
"","","","","","image-keyboard-response","98","322082","0.0-2.0-5.0-1.38","63d950327d82a384a24b606c","C3","batch3","","3235.0999999940395","stim/no_36_1_b.png","j","pattern_response","true","j","pattern_17","3235.0999999940395","true","32","","","","","","","","","","","","","","","","","","",""
"","","","","","image-keyboard-response","99","325026","0.0-2.0-6.0","63d950327d82a384a24b606c","C3","batch3","","2432.9000000059605","stim/empty_board.png","j","attention_check","true","j","","","","","500","[""f"",""j""]","","","","","","","","","","","","","","","","",""
"","","","","","html-keyboard-response","100","325831","0.0-2.0-7.0-0.0","63d950327d82a384a24b606c","C3","batch3","","null","<p class=block-text>Trial 40 out of 78</p>","null","pattern_show_trial_num","","","","","","","","","","","","","","","","","","","","","","","","",""
"","","","","","image-keyboard-response","101","331777","0.0-2.0-7.0-1.0","63d950327d82a384a24b606c","C3","batch3","","5944.0999999940395","stim/no_48_1_w.png","j","pattern_response","true","j","pattern_28","5944.0999999940395","true","33","","","","","","","","","","","","","","","","","","",""
"","","","","","html-keyboard-response","102","333093","0.0-2.0-7.0-0.1","63d950327d82a384a24b606c","C3","batch3","","null","<p class=block-text>Trial 41 out of 78</p>","null","pattern_show_trial_num","","","","","","","","","","","","","","","","","","","","","","","","",""
"","","","","","image-keyboard-response","103","337038","0.0-2.0-7.0-1.1","63d950327d82a384a24b606c","C3","batch3","","3943.7000000029802","stim/no_55_1_w.png","j","pattern_response","true","j","pattern_34","3943.7000000029802","true","34","","","","","","","","","","","","","","","","","","",""
"","","","","","html-keyboard-response","104","338354","0.0-2.0-7.0-0.2","63d950327d82a384a24b606c","C3","batch3","","null","<p class=block-text>Trial 42 out of 78</p>","null","pattern_show_trial_num","","","","","","","","","","","","","","","","","","","","","","","","",""
"","","","","","image-keyboard-response","105","341678","0.0-2.0-7.0-1.2","63d950327d82a384a24b606c","C3","batch3","","3321.6000000089407","stim/no_42_1_w.png","j","pattern_response","true","j","pattern_22","3321.6000000089407","true","35","","","","","","","","","","","","","","","","","","",""
"","","","","","html-keyboard-response","106","342992","0.0-2.0-7.0-0.3","63d950327d82a384a24b606c","C3","batch3","","null","<p class=block-text>Trial 43 out of 78</p>","null","pattern_show_trial_num","","","","","","","","","","","","","","","","","","","","","","","","",""
"","","","","","image-keyboard-response","107","344732","0.0-2.0-7.0-1.3","63d950327d82a384a24b606c","C3","batch3","","1738.2999999970198","stim/yes_43_ver_w1_w.png","f","pattern_response","true","f","pattern_65","1738.2999999970198","true","36","","","","","","","","","","","","","","","","","","",""
"","","","","","html-keyboard-response","108","346047","0.0-2.0-7.0-0.4","63d950327d82a384a24b606c","C3","batch3","","null","<p class=block-text>Trial 44 out of 78</p>","null","pattern_show_trial_num","","","","","","","","","","","","","","","","","","","","","","","","",""
"","","","","","image-keyboard-response","109","349626","0.0-2.0-7.0-1.4","63d950327d82a384a24b606c","C3","batch3","","3577","stim/yes_37_dia_w1.png","j","pattern_response","false","f","pattern_59","3577","false","36","","","","","","","","","","","","","","","","","","",""
"","","","","","html-keyboard-response","110","350943","0.0-2.0-7.0-0.5","63d950327d82a384a24b606c","C3","batch3","","null","<p class=block-text>Trial 45 out of 78</p>","null","pattern_show_trial_num","","","","","","","","","","","","","","","","","","","","","","","","",""
"","","","","","image-keyboard-response","111","355464","0.0-2.0-7.0-1.5","63d950327d82a384a24b606c","C3","batch3","","4519.5999999940395","stim/no_50_1.png","j","pattern_response","true","j","pattern_30","4519.5999999940395","true","37","","","","","","","","","","","","","","","","","","",""
"","","","","","html-keyboard-response","112","356779","0.0-2.0-7.0-0.6","63d950327d82a384a24b606c","C3","batch3","","null","<p class=block-text>Trial 46 out of 78</p>","null","pattern_show_trial_num","","","","","","","","","","","","","","","","","","","","","","","","",""
"","","","","","image-keyboard-response","113","363131","0.0-2.0-7.0-1.6","63d950327d82a384a24b606c","C3","batch3","","6350","stim/no_70_2.png","j","pattern_response","true","j","pattern_40","6350","true","38","","","","","","","","","","","","","","","","","","",""
"","","","","","html-keyboard-response","114","364447","0.0-2.0-7.0-0.7","63d950327d82a384a24b606c","C3","batch3","","null","<p class=block-text>Trial 47 out of 78</p>","null","pattern_show_trial_num","","","","","","","","","","","","","","","","","","","","","","","","",""
"","","","","","image-keyboard-response","115","368663","0.0-2.0-7.0-1.7","63d950327d82a384a24b606c","C3","batch3","","4214.5","stim/no_26_1_w.png","j","pattern_response","true","j","pattern_10","4214.5","true","39","","","","","","","","","","","","","","","","","","",""
"","","","","","html-keyboard-response","116","369979","0.0-2.0-7.0-0.8","63d950327d82a384a24b606c","C3","batch3","","null","<p class=block-text>Trial 48 out of 78</p>","null","pattern_show_trial_num","","","","","","","","","","","","","","","","","","","","","","","","",""
"","","","","","image-keyboard-response","117","370943","0.0-2.0-7.0-1.8","63d950327d82a384a24b606c","C3","batch3","","962.7999999970198","stim/yes_14_hor_b1_w.png","f","pattern_response","true","f","pattern_43","962.7999999970198","true","40","","","","","","","","","","","","","","","","","","",""
"","","","","","html-keyboard-response","118","372258","0.0-2.0-7.0-0.9","63d950327d82a384a24b606c","C3","batch3","","null","<p class=block-text>Trial 49 out of 78</p>","null","pattern_show_trial_num","","","","","","","","","","","","","","","","","","","","","","","","",""
"","","","","","image-keyboard-response","119","373414","0.0-2.0-7.0-1.9","63d950327d82a384a24b606c","C3","batch3","","1155.0999999940395","stim/yes_67_hor_b1.png","f","pattern_response","true","f","pattern_79","1155.0999999940395","true","41","","","","","","","","","","","","","","","","","","",""
"","","","","","html-keyboard-response","120","374726","0.0-2.0-7.0-0.10","63d950327d82a384a24b606c","C3","batch3","","null","<p class=block-text>Trial 50 out of 78</p>","null","pattern_show_trial_num","","","","","","","","","","","","","","","","","","","","","","","","",""
"","","","","","image-keyboard-response","121","375555","0.0-2.0-7.0-1.10","63d950327d82a384a24b606c","C3","batch3","","827.3999999910593","stim/yes_25_hor_b1_b.png","f","pattern_response","true","f","pattern_49","827.3999999910593","true","42","","","","","","","","","","","","","","","","","","",""
"","","","","","html-keyboard-response","122","376875","0.0-2.0-7.0-0.11","63d950327d82a384a24b606c","C3","batch3","","null","<p class=block-text>Trial 51 out of 78</p>","null","pattern_show_trial_num","","","","","","","","","","","","","","","","","","","","","","","","",""
"","","","","","image-keyboard-response","123","378194","0.0-2.0-7.0-1.11","63d950327d82a384a24b606c","C3","batch3","","1318","stim/yes_55_hor_w1_w.png","f","pattern_response","true","f","pattern_75","1318","true","43","","","","","","","","","","","","","","","","","","",""
"","","","","","html-keyboard-response","124","379515","0.0-2.0-7.0-0.12","63d950327d82a384a24b606c","C3","batch3","","null","<p class=block-text>Trial 52 out of 78</p>","null","pattern_show_trial_num","","","","","","","","","","","","","","","","","","","","","","","","",""
"","","","","","image-keyboard-response","125","380643","0.0-2.0-7.0-1.12","63d950327d82a384a24b606c","C3","batch3","","1127.199999988079","stim/yes_31_hor_b1.png","f","pattern_response","true","f","pattern_55","1127.199999988079","true","44","","","","","","","","","","","","","","","","","","",""
"","","","","","html-keyboard-response","126","381962","0.0-2.0-7.0-0.13","63d950327d82a384a24b606c","C3","batch3","","null","<p class=block-text>Trial 53 out of 78</p>","null","pattern_show_trial_num","","","","","","","","","","","","","","","","","","","","","","","","",""
"","","","","","image-keyboard-response","127","385388","0.0-2.0-7.0-1.13","63d950327d82a384a24b606c","C3","batch3","","3425.2000000029802","stim/no_32_1_w.png","j","pattern_response","true","j","pattern_14","3425.2000000029802","true","45","","","","","","","","","","","","","","","","","","",""
"","","","","","html-keyboard-response","128","386705","0.0-2.0-7.0-0.14","63d950327d82a384a24b606c","C3","batch3","","null","<p class=block-text>Trial 54 out of 78</p>","null","pattern_show_trial_num","","","","","","","","","","","","","","","","","","","","","","","","",""
"","","","","","image-keyboard-response","129","391644","0.0-2.0-7.0-1.14","63d950327d82a384a24b606c","C3","batch3","","4936.4000000059605","stim/no_62_1_w.png","j","pattern_response","true","j","pattern_36","4936.4000000059605","true","46","","","","","","","","","","","","","","","","","","",""
"","","","","","html-keyboard-response","130","392960","0.0-2.0-7.0-0.15","63d950327d82a384a24b606c","C3","batch3","","null","<p class=block-text>Trial 55 out of 78</p>","null","pattern_show_trial_num","","","","","","","","","","","","","","","","","","","","","","","","",""
"","","","","","image-keyboard-response","131","396432","0.0-2.0-7.0-1.15","63d950327d82a384a24b606c","C3","batch3","","3470.300000011921","stim/yes_50_dia_w1.png","j","pattern_response","false","f","pattern_71","3470.300000011921","false","46","","","","","","","","","","","","","","","","","","",""
"","","","","","html-keyboard-response","132","397745","0.0-2.0-7.0-0.16","63d950327d82a384a24b606c","C3","batch3","","null","<p class=block-text>Trial 56 out of 78</p>","null","pattern_show_trial_num","","","","","","","","","","","","","","","","","","","","","","","","",""
"","","","","","image-keyboard-response","133","401098","0.0-2.0-7.0-1.16","63d950327d82a384a24b606c","C3","batch3","","3351.5999999940395","stim/yes_35_dia_b1.png","f","pattern_response","true","f","pattern_57","3351.5999999940395","true","47","","","","","","","","","","","","","","","","","","",""
"","","","","","html-keyboard-response","134","402409","0.0-2.0-7.0-0.17","63d950327d82a384a24b606c","C3","batch3","","null","<p class=block-text>Trial 57 out of 78</p>","null","pattern_show_trial_num","","","","","","","","","","","","","","","","","","","","","","","","",""
"","","","","","image-keyboard-response","135","406332","0.0-2.0-7.0-1.17","63d950327d82a384a24b606c","C3","batch3","","3921.1000000089407","stim/no_34_1_b.png","j","pattern_response","true","j","pattern_16","3921.1000000089407","true","48","","","","","","","","","","","","","","","","","","",""
"","","","","","html-keyboard-response","136","407652","0.0-2.0-7.0-0.18","63d950327d82a384a24b606c","C3","batch3","","null","<p class=block-text>Trial 58 out of 78</p>","null","pattern_show_trial_num","","","","","","","","","","","","","","","","","","","","","","","","",""
"","","","","","image-keyboard-response","137","412492","0.0-2.0-7.0-1.18","63d950327d82a384a24b606c","C3","batch3","","4838","stim/no_44_1.png","j","pattern_response","true","j","pattern_24","4838","true","49","","","","","","","","","","","","","","","","","","",""
"","","","","","html-keyboard-response","138","413812","0.0-2.0-7.0-0.19","63d950327d82a384a24b606c","C3","batch3","","null","<p class=block-text>Trial 59 out of 78</p>","null","pattern_show_trial_num","","","","","","","","","","","","","","","","","","","","","","","","",""
"","","","","","image-keyboard-response","139","416965","0.0-2.0-7.0-1.19","63d950327d82a384a24b606c","C3","batch3","","3151.5","stim/no_29_1_b.png","j","pattern_response","true","j","pattern_12","3151.5","true","50","","","","","","","","","","","","","","","","","","",""
"","","","","","html-keyboard-response","140","418284","0.0-2.0-7.0-0.20","63d950327d82a384a24b606c","C3","batch3","","null","<p class=block-text>Trial 60 out of 78</p>","null","pattern_show_trial_num","","","","","","","","","","","","","","","","","","","","","","","","",""
"","","","","","image-keyboard-response","141","419326","0.0-2.0-7.0-1.20","63d950327d82a384a24b606c","C3","batch3","","1040.5","stim/yes_17_dia_w1.png","f","pattern_response","true","f","pattern_45","1040.5","true","51","","","","","","","","","","","","","","","","","","",""
"","","","","","html-keyboard-response","142","420639","0.0-2.0-7.0-0.21","63d950327d82a384a24b606c","C3","batch3","","null","<p class=block-text>Trial 61 out of 78</p>","null","pattern_show_trial_num","","","","","","","","","","","","","","","","","","","","","","","","",""
"","","","","","image-keyboard-response","143","426120","0.0-2.0-7.0-1.21","63d950327d82a384a24b606c","C3","batch3","","5479.4000000059605","stim/no_52_1.png","j","pattern_response","true","j","pattern_32","5479.4000000059605","true","52","","","","","","","","","","","","","","","","","","",""
"","","","","","html-keyboard-response","144","427434","0.0-2.0-7.0-0.22","63d950327d82a384a24b606c","C3","batch3","","null","<p class=block-text>Trial 62 out of 78</p>","null","pattern_show_trial_num","","","","","","","","","","","","","","","","","","","","","","","","",""
"","","","","","image-keyboard-response","145","431521","0.0-2.0-7.0-1.22","63d950327d82a384a24b606c","C3","batch3","","4085.9000000059605","stim/no_38_1_b.png","j","pattern_response","true","j","pattern_20","4085.9000000059605","true","53","","","","","","","","","","","","","","","","","","",""
"","","","","","html-keyboard-response","146","432832","0.0-2.0-7.0-0.23","63d950327d82a384a24b606c","C3","batch3","","null","<p class=block-text>Trial 63 out of 78</p>","null","pattern_show_trial_num","","","","","","","","","","","","","","","","","","","","","","","","",""
"","","","","","image-keyboard-response","147","434182","0.0-2.0-7.0-1.23","63d950327d82a384a24b606c","C3","batch3","","1348.5999999940395","stim/yes_22_ver_w1.png","f","pattern_response","true","f","pattern_47","1348.5999999940395","true","54","","","","","","","","","","","","","","","","","","",""
"","","","","","html-keyboard-response","148","435495","0.0-2.0-7.0-0.24","63d950327d82a384a24b606c","C3","batch3","","null","<p class=block-text>Trial 64 out of 78</p>","null","pattern_show_trial_num","","","","","","","","","","","","","","","","","","","","","","","","",""
"","","","","","image-keyboard-response","149","436751","0.0-2.0-7.0-1.24","63d950327d82a384a24b606c","C3","batch3","","1254.5","stim/yes_38_hor_b1_b.png","f","pattern_response","true","f","pattern_61","1254.5","true","55","","","","","","","","","","","","","","","","","","",""
"","","","","","html-keyboard-response","150","438065","0.0-2.0-7.0-0.25","63d950327d82a384a24b606c","C3","batch3","","null","<p class=block-text>Trial 65 out of 78</p>","null","pattern_show_trial_num","","","","","","","","","","","","","","","","","","","","","","","","",""
"","","","","","image-keyboard-response","151","439856","0.0-2.0-7.0-1.25","63d950327d82a384a24b606c","C3","batch3","","1789.7000000029802","stim/yes_45_hor_b2_b.png","f","pattern_response","true","f","pattern_67","1789.7000000029802","true","56","","","","","","","","","","","","","","","","","","",""
"","","","","","html-keyboard-response","152","441172","0.0-2.0-7.0-0.26","63d950327d82a384a24b606c","C3","batch3","","null","<p class=block-text>Trial 66 out of 78</p>","null","pattern_show_trial_num","","","","","","","","","","","","","","","","","","","","","","","","",""
"","","","","","image-keyboard-response","153","445426","0.0-2.0-7.0-1.26","63d950327d82a384a24b606c","C3","batch3","","4252.29999999702","stim/no_65_1_b.png","j","pattern_response","true","j","pattern_38","4252.29999999702","true","57","","","","","","","","","","","","","","","","","","",""
"","","","","","html-keyboard-response","154","446740","0.0-2.0-7.0-0.27","63d950327d82a384a24b606c","C3","batch3","","null","<p class=block-text>Trial 67 out of 78</p>","null","pattern_show_trial_num","","","","","","","","","","","","","","","","","","","","","","","","",""
"","","","","","image-keyboard-response","155","451090","0.0-2.0-7.0-1.27","63d950327d82a384a24b606c","C3","batch3","","4348.199999988079","stim/yes_40_dia_b1_b.png","j","pattern_response","false","f","pattern_63","4348.199999988079","false","57","","","","","","","","","","","","","","","","","","",""
"","","","","","html-keyboard-response","156","452404","0.0-2.0-7.0-0.28","63d950327d82a384a24b606c","C3","batch3","","null","<p class=block-text>Trial 68 out of 78</p>","null","pattern_show_trial_num","","","","","","","","","","","","","","","","","","","","","","","","",""
"","","","","","image-keyboard-response","157","453567","0.0-2.0-7.0-1.28","63d950327d82a384a24b606c","C3","batch3","","1161.8999999910593","stim/yes_52_ver_w1.png","f","pattern_response","true","f","pattern_73","1161.8999999910593","true","58","","","","","","","","","","","","","","","","","","",""
"","","","","","html-keyboard-response","158","454882","0.0-2.0-7.0-0.29","63d950327d82a384a24b606c","C3","batch3","","null","<p class=block-text>Trial 69 out of 78</p>","null","pattern_show_trial_num","","","","","","","","","","","","","","","","","","","","","","","","",""
"","","","","","image-keyboard-response","159","457642","0.0-2.0-7.0-1.29","63d950327d82a384a24b606c","C3","batch3","","2758.2000000029802","stim/no_13_2_b.png","j","pattern_response","true","j","pattern_02","2758.2000000029802","true","59","","","","","","","","","","","","","","","","","","",""
"","","","","","html-keyboard-response","160","458956","0.0-2.0-7.0-0.30","63d950327d82a384a24b606c","C3","batch3","","null","<p class=block-text>Trial 70 out of 78</p>","null","pattern_show_trial_num","","","","","","","","","","","","","","","","","","","","","","","","",""
"","","","","","image-keyboard-response","161","463952","0.0-2.0-7.0-1.30","63d950327d82a384a24b606c","C3","batch3","","4994","stim/yes_60_ver_b1_b.png","j","pattern_response","false","f","pattern_77","4994","false","59","","","","","","","","","","","","","","","","","","",""
"","","","","","html-keyboard-response","162","465268","0.0-2.0-7.0-0.31","63d950327d82a384a24b606c","C3","batch3","","null","<p class=block-text>Trial 71 out of 78</p>","null","pattern_show_trial_num","","","","","","","","","","","","","","","","","","","","","","","","",""
"","","","","","image-keyboard-response","163","466534","0.0-2.0-7.0-1.31","63d950327d82a384a24b606c","C3","batch3","","1264.4000000059605","stim/yes_29_ver_w1.png","f","pattern_response","true","f","pattern_53","1264.4000000059605","true","60","","","","","","","","","","","","","","","","","","",""
"","","","","","html-keyboard-response","164","467853","0.0-2.0-7.0-0.32","63d950327d82a384a24b606c","C3","batch3","","null","<p class=block-text>Trial 72 out of 78</p>","null","pattern_show_trial_num","","","","","","","","","","","","","","","","","","","","","","","","",""
"","","","","","image-keyboard-response","165","468902","0.0-2.0-7.0-1.32","63d950327d82a384a24b606c","C3","batch3","","1047.8999999910593","stim/yes_28_ver_b1.png","f","pattern_response","true","f","pattern_51","1047.8999999910593","true","61","","","","","","","","","","","","","","","","","","",""
"","","","","","html-keyboard-response","166","470221","0.0-2.0-7.0-0.33","63d950327d82a384a24b606c","C3","batch3","","null","<p class=block-text>Trial 73 out of 78</p>","null","pattern_show_trial_num","","","","","","","","","","","","","","","","","","","","","","","","",""
"","","","","","image-keyboard-response","167","472904","0.0-2.0-7.0-1.33","63d950327d82a384a24b606c","C3","batch3","","2682","stim/no_17_1_w.png","j","pattern_response","true","j","pattern_04","2682","true","62","","","","","","","","","","","","","","","","","","",""
"","","","","","html-keyboard-response","168","474221","0.0-2.0-7.0-0.34","63d950327d82a384a24b606c","C3","batch3","","null","<p class=block-text>Trial 74 out of 78</p>","null","pattern_show_trial_num","","","","","","","","","","","","","","","","","","","","","","","","",""
"","","","","","image-keyboard-response","169","477209","0.0-2.0-7.0-1.34","63d950327d82a384a24b606c","C3","batch3","","2986.0999999940395","stim/no_20_1_w.png","j","pattern_response","true","j","pattern_06","2986.0999999940395","true","63","","","","","","","","","","","","","","","","","","",""
"","","","","","html-keyboard-response","170","478525","0.0-2.0-7.0-0.35","63d950327d82a384a24b606c","C3","batch3","","null","<p class=block-text>Trial 75 out of 78</p>","null","pattern_show_trial_num","","","","","","","","","","","","","","","","","","","","","","","","",""
"","","","","","image-keyboard-response","171","483789","0.0-2.0-7.0-1.35","63d950327d82a384a24b606c","C3","batch3","","5262.4000000059605","stim/no_36_2_w.png","j","pattern_response","true","j","pattern_18","5262.4000000059605","true","64","","","","","","","","","","","","","","","","","","",""
"","","","","","html-keyboard-response","172","485108","0.0-2.0-7.0-0.36","63d950327d82a384a24b606c","C3","batch3","","null","<p class=block-text>Trial 76 out of 78</p>","null","pattern_show_trial_num","","","","","","","","","","","","","","","","","","","","","","","","",""
"","","","","","image-keyboard-response","173","488959","0.0-2.0-7.0-1.36","63d950327d82a384a24b606c","C3","batch3","","3849.2000000029802","stim/yes_48_dia_w1_w.png","j","pattern_response","false","f","pattern_69","3849.2000000029802","false","64","","","","","","","","","","","","","","","","","","",""
"","","","","","html-keyboard-response","174","490276","0.0-2.0-7.0-0.37","63d950327d82a384a24b606c","C3","batch3","","null","<p class=block-text>Trial 77 out of 78</p>","null","pattern_show_trial_num","","","","","","","","","","","","","","","","","","","","","","","","",""
"","","","","","image-keyboard-response","175","492862","0.0-2.0-7.0-1.37","63d950327d82a384a24b606c","C3","batch3","","2583.5999999940395","stim/no_23_1.png","j","pattern_response","true","j","pattern_08","2583.5999999940395","true","65","","","","","","","","","","","","","","","","","","",""
"","","","","","html-keyboard-response","176","494177","0.0-2.0-7.0-0.38","63d950327d82a384a24b606c","C3","batch3","","null","<p class=block-text>Trial 78 out of 78</p>","null","pattern_show_trial_num","","","","","","","","","","","","","","","","","","","","","","","","",""
"","","","","","image-keyboard-response","177","497971","0.0-2.0-7.0-1.38","63d950327d82a384a24b606c","C3","batch3","","3792.5999999940395","stim/no_46_1_b.png","j","pattern_response","true","j","pattern_26","3792.5999999940395","true","66","","","","","","","","","","","","","","","","","","",""
"","","","","","html-button-response","178","503728","0.0-2.0-8.0","63d950327d82a384a24b606c","C3","batch3","","5249.29999999702","<p class = block-text>This concludes the 4-in-a-row detection game.Thank you for your responses!<br>
            You responded correctly on 85% of the trials.<br>
            When you are ready, press ""Continue"" button to continue </p>","0","","","","","","","","","","","","","","","","","","","","","","","","","",""
"true","","","","","fullscreen","179","554515","0.0-3.0-0.0","63d950327d82a384a24b606c","C3","batch3","","","","","","","","","","","","","","","","","","","","","","","","","","","","","",""
"","","","","","instructions","180","672771","0.0-3.0-1.0-0.0-0.0","63d950327d82a384a24b606c","C3","batch3","[{""page_index"":0,""viewing_time"":27307.69999998808},{""page_index"":1,""viewing_time"":8404.40000000596},{""page_index"":2,""viewing_time"":8747.70000000298},{""page_index"":3,""viewing_time"":22301.70000000298},{""page_index"":4,""viewing_time"":12879.59999999404},{""page_index"":5,""viewing_time"":31014.40000000596},{""page_index"":6,""viewing_time"":7597.199999988079}]","118252.89999999106","","","tol-instructions","","","","","","","","","","","","","","","","","","","","","","","","",""
"","","","","","html-button-response","181","674264","0.0-3.0-1.0-1.0-0.0","63d950327d82a384a24b606c","C3","batch3","","1493","<p class=block-text> Let's answer a few questions <br>","0","tol_enter_quiz","","","","","","","","","","","","","","","","","","","","","","","","",""
"","","","","","html-button-response","182","677794","0.0-3.0-1.0-1.0-1.0","63d950327d82a384a24b606c","C3","batch3","","3526.5","<p class = block-text>True or False: You can only move the ball on top of a peg. <br></p>","0","tol_quiz","true","","","","","","","","","","","","","","","","","","","","","","","",""
"","","","","","html-button-response","183","679869","0.0-3.0-1.0-1.0-2.0","63d950327d82a384a24b606c","C3","batch3","","2074.4000000059605","<p class = block-text>Correct! You can only move the ball on top of a peg.</p>","0","tol_quiz_feedback","","","","","","","","","","","","","","","","","","","","","","","","",""
"","","","","","html-button-response","184","683333","0.0-3.0-1.0-1.0-3.0","63d950327d82a384a24b606c","C3","batch3","","3462.5999999940395","<p class = block-text>True or False: You should try to match your board with the target board with fewest moves possible. <br></p>","0","tol_quiz","true","","","","","","","","","","","","","","","","","","","","","","","",""
"","","","","","html-button-response","185","684633","0.0-3.0-1.0-1.0-4.0","63d950327d82a384a24b606c","C3","batch3","","1299.2000000029802","<p class = block-text>Correct! </p>","0","tol_quiz_feedback","","","","","","","","","","","","","","","","","","","","","","","","",""
"","","","","","html-button-response","186","688226","0.0-3.0-2.0","63d950327d82a384a24b606c","C3","batch3","","3591.7000000029802","<p class=block-text> Now that you've understood the game, let's practice a few easier examples before we start!<br> <br>","0","","","","","","","","","","","","","","","","","","","","","","","","","",""
"","","","","","single-stim-button","187","692818","0.0-3.0-3.0-0.0","63d950327d82a384a24b606c","C3","batch3","","4591","","","tol_practice","","","","","","","","","tol_peg_2","4591","4591","0","[[1,2,0],[0,0],[0]]","1","[[1,2,0],[0,0],[3]]","practice","4591","","","","","","","",""
"","","","","","single-stim-button","188","694547","0.0-3.0-3.0-1.0","63d950327d82a384a24b606c","C3","batch3","","1728","","","tol_practice","","","","","","","","","tol_peg_3","1728","1728","0","[[1,2,0],[0,0],[3]]","1","[[1,2,0],[0,0],[3]]","practice","1728","","","","","","","",""
"","","","","","poldrack-single-stim","189","695561","0.0-3.0-4.0","63d950327d82a384a24b606c","C3","batch3","","-1","","","tol_feedback","true","","","","","","","","","1000","1000","500","","","","","","-1","none","true","","0","","",""
"","","","","","single-stim-button","190","701669","0.0-3.0-5.0-0.0","63d950327d82a384a24b606c","C3","batch3","","6107","","","tol_practice","","","","","","","","","tol_peg_1","6107","6107","0","[[1,0,0],[3,0],[0]]","2","[[0,0,0],[3,1],[2]]","practice","6107","","","","","","","",""
"","","","","","single-stim-button","191","717656","0.0-3.0-5.0-1.0","63d950327d82a384a24b606c","C3","batch3","","15986","","","tol_practice","","","","","","","","","tol_peg_1","15986","15986","0","[[1,2,0],[3,0],[0]]","2","[[0,0,0],[3,1],[2]]","practice","15986","","","","","","","",""
"","","","","","single-stim-button","192","719214","0.0-3.0-5.1-0.1","63d950327d82a384a24b606c","C3","batch3","","1558","","","tol_practice","","","","","","","","","tol_peg_1","1558","1558","0","[[1,0,0],[3,0],[0]]","3","[[0,0,0],[3,1],[2]]","practice","1558","","","","","","","",""
"","","","","","single-stim-button","193","722669","0.0-3.0-5.1-1.1","63d950327d82a384a24b606c","C3","batch3","","3454","","","tol_practice","","","","","","","","","tol_peg_3","3454","3454","0","[[1,0,0],[3,0],[2]]","3","[[0,0,0],[3,1],[2]]","practice","3454","","","","","","","",""
"","","","","","single-stim-button","194","725786","0.0-3.0-5.2-0.2","63d950327d82a384a24b606c","C3","batch3","","3116","","","tol_practice","","","","","","","","","tol_peg_1","3116","3116","0","[[0,0,0],[3,0],[2]]","4","[[0,0,0],[3,1],[2]]","practice","3116","","","","","","","",""
"","","","","","single-stim-button","195","728152","0.0-3.0-5.2-1.2","63d950327d82a384a24b606c","C3","batch3","","2364","","","tol_practice","","","","","","","","","tol_peg_2","2364","2364","0","[[0,0,0],[3,1],[2]]","4","[[0,0,0],[3,1],[2]]","practice","2364","","","","","","","",""
"","","","","","poldrack-single-stim","196","729161","0.0-3.0-6.0","63d950327d82a384a24b606c","C3","batch3","","-1","","","tol_feedback","true","","","","","","","","","1000","1000","500","","","","","","-1","none","true","","0","","",""
"","","","","","single-stim-button","197","739164","0.0-3.0-7.0-0.0","63d950327d82a384a24b606c","C3","batch3","","10002","","","tol_practice","","","","","","","","","tol_peg_2","10002","10002","0","[[1,2,0],[0,0],[0]]","5","[[1,0,0],[2,0],[3]]","practice","10002","","","","","","","",""
"","","","","","single-stim-button","198","740659","0.0-3.0-7.0-1.0","63d950327d82a384a24b606c","C3","batch3","","1493","","","tol_practice","","","","","","","","","tol_peg_3","1493","1493","0","[[1,2,0],[0,0],[3]]","5","[[1,0,0],[2,0],[3]]","practice","1493","","","","","","","",""
"","","","","","single-stim-button","199","743460","0.0-3.0-7.1-0.1","63d950327d82a384a24b606c","C3","batch3","","2801","","","tol_practice","","","","","","","","","tol_peg_1","2801","2801","0","[[1,0,0],[0,0],[3]]","6","[[1,0,0],[2,0],[3]]","practice","2801","","","","","","","",""
"","","","","","single-stim-button","200","747650","0.0-3.0-7.1-1.1","63d950327d82a384a24b606c","C3","batch3","","4189","","","tol_practice","","","","","","","","","tol_peg_2","4189","4189","0","[[1,0,0],[2,0],[3]]","6","[[1,0,0],[2,0],[3]]","practice","4189","","","","","","","",""
"","","","","","poldrack-single-stim","201","748656","0.0-3.0-8.0","63d950327d82a384a24b606c","C3","batch3","","-1","","","tol_feedback","true","","","","","","","","","1000","1000","500","","","","","","-1","none","true","","0","","",""
"","","","","","html-button-response","202","752196","0.0-3.0-9.0","63d950327d82a384a24b606c","C3","batch3","","3538.7999999970198","<div class = centerbox><p class = center-block-text>Great job! You are done with practice trials<br>You are about to start official trials.<br> <br> Problem <strong>1</strong> out of 25 problems</p></div>","0","tol_instruction","","","","","","","","","","","","","","","","","","","","","","","","",""
"","","","","","single-stim-button","203","761740","0.0-3.0-10.0-0.0","63d950327d82a384a24b606c","C3","batch3","","8534","","","tol_tohand","","","","","","","","","tol_peg_1","8534","8534","0","[[1,0,0],[3,0],[0]]","1","[[1,3,0],[2,0],[0]]","0","0","","","","","","3","",""
"","","","","","single-stim-button","204","764251","0.0-3.0-10.0-1.0","63d950327d82a384a24b606c","C3","batch3","","2510","","","tol_toboard","","","","","","","","","tol_peg_2","2510","2510","0","[[1,0,0],[3,2],[0]]","1","[[1,3,0],[2,0],[0]]","0","0","","","","","","3","",""
"","","","","","single-stim-button","205","764930","0.0-3.0-10.1-0.1","63d950327d82a384a24b606c","C3","batch3","","677","","","tol_tohand","","","","","","","","","tol_peg_2","677","677","0","[[1,0,0],[3,0],[0]]","2","[[1,3,0],[2,0],[0]]","0","0","","","","","","3","",""
"","","","","","single-stim-button","206","767142","0.0-3.0-10.1-1.1","63d950327d82a384a24b606c","C3","batch3","","2212","","","tol_toboard","","","","","","","","","tol_peg_1","2212","2212","0","[[1,2,0],[3,0],[0]]","2","[[1,3,0],[2,0],[0]]","0","0","","","","","","3","",""
"","","","","","single-stim-button","207","767796","0.0-3.0-10.2-0.2","63d950327d82a384a24b606c","C3","batch3","","654","","","tol_tohand","","","","","","","","","tol_peg_1","654","654","0","[[1,0,0],[3,0],[0]]","3","[[1,3,0],[2,0],[0]]","0","0","","","","","","3","",""
"","","","","","single-stim-button","208","772763","0.0-3.0-10.2-1.2","63d950327d82a384a24b606c","C3","batch3","","4966","","","tol_toboard","","","","","","","","","tol_peg_3","4966","4966","0","[[1,0,0],[3,0],[2]]","3","[[1,3,0],[2,0],[0]]","0","0","","","","","","3","",""
"","","","","","single-stim-button","209","774934","0.0-3.0-10.3-0.3","63d950327d82a384a24b606c","C3","batch3","","2171","","","tol_tohand","","","","","","","","","tol_peg_2","2171","2171","0","[[1,0,0],[0,0],[2]]","4","[[1,3,0],[2,0],[0]]","0","0","","","","","","3","",""
"","","","","","single-stim-button","210","776436","0.0-3.0-10.3-1.3","63d950327d82a384a24b606c","C3","batch3","","1501","","","tol_toboard","","","","","","","","","tol_peg_1","1501","1501","0","[[1,3,0],[0,0],[2]]","4","[[1,3,0],[2,0],[0]]","0","0","","","","","","3","",""
"","","","","","single-stim-button","211","777938","0.0-3.0-10.4-0.4","63d950327d82a384a24b606c","C3","batch3","","1501","","","tol_tohand","","","","","","","","","tol_peg_3","1501","1501","0","[[1,3,0],[0,0],[0]]","5","[[1,3,0],[2,0],[0]]","0","0","","","","","","3","",""
"","","","","","single-stim-button","212","778851","0.0-3.0-10.4-1.4","63d950327d82a384a24b606c","C3","batch3","","912","","","tol_toboard","","","","","","","","","tol_peg_2","912","912","0","[[1,3,0],[2,0],[0]]","5","[[1,3,0],[2,0],[0]]","0","0","","","","","","3","",""
"","","","","","poldrack-single-stim","213","779857","0.0-3.0-11.0","63d950327d82a384a24b606c","C3","batch3","","-1","","","tol_feedback","true","","","","","","","","","1000","1000","500","","","","","","-1","none","true","8534","13537","","",""
"","","","","","html-button-response","214","781418","0.0-3.0-12.0","63d950327d82a384a24b606c","C3","batch3","","1559.9000000059605","<div class = centerbox><p class = center-block-text>problem <strong>2</strong> out of 25 problems</p></div>","0","tol_trial_num","","","","","","","","","","","","","","","","","","","","","","","","",""
"","","","","","single-stim-button","215","789369","0.0-3.0-13.0-0.0","63d950327d82a384a24b606c","C3","batch3","","7951","","","tol_tohand","","","","","","","","","tol_peg_1","7951","7951","0","[[1,0,0],[3,0],[0]]","1","[[2,1,3],[0,0],[0]]","1","0","","","","","","5","",""
"","","","","","single-stim-button","216","790629","0.0-3.0-13.0-1.0","63d950327d82a384a24b606c","C3","batch3","","1259","","","tol_toboard","","","","","","","","","tol_peg_3","1259","1259","0","[[1,0,0],[3,0],[2]]","1","[[2,1,3],[0,0],[0]]","1","0","","","","","","5","",""
"","","","","","single-stim-button","217","799285","0.0-3.0-13.1-0.1","63d950327d82a384a24b606c","C3","batch3","","8656","","","tol_tohand","","","","","","","","","tol_peg_1","8656","8656","0","[[0,0,0],[3,0],[2]]","2","[[2,1,3],[0,0],[0]]","1","0","","","","","","5","",""
"","","","","","single-stim-button","218","803186","0.0-3.0-13.1-1.1","63d950327d82a384a24b606c","C3","batch3","","3899","","","tol_toboard","","","","","","","","","tol_peg_2","3899","3899","0","[[0,0,0],[3,1],[2]]","2","[[2,1,3],[0,0],[0]]","1","0","","","","","","5","",""
"","","","","","single-stim-button","219","804421","0.0-3.0-13.2-0.2","63d950327d82a384a24b606c","C3","batch3","","1235","","","tol_tohand","","","","","","","","","tol_peg_3","1235","1235","0","[[0,0,0],[3,1],[0]]","3","[[2,1,3],[0,0],[0]]","1","0","","","","","","5","",""
"","","","","","single-stim-button","220","806327","0.0-3.0-13.2-1.2","63d950327d82a384a24b606c","C3","batch3","","1905","","","tol_toboard","","","","","","","","","tol_peg_1","1905","1905","0","[[2,0,0],[3,1],[0]]","3","[[2,1,3],[0,0],[0]]","1","0","","","","","","5","",""
"","","","","","single-stim-button","221","807327","0.0-3.0-13.3-0.3","63d950327d82a384a24b606c","C3","batch3","","1000","","","tol_tohand","","","","","","","","","tol_peg_2","1000","1000","0","[[2,0,0],[3,0],[0]]","4","[[2,1,3],[0,0],[0]]","1","0","","","","","","5","",""
"","","","","","single-stim-button","222","808208","0.0-3.0-13.3-1.3","63d950327d82a384a24b606c","C3","batch3","","879","","","tol_toboard","","","","","","","","","tol_peg_1","879","879","0","[[2,1,0],[3,0],[0]]","4","[[2,1,3],[0,0],[0]]","1","0","","","","","","5","",""
"","","","","","single-stim-button","223","809136","0.0-3.0-13.4-0.4","63d950327d82a384a24b606c","C3","batch3","","928","","","tol_tohand","","","","","","","","","tol_peg_2","928","928","0","[[2,1,0],[0,0],[0]]","5","[[2,1,3],[0,0],[0]]","1","0","","","","","","5","",""
"","","","","","single-stim-button","224","810065","0.0-3.0-13.4-1.4","63d950327d82a384a24b606c","C3","batch3","","928","","","tol_toboard","","","","","","","","","tol_peg_1","928","928","0","[[2,1,3],[0,0],[0]]","5","[[2,1,3],[0,0],[0]]","1","0","","","","","","5","",""
"","","","","","poldrack-single-stim","225","811069","0.0-3.0-14.0","63d950327d82a384a24b606c","C3","batch3","","-1","","","tol_feedback","true","","","","","","","","","1000","1000","500","","","","","","-1","none","true","7951","19770","","",""
"","","","","","html-button-response","226","812805","0.0-3.0-15.0","63d950327d82a384a24b606c","C3","batch3","","1735.0999999940395","<div class = centerbox><p class = center-block-text>problem <strong>3</strong> out of 25 problems</p></div>","0","tol_trial_num","","","","","","","","","","","","","","","","","","","","","","","","",""
"","","","","","single-stim-button","227","830356","0.0-3.0-16.0-0.0","63d950327d82a384a24b606c","C3","batch3","","17550","","","tol_tohand","","","","","","","","","tol_peg_1","17550","17550","0","[[2,0,0],[0,0],[1]]","1","[[1,2,0],[3,0],[0]]","2","0","","","","","","4","",""
"","","","","","single-stim-button","228","831478","0.0-3.0-16.0-1.0","63d950327d82a384a24b606c","C3","batch3","","1122","","","tol_toboard","","","","","","","","","tol_peg_2","1122","1122","0","[[2,0,0],[3,0],[1]]","1","[[1,2,0],[3,0],[0]]","2","0","","","","","","4","",""
"","","","","","single-stim-button","229","836823","0.0-3.0-16.1-0.1","63d950327d82a384a24b606c","C3","batch3","","5344","","","tol_tohand","","","","","","","","","tol_peg_1","5344","5344","0","[[0,0,0],[3,0],[1]]","2","[[1,2,0],[3,0],[0]]","2","0","","","","","","4","",""
"","","","","","single-stim-button","230","840133","0.0-3.0-16.1-1.1","63d950327d82a384a24b606c","C3","batch3","","3310","","","tol_toboard","","","","","","","","","tol_peg_2","3310","3310","0","[[0,0,0],[3,2],[1]]","2","[[1,2,0],[3,0],[0]]","2","0","","","","","","4","",""
"","","","","","single-stim-button","231","841118","0.0-3.0-16.2-0.2","63d950327d82a384a24b606c","C3","batch3","","984","","","tol_tohand","","","","","","","","","tol_peg_3","984","984","0","[[0,0,0],[3,2],[0]]","3","[[1,2,0],[3,0],[0]]","2","0","","","","","","4","",""
"","","","","","single-stim-button","232","843072","0.0-3.0-16.2-1.2","63d950327d82a384a24b606c","C3","batch3","","1953","","","tol_toboard","","","","","","","","","tol_peg_1","1953","1953","0","[[1,0,0],[3,2],[0]]","3","[[1,2,0],[3,0],[0]]","2","0","","","","","","4","",""
"","","","","","single-stim-button","233","845946","0.0-3.0-16.3-0.3","63d950327d82a384a24b606c","C3","batch3","","2874","","","tol_tohand","","","","","","","","","tol_peg_2","2874","2874","0","[[1,0,0],[3,0],[0]]","4","[[1,2,0],[3,0],[0]]","2","0","","","","","","4","",""
"","","","","","single-stim-button","234","847707","0.0-3.0-16.3-1.3","63d950327d82a384a24b606c","C3","batch3","","1760","","","tol_toboard","","","","","","","","","tol_peg_1","1760","1760","0","[[1,2,0],[3,0],[0]]","4","[[1,2,0],[3,0],[0]]","2","0","","","","","","4","",""
"","","","","","poldrack-single-stim","235","848714","0.0-3.0-17.0","63d950327d82a384a24b606c","C3","batch3","","-1","","","tol_feedback","true","","","","","","","","","1000","1000","500","","","","","","-1","none","true","17550","26752","","",""
"","","","","","html-button-response","236","850249","0.0-3.0-18.0","63d950327d82a384a24b606c","C3","batch3","","1534.4000000059605","<div class = centerbox><p class = center-block-text>problem <strong>4</strong> out of 25 problems</p></div>","0","tol_trial_num","","","","","","","","","","","","","","","","","","","","","","","","",""
"","","","","","single-stim-button","237","855118","0.0-3.0-19.0-0.0","63d950327d82a384a24b606c","C3","batch3","","4868","","","tol_tohand","","","","","","","","","tol_peg_2","4868","4868","0","[[3,0,0],[2,0],[0]]","1","[[3,0,0],[1,0],[2]]","3","0","","","","","","3","",""
"","","","","","single-stim-button","238","857290","0.0-3.0-19.0-1.0","63d950327d82a384a24b606c","C3","batch3","","2171","","","tol_toboard","","","","","","","","","tol_peg_3","2171","2171","0","[[3,0,0],[2,0],[1]]","1","[[3,0,0],[1,0],[2]]","3","0","","","","","","3","",""
"","","","","","single-stim-button","239","858331","0.0-3.0-19.1-0.1","63d950327d82a384a24b606c","C3","batch3","","1041","","","tol_tohand","","","","","","","","","tol_peg_2","1041","1041","0","[[3,0,0],[0,0],[1]]","2","[[3,0,0],[1,0],[2]]","3","0","","","","","","3","",""
"","","","","","single-stim-button","240","861166","0.0-3.0-19.1-1.1","63d950327d82a384a24b606c","C3","batch3","","2834","","","tol_toboard","","","","","","","","","tol_peg_1","2834","2834","0","[[3,2,0],[0,0],[1]]","2","[[3,0,0],[1,0],[2]]","3","0","","","","","","3","",""
"","","","","","single-stim-button","241","862135","0.0-3.0-19.2-0.2","63d950327d82a384a24b606c","C3","batch3","","968","","","tol_tohand","","","","","","","","","tol_peg_3","968","968","0","[[3,2,0],[0,0],[0]]","3","[[3,0,0],[1,0],[2]]","3","0","","","","","","3","",""
"","","","","","single-stim-button","242","863111","0.0-3.0-19.2-1.2","63d950327d82a384a24b606c","C3","batch3","","976","","","tol_toboard","","","","","","","","","tol_peg_2","976","976","0","[[3,2,0],[1,0],[0]]","3","[[3,0,0],[1,0],[2]]","3","0","","","","","","3","",""
"","","","","","single-stim-button","243","864040","0.0-3.0-19.3-0.3","63d950327d82a384a24b606c","C3","batch3","","928","","","tol_tohand","","","","","","","","","tol_peg_1","928","928","0","[[3,0,0],[1,0],[0]]","4","[[3,0,0],[1,0],[2]]","3","0","","","","","","3","",""
"","","","","","single-stim-button","244","868505","0.0-3.0-19.3-1.3","63d950327d82a384a24b606c","C3","batch3","","4465","","","tol_toboard","","","","","","","","","tol_peg_3","4465","4465","0","[[3,0,0],[1,0],[2]]","4","[[3,0,0],[1,0],[2]]","3","0","","","","","","3","",""
"","","","","","poldrack-single-stim","245","869513","0.0-3.0-20.0","63d950327d82a384a24b606c","C3","batch3","","-1","","","tol_feedback","true","","","","","","","","","1000","1000","500","","","","","","-1","none","true","4868","7805","","",""
"","","","","","html-button-response","246","870677","0.0-3.0-21.0","63d950327d82a384a24b606c","C3","batch3","","1163.2999999970198","<div class = centerbox><p class = center-block-text>problem <strong>5</strong> out of 25 problems</p></div>","0","tol_trial_num","","","","","","","","","","","","","","","","","","","","","","","","",""
"","","","","","single-stim-button","247","887015","0.0-3.0-22.0-0.0","63d950327d82a384a24b606c","C3","batch3","","16338","","","tol_tohand","","","","","","","","","tol_peg_1","16338","16338","0","[[0,0,0],[2,0],[3]]","1","[[0,0,0],[1,2],[3]]","4","0","","","","","","7","",""
"","","","","","single-stim-button","248","896821","0.0-3.0-22.0-1.0","63d950327d82a384a24b606c","C3","batch3","","9805","","","tol_toboard","","","","","","","","","tol_peg_2","9805","9805","0","[[0,0,0],[2,1],[3]]","1","[[0,0,0],[1,2],[3]]","4","0","","","","","","7","",""
"","","","","","single-stim-button","249","899937","0.0-3.0-22.1-0.1","63d950327d82a384a24b606c","C3","batch3","","3116","","","tol_tohand","","","","","","","","","tol_peg_3","3116","3116","0","[[0,0,0],[2,1],[0]]","2","[[0,0,0],[1,2],[3]]","4","0","","","","","","7","",""
"","","","","","single-stim-button","250","903264","0.0-3.0-22.1-1.1","63d950327d82a384a24b606c","C3","batch3","","3327","","","tol_toboard","","","","","","","","","tol_peg_3","3327","3327","0","[[0,0,0],[2,1],[3]]","2","[[0,0,0],[1,2],[3]]","4","0","","","","","","7","",""
"","","","","","single-stim-button","251","909949","0.0-3.0-22.2-0.2","63d950327d82a384a24b606c","C3","batch3","","6684","","","tol_tohand","","","","","","","","","tol_peg_3","6684","6684","0","[[0,0,0],[2,1],[0]]","3","[[0,0,0],[1,2],[3]]","4","0","","","","","","7","",""
"","","","","","single-stim-button","252","915772","0.0-3.0-22.2-1.2","63d950327d82a384a24b606c","C3","batch3","","5821","","","tol_toboard","","","","","","","","","tol_peg_1","5821","5821","0","[[3,0,0],[2,1],[0]]","3","[[0,0,0],[1,2],[3]]","4","0","","","","","","7","",""
"","","","","","single-stim-button","253","917410","0.0-3.0-22.3-0.3","63d950327d82a384a24b606c","C3","batch3","","1638","","","tol_tohand","","","","","","","","","tol_peg_2","1638","1638","0","[[3,0,0],[2,0],[0]]","4","[[0,0,0],[1,2],[3]]","4","0","","","","","","7","",""
"","","","","","single-stim-button","254","918459","0.0-3.0-22.3-1.3","63d950327d82a384a24b606c","C3","batch3","","1049","","","tol_toboard","","","","","","","","","tol_peg_3","1049","1049","0","[[3,0,0],[2,0],[1]]","4","[[0,0,0],[1,2],[3]]","4","0","","","","","","7","",""
"","","","","","single-stim-button","255","922553","0.0-3.0-22.4-0.4","63d950327d82a384a24b606c","C3","batch3","","4093","","","tol_tohand","","","","","","","","","tol_peg_2","4093","4093","0","[[3,0,0],[0,0],[1]]","5","[[0,0,0],[1,2],[3]]","4","0","","","","","","7","",""
"","","","","","single-stim-button","256","923498","0.0-3.0-22.4-1.4","63d950327d82a384a24b606c","C3","batch3","","944","","","tol_toboard","","","","","","","","","tol_peg_1","944","944","0","[[3,2,0],[0,0],[1]]","5","[[0,0,0],[1,2],[3]]","4","0","","","","","","7","",""
"","","","","","single-stim-button","257","925443","0.0-3.0-22.5-0.5","63d950327d82a384a24b606c","C3","batch3","","1945","","","tol_tohand","","","","","","","","","tol_peg_3","1945","1945","0","[[3,2,0],[0,0],[0]]","6","[[0,0,0],[1,2],[3]]","4","0","","","","","","7","",""
"","","","","","single-stim-button","258","926905","0.0-3.0-22.5-1.5","63d950327d82a384a24b606c","C3","batch3","","1461","","","tol_toboard","","","","","","","","","tol_peg_2","1461","1461","0","[[3,2,0],[1,0],[0]]","6","[[0,0,0],[1,2],[3]]","4","0","","","","","","7","",""
"","","","","","single-stim-button","259","928512","0.0-3.0-22.6-0.6","63d950327d82a384a24b606c","C3","batch3","","1607","","","tol_tohand","","","","","","","","","tol_peg_1","1607","1607","0","[[3,0,0],[1,0],[0]]","7","[[0,0,0],[1,2],[3]]","4","0","","","","","","7","",""
"","","","","","single-stim-button","260","929763","0.0-3.0-22.6-1.6","63d950327d82a384a24b606c","C3","batch3","","1250","","","tol_toboard","","","","","","","","","tol_peg_2","1250","1250","0","[[3,0,0],[1,2],[0]]","7","[[0,0,0],[1,2],[3]]","4","0","","","","","","7","",""
"","","","","","single-stim-button","261","930845","0.0-3.0-22.7-0.7","63d950327d82a384a24b606c","C3","batch3","","1081","","","tol_tohand","","","","","","","","","tol_peg_1","1081","1081","0","[[0,0,0],[1,2],[0]]","8","[[0,0,0],[1,2],[3]]","4","0","","","","","","7","",""
"","","","","","single-stim-button","262","931806","0.0-3.0-22.7-1.7","63d950327d82a384a24b606c","C3","batch3","","960","","","tol_toboard","","","","","","","","","tol_peg_3","960","960","0","[[0,0,0],[1,2],[3]]","8","[[0,0,0],[1,2],[3]]","4","0","","","","","","7","",""
"","","","","","poldrack-single-stim","263","932809","0.0-3.0-23.0","63d950327d82a384a24b606c","C3","batch3","","-1","","","tol_feedback","true","","","","","","","","","1000","1000","500","","","","","","-1","none","true","16338","36502","","",""
"","","","","","html-button-response","264","934713","0.0-3.0-24.0","63d950327d82a384a24b606c","C3","batch3","","1903.2999999970198","<div class = centerbox><p class = center-block-text>problem <strong>6</strong> out of 25 problems</p></div>","0","tol_trial_num","","","","","","","","","","","","","","","","","","","","","","","","",""
"","","","","","single-stim-button","265","949966","0.0-3.0-25.0-0.0","63d950327d82a384a24b606c","C3","batch3","","15253","","","tol_tohand","","","","","","","","","tol_peg_2","15253","15253","0","[[0,0,0],[1,0],[3]]","1","[[1,0,0],[2,3],[0]]","5","0","","","","","","6","",""
"","","","","","single-stim-button","266","959487","0.0-3.0-25.0-1.0","63d950327d82a384a24b606c","C3","batch3","","9520","","","tol_toboard","","","","","","","","","tol_peg_1","9520","9520","0","[[2,0,0],[1,0],[3]]","1","[[1,0,0],[2,3],[0]]","5","0","","","","","","6","",""
"","","","","","single-stim-button","267","972897","0.0-3.0-25.1-0.1","63d950327d82a384a24b606c","C3","batch3","","13410","","","tol_tohand","","","","","","","","","tol_peg_1","13410","13410","0","[[0,0,0],[1,0],[3]]","2","[[1,0,0],[2,3],[0]]","5","0","","","","","","6","",""
"","","","","","single-stim-button","268","986413","0.0-3.0-25.1-1.1","63d950327d82a384a24b606c","C3","batch3","","13516","","","tol_toboard","","","","","","","","","tol_peg_1","13516","13516","0","[[2,0,0],[1,0],[3]]","2","[[1,0,0],[2,3],[0]]","5","0","","","","","","6","",""
"","","","","","single-stim-button","269","987422","0.0-3.0-25.2-0.2","63d950327d82a384a24b606c","C3","batch3","","1008","","","tol_tohand","","","","","","","","","tol_peg_3","1008","1008","0","[[2,0,0],[1,0],[0]]","3","[[1,0,0],[2,3],[0]]","5","0","","","","","","6","",""
"","","","","","single-stim-button","270","988464","0.0-3.0-25.2-1.2","63d950327d82a384a24b606c","C3","batch3","","1042","","","tol_toboard","","","","","","","","","tol_peg_2","1042","1042","0","[[2,0,0],[1,3],[0]]","3","[[1,0,0],[2,3],[0]]","5","0","","","","","","6","",""
"","","","","","single-stim-button","271","991136","0.0-3.0-25.3-0.3","63d950327d82a384a24b606c","C3","batch3","","2672","","","tol_tohand","","","","","","","","","tol_peg_1","2672","2672","0","[[0,0,0],[1,3],[0]]","4","[[1,0,0],[2,3],[0]]","5","0","","","","","","6","",""
"","","","","","single-stim-button","272","994680","0.0-3.0-25.3-1.3","63d950327d82a384a24b606c","C3","batch3","","3543","","","tol_toboard","","","","","","","","","tol_peg_3","3543","3543","0","[[0,0,0],[1,3],[2]]","4","[[1,0,0],[2,3],[0]]","5","0","","","","","","6","",""
"","","","","","single-stim-button","273","999146","0.0-3.0-25.4-0.4","63d950327d82a384a24b606c","C3","batch3","","4465","","","tol_tohand","","","","","","","","","tol_peg_2","4465","4465","0","[[0,0,0],[1,0],[2]]","5","[[1,0,0],[2,3],[0]]","5","0","","","","","","6","",""
"","","","","","single-stim-button","274","1009900","0.0-3.0-25.4-1.4","63d950327d82a384a24b606c","C3","batch3","","10754","","","tol_toboard","","","","","","","","","tol_peg_2","10754","10754","0","[[0,0,0],[1,3],[2]]","5","[[1,0,0],[2,3],[0]]","5","0","","","","","","6","",""
"","","","","","single-stim-button","275","1010796","0.0-3.0-25.5-0.5","63d950327d82a384a24b606c","C3","batch3","","895","","","tol_tohand","","","","","","","","","tol_peg_2","895","895","0","[[0,0,0],[1,0],[2]]","6","[[1,0,0],[2,3],[0]]","5","0","","","","","","6","",""
"","","","","","single-stim-button","276","1014575","0.0-3.0-25.5-1.5","63d950327d82a384a24b606c","C3","batch3","","3779","","","tol_toboard","","","","","","","","","tol_peg_1","3779","3779","0","[[3,0,0],[1,0],[2]]","6","[[1,0,0],[2,3],[0]]","5","0","","","","","","6","",""
"","","","","","single-stim-button","277","1015875","0.0-3.0-25.6-0.6","63d950327d82a384a24b606c","C3","batch3","","1299","","","tol_tohand","","","","","","","","","tol_peg_3","1299","1299","0","[[3,0,0],[1,0],[0]]","7","[[1,0,0],[2,3],[0]]","5","0","","","","","","6","",""
"","","","","","single-stim-button","278","1017935","0.0-3.0-25.6-1.6","63d950327d82a384a24b606c","C3","batch3","","2058","","","tol_toboard","","","","","","","","","tol_peg_1","2058","2058","0","[[3,2,0],[1,0],[0]]","7","[[1,0,0],[2,3],[0]]","5","0","","","","","","6","",""
"","","","","","single-stim-button","279","1019679","0.0-3.0-25.7-0.7","63d950327d82a384a24b606c","C3","batch3","","1744","","","tol_tohand","","","","","","","","","tol_peg_2","1744","1744","0","[[3,2,0],[0,0],[0]]","8","[[1,0,0],[2,3],[0]]","5","0","","","","","","6","",""
"","","","","","single-stim-button","280","1020849","0.0-3.0-25.7-1.7","63d950327d82a384a24b606c","C3","batch3","","1170","","","tol_toboard","","","","","","","","","tol_peg_3","1170","1170","0","[[3,2,0],[0,0],[1]]","8","[[1,0,0],[2,3],[0]]","5","0","","","","","","6","",""
"","","","","","single-stim-button","281","1021794","0.0-3.0-25.8-0.8","63d950327d82a384a24b606c","C3","batch3","","945","","","tol_tohand","","","","","","","","","tol_peg_1","945","945","0","[[3,0,0],[0,0],[1]]","9","[[1,0,0],[2,3],[0]]","5","0","","","","","","6","",""
"","","","","","single-stim-button","282","1023288","0.0-3.0-25.8-1.8","63d950327d82a384a24b606c","C3","batch3","","1494","","","tol_toboard","","","","","","","","","tol_peg_2","1494","1494","0","[[3,0,0],[2,0],[1]]","9","[[1,0,0],[2,3],[0]]","5","0","","","","","","6","",""
"","","","","","single-stim-button","283","1025355","0.0-3.0-25.9-0.9","63d950327d82a384a24b606c","C3","batch3","","2067","","","tol_tohand","","","","","","","","","tol_peg_1","2067","2067","0","[[0,0,0],[2,0],[1]]","10","[[1,0,0],[2,3],[0]]","5","0","","","","","","6","",""
"","","","","","single-stim-button","284","1026348","0.0-3.0-25.9-1.9","63d950327d82a384a24b606c","C3","batch3","","992","","","tol_toboard","","","","","","","","","tol_peg_2","992","992","0","[[0,0,0],[2,3],[1]]","10","[[1,0,0],[2,3],[0]]","5","0","","","","","","6","",""
"","","","","","single-stim-button","285","1027228","0.0-3.0-25.10-0.10","63d950327d82a384a24b606c","C3","batch3","","879","","","tol_tohand","","","","","","","","","tol_peg_3","879","879","0","[[0,0,0],[2,3],[0]]","11","[[1,0,0],[2,3],[0]]","5","0","","","","","","6","",""
"","","","","","single-stim-button","286","1028270","0.0-3.0-25.10-1.10","63d950327d82a384a24b606c","C3","batch3","","1041","","","tol_toboard","","","","","","","","","tol_peg_1","1041","1041","0","[[1,0,0],[2,3],[0]]","11","[[1,0,0],[2,3],[0]]","5","0","","","","","","6","",""
"","","","","","poldrack-single-stim","287","1029276","0.0-3.0-26.0","63d950327d82a384a24b606c","C3","batch3","","-1","","","tol_feedback","true","","","","","","","","","1000","1000","500","","","","","","-1","none","true","15253","44637","","",""
"","","","","","html-button-response","288","1030555","0.0-3.0-27.0","63d950327d82a384a24b606c","C3","batch3","","1278.4000000059605","<div class = centerbox><p class = center-block-text>problem <strong>7</strong> out of 25 problems</p></div>","0","tol_trial_num","","","","","","","","","","","","","","","","","","","","","","","","",""
"","","","","","single-stim-button","289","1045153","0.0-3.0-28.0-0.0","63d950327d82a384a24b606c","C3","batch3","","14597","","","tol_tohand","","","","","","","","","tol_peg_1","14597","14597","0","[[2,0,0],[0,0],[3]]","1","[[1,2,0],[3,0],[0]]","6","0","","","","","","5","",""
"","","","","","single-stim-button","290","1056595","0.0-3.0-28.0-1.0","63d950327d82a384a24b606c","C3","batch3","","11441","","","tol_toboard","","","","","","","","","tol_peg_1","11441","11441","0","[[2,1,0],[0,0],[3]]","1","[[1,2,0],[3,0],[0]]","6","0","","","","","","5","",""
"","","","","","single-stim-button","291","1057514","0.0-3.0-28.1-0.1","63d950327d82a384a24b606c","C3","batch3","","919","","","tol_tohand","","","","","","","","","tol_peg_3","919","919","0","[[2,1,0],[0,0],[0]]","2","[[1,2,0],[3,0],[0]]","6","0","","","","","","5","",""
"","","","","","single-stim-button","292","1058217","0.0-3.0-28.1-1.1","63d950327d82a384a24b606c","C3","batch3","","702","","","tol_toboard","","","","","","","","","tol_peg_2","702","702","0","[[2,1,0],[3,0],[0]]","2","[[1,2,0],[3,0],[0]]","6","0","","","","","","5","",""
"","","","","","single-stim-button","293","1059089","0.0-3.0-28.2-0.2","63d950327d82a384a24b606c","C3","batch3","","871","","","tol_tohand","","","","","","","","","tol_peg_1","871","871","0","[[2,0,0],[3,0],[0]]","3","[[1,2,0],[3,0],[0]]","6","0","","","","","","5","",""
"","","","","","single-stim-button","294","1060672","0.0-3.0-28.2-1.2","63d950327d82a384a24b606c","C3","batch3","","1582","","","tol_toboard","","","","","","","","","tol_peg_3","1582","1582","0","[[2,0,0],[3,0],[1]]","3","[[1,2,0],[3,0],[0]]","6","0","","","","","","5","",""
"","","","","","single-stim-button","295","1061891","0.0-3.0-28.3-0.3","63d950327d82a384a24b606c","C3","batch3","","1219","","","tol_tohand","","","","","","","","","tol_peg_1","1219","1219","0","[[0,0,0],[3,0],[1]]","4","[[1,2,0],[3,0],[0]]","6","0","","","","","","5","",""
"","","","","","single-stim-button","296","1062714","0.0-3.0-28.3-1.3","63d950327d82a384a24b606c","C3","batch3","","823","","","tol_toboard","","","","","","","","","tol_peg_2","823","823","0","[[0,0,0],[3,2],[1]]","4","[[1,2,0],[3,0],[0]]","6","0","","","","","","5","",""
"","","","","","single-stim-button","297","1063449","0.0-3.0-28.4-0.4","63d950327d82a384a24b606c","C3","batch3","","734","","","tol_tohand","","","","","","","","","tol_peg_3","734","734","0","[[0,0,0],[3,2],[0]]","5","[[1,2,0],[3,0],[0]]","6","0","","","","","","5","",""
"","","","","","single-stim-button","298","1064652","0.0-3.0-28.4-1.4","63d950327d82a384a24b606c","C3","batch3","","1203","","","tol_toboard","","","","","","","","","tol_peg_1","1203","1203","0","[[1,0,0],[3,2],[0]]","5","[[1,2,0],[3,0],[0]]","6","0","","","","","","5","",""
"","","","","","single-stim-button","299","1065831","0.0-3.0-28.5-0.5","63d950327d82a384a24b606c","C3","batch3","","1178","","","tol_tohand","","","","","","","","","tol_peg_2","1178","1178","0","[[1,0,0],[3,0],[0]]","6","[[1,2,0],[3,0],[0]]","6","0","","","","","","5","",""
"","","","","","single-stim-button","300","1066695","0.0-3.0-28.5-1.5","63d950327d82a384a24b606c","C3","batch3","","864","","","tol_toboard","","","","","","","","","tol_peg_1","864","864","0","[[1,2,0],[3,0],[0]]","6","[[1,2,0],[3,0],[0]]","6","0","","","","","","5","",""
"","","","","","poldrack-single-stim","301","1067701","0.0-3.0-29.0","63d950327d82a384a24b606c","C3","batch3","","-1","","","tol_feedback","true","","","","","","","","","1000","1000","500","","","","","","-1","none","true","14597","19518","","",""
"","","","","","html-button-response","302","1069085","0.0-3.0-30.0","63d950327d82a384a24b606c","C3","batch3","","1382.800000011921","<div class = centerbox><p class = center-block-text>problem <strong>8</strong> out of 25 problems</p></div>","0","tol_trial_num","","","","","","","","","","","","","","","","","","","","","","","","",""
"","","","","","single-stim-button","303","1079032","0.0-3.0-31.0-0.0","63d950327d82a384a24b606c","C3","batch3","","9946","","","tol_tohand","","","","","","","","","tol_peg_3","9946","9946","0","[[0,0,0],[2,3],[0]]","1","[[1,2,0],[3,0],[0]]","7","0","","","","","","4","",""
"","","","","","single-stim-button","304","1080292","0.0-3.0-31.0-1.0","63d950327d82a384a24b606c","C3","batch3","","1259","","","tol_toboard","","","","","","","","","tol_peg_1","1259","1259","0","[[1,0,0],[2,3],[0]]","1","[[1,2,0],[3,0],[0]]","7","0","","","","","","4","",""
"","","","","","single-stim-button","305","1082149","0.0-3.0-31.1-0.1","63d950327d82a384a24b606c","C3","batch3","","1856","","","tol_tohand","","","","","","","","","tol_peg_2","1856","1856","0","[[1,0,0],[2,0],[0]]","2","[[1,2,0],[3,0],[0]]","7","0","","","","","","4","",""
"","","","","","single-stim-button","306","1083215","0.0-3.0-31.1-1.1","63d950327d82a384a24b606c","C3","batch3","","1066","","","tol_toboard","","","","","","","","","tol_peg_3","1066","1066","0","[[1,0,0],[2,0],[3]]","2","[[1,2,0],[3,0],[0]]","7","0","","","","","","4","",""
"","","","","","single-stim-button","307","1083805","0.0-3.0-31.2-0.2","63d950327d82a384a24b606c","C3","batch3","","589","","","tol_tohand","","","","","","","","","tol_peg_2","589","589","0","[[1,0,0],[0,0],[3]]","3","[[1,2,0],[3,0],[0]]","7","0","","","","","","4","",""
"","","","","","single-stim-button","308","1084814","0.0-3.0-31.2-1.2","63d950327d82a384a24b606c","C3","batch3","","1009","","","tol_toboard","","","","","","","","","tol_peg_1","1009","1009","0","[[1,2,0],[0,0],[3]]","3","[[1,2,0],[3,0],[0]]","7","0","","","","","","4","",""
"","","","","","single-stim-button","309","1085944","0.0-3.0-31.3-0.3","63d950327d82a384a24b606c","C3","batch3","","1130","","","tol_tohand","","","","","","","","","tol_peg_3","1130","1130","0","[[1,2,0],[0,0],[0]]","4","[[1,2,0],[3,0],[0]]","7","0","","","","","","4","",""
"","","","","","single-stim-button","310","1086671","0.0-3.0-31.3-1.3","63d950327d82a384a24b606c","C3","batch3","","726","","","tol_toboard","","","","","","","","","tol_peg_2","726","726","0","[[1,2,0],[3,0],[0]]","4","[[1,2,0],[3,0],[0]]","7","0","","","","","","4","",""
"","","","","","poldrack-single-stim","311","1087677","0.0-3.0-32.0","63d950327d82a384a24b606c","C3","batch3","","-1","","","tol_feedback","true","","","","","","","","","1000","1000","500","","","","","","-1","none","true","9946","13521","","",""
"","","","","","html-button-response","312","1089166","0.0-3.0-33.0","63d950327d82a384a24b606c","C3","batch3","","1488.2000000029802","<div class = centerbox><p class = center-block-text>problem <strong>9</strong> out of 25 problems</p></div>","0","tol_trial_num","","","","","","","","","","","","","","","","","","","","","","","","",""
"","","","","","single-stim-button","313","1125067","0.0-3.0-34.0-0.0","63d950327d82a384a24b606c","C3","batch3","","35901","","","tol_tohand","","","","","","","","","tol_peg_3","35901","35901","0","[[3,2,0],[0,0],[0]]","1","[[2,1,0],[3,0],[0]]","8","0","","","","","","6","",""
"","","","","","single-stim-button","314","1125963","0.0-3.0-34.0-1.0","63d950327d82a384a24b606c","C3","batch3","","895","","","tol_toboard","","","","","","","","","tol_peg_2","895","895","0","[[3,2,0],[1,0],[0]]","1","[[2,1,0],[3,0],[0]]","8","0","","","","","","6","",""
"","","","","","single-stim-button","315","1126973","0.0-3.0-34.1-0.1","63d950327d82a384a24b606c","C3","batch3","","1009","","","tol_tohand","","","","","","","","","tol_peg_1","1009","1009","0","[[3,0,0],[1,0],[0]]","2","[[2,1,0],[3,0],[0]]","8","0","","","","","","6","",""
"","","","","","single-stim-button","316","1128466","0.0-3.0-34.1-1.1","63d950327d82a384a24b606c","C3","batch3","","1493","","","tol_toboard","","","","","","","","","tol_peg_3","1493","1493","0","[[3,0,0],[1,0],[2]]","2","[[2,1,0],[3,0],[0]]","8","0","","","","","","6","",""
"","","","","","single-stim-button","317","1131414","0.0-3.0-34.2-0.2","63d950327d82a384a24b606c","C3","batch3","","2947","","","tol_tohand","","","","","","","","","tol_peg_1","2947","2947","0","[[0,0,0],[1,0],[2]]","3","[[2,1,0],[3,0],[0]]","8","0","","","","","","6","",""
"","","","","","single-stim-button","318","1132528","0.0-3.0-34.2-1.2","63d950327d82a384a24b606c","C3","batch3","","1114","","","tol_toboard","","","","","","","","","tol_peg_2","1114","1114","0","[[0,0,0],[1,3],[2]]","3","[[2,1,0],[3,0],[0]]","8","0","","","","","","6","",""
"","","","","","single-stim-button","319","1133513","0.0-3.0-34.3-0.3","63d950327d82a384a24b606c","C3","batch3","","985","","","tol_tohand","","","","","","","","","tol_peg_3","985","985","0","[[0,0,0],[1,3],[0]]","4","[[2,1,0],[3,0],[0]]","8","0","","","","","","6","",""
"","","","","","single-stim-button","320","1134725","0.0-3.0-34.3-1.3","63d950327d82a384a24b606c","C3","batch3","","1210","","","tol_toboard","","","","","","","","","tol_peg_1","1210","1210","0","[[2,0,0],[1,3],[0]]","4","[[2,1,0],[3,0],[0]]","8","0","","","","","","6","",""
"","","","","","single-stim-button","321","1137010","0.0-3.0-34.4-0.4","63d950327d82a384a24b606c","C3","batch3","","2284","","","tol_tohand","","","","","","","","","tol_peg_2","2284","2284","0","[[2,0,0],[1,0],[0]]","5","[[2,1,0],[3,0],[0]]","8","0","","","","","","6","",""
"","","","","","single-stim-button","322","1138100","0.0-3.0-34.4-1.4","63d950327d82a384a24b606c","C3","batch3","","1089","","","tol_toboard","","","","","","","","","tol_peg_3","1089","1089","0","[[2,0,0],[1,0],[3]]","5","[[2,1,0],[3,0],[0]]","8","0","","","","","","6","",""
"","","","","","single-stim-button","323","1138826","0.0-3.0-34.5-0.5","63d950327d82a384a24b606c","C3","batch3","","726","","","tol_tohand","","","","","","","","","tol_peg_2","726","726","0","[[2,0,0],[0,0],[3]]","6","[[2,1,0],[3,0],[0]]","8","0","","","","","","6","",""
"","","","","","single-stim-button","324","1139618","0.0-3.0-34.5-1.5","63d950327d82a384a24b606c","C3","batch3","","791","","","tol_toboard","","","","","","","","","tol_peg_1","791","791","0","[[2,1,0],[0,0],[3]]","6","[[2,1,0],[3,0],[0]]","8","0","","","","","","6","",""
"","","","","","single-stim-button","325","1140619","0.0-3.0-34.6-0.6","63d950327d82a384a24b606c","C3","batch3","","1001","","","tol_tohand","","","","","","","","","tol_peg_3","1001","1001","0","[[2,1,0],[0,0],[0]]","7","[[2,1,0],[3,0],[0]]","8","0","","","","","","6","",""
"","","","","","single-stim-button","326","1141306","0.0-3.0-34.6-1.6","63d950327d82a384a24b606c","C3","batch3","","685","","","tol_toboard","","","","","","","","","tol_peg_2","685","685","0","[[2,1,0],[3,0],[0]]","7","[[2,1,0],[3,0],[0]]","8","0","","","","","","6","",""
"","","","","","poldrack-single-stim","327","1142312","0.0-3.0-35.0","63d950327d82a384a24b606c","C3","batch3","","-1","","","tol_feedback","true","","","","","","","","","1000","1000","500","","","","","","-1","none","true","35901","44853","","",""
"","","","","","html-button-response","328","1143574","0.0-3.0-36.0","63d950327d82a384a24b606c","C3","batch3","","1261","<div class = centerbox><p class = center-block-text>problem <strong>10</strong> out of 25 problems</p></div>","0","tol_trial_num","","","","","","","","","","","","","","","","","","","","","","","","",""
"","","","","","single-stim-button","329","1149041","0.0-3.0-37.0-0.0","63d950327d82a384a24b606c","C3","batch3","","5467","","","tol_tohand","","","","","","","","","tol_peg_2","5467","5467","0","[[3,0,0],[0,0],[2]]","1","[[3,0,0],[2,1],[0]]","9","0","","","","","","3","",""
"","","","","","single-stim-button","330","1149946","0.0-3.0-37.0-1.0","63d950327d82a384a24b606c","C3","batch3","","904","","","tol_toboard","","","","","","","","","tol_peg_1","904","904","0","[[3,1,0],[0,0],[2]]","1","[[3,0,0],[2,1],[0]]","9","0","","","","","","3","",""
"","","","","","single-stim-button","331","1150696","0.0-3.0-37.1-0.1","63d950327d82a384a24b606c","C3","batch3","","749","","","tol_tohand","","","","","","","","","tol_peg_3","749","749","0","[[3,1,0],[0,0],[0]]","2","[[3,0,0],[2,1],[0]]","9","0","","","","","","3","",""
"","","","","","single-stim-button","332","1151576","0.0-3.0-37.1-1.1","63d950327d82a384a24b606c","C3","batch3","","879","","","tol_toboard","","","","","","","","","tol_peg_2","879","879","0","[[3,1,0],[2,0],[0]]","2","[[3,0,0],[2,1],[0]]","9","0","","","","","","3","",""
"","","","","","single-stim-button","333","1152376","0.0-3.0-37.2-0.2","63d950327d82a384a24b606c","C3","batch3","","800","","","tol_tohand","","","","","","","","","tol_peg_1","800","800","0","[[3,0,0],[2,0],[0]]","3","[[3,0,0],[2,1],[0]]","9","0","","","","","","3","",""
"","","","","","single-stim-button","334","1153264","0.0-3.0-37.2-1.2","63d950327d82a384a24b606c","C3","batch3","","887","","","tol_toboard","","","","","","","","","tol_peg_2","887","887","0","[[3,0,0],[2,1],[0]]","3","[[3,0,0],[2,1],[0]]","9","0","","","","","","3","",""
"","","","","","poldrack-single-stim","335","1154269","0.0-3.0-38.0","63d950327d82a384a24b606c","C3","batch3","","-1","","","tol_feedback","true","","","","","","","","","1000","1000","500","","","","","","-1","none","true","5467","7016","","",""
"","","","","","html-button-response","336","1155816","0.0-3.0-39.0","63d950327d82a384a24b606c","C3","batch3","","1546.2000000029802","<div class = centerbox><p class = center-block-text>problem <strong>11</strong> out of 25 problems</p></div>","0","tol_trial_num","","","","","","","","","","","","","","","","","","","","","","","","",""
"","","","","","single-stim-button","337","1165370","0.0-3.0-40.0-0.0","63d950327d82a384a24b606c","C3","batch3","","9554","","","tol_tohand","","","","","","","","","tol_peg_1","9554","9554","0","[[1,0,0],[3,0],[0]]","1","[[2,0,0],[1,3],[0]]","10","0","","","","","","6","",""
"","","","","","single-stim-button","338","1166522","0.0-3.0-40.0-1.0","63d950327d82a384a24b606c","C3","batch3","","1151","","","tol_toboard","","","","","","","","","tol_peg_3","1151","1151","0","[[1,0,0],[3,0],[2]]","1","[[2,0,0],[1,3],[0]]","10","0","","","","","","6","",""
"","","","","","single-stim-button","339","1167298","0.0-3.0-40.1-0.1","63d950327d82a384a24b606c","C3","batch3","","775","","","tol_tohand","","","","","","","","","tol_peg_1","775","775","0","[[0,0,0],[3,0],[2]]","2","[[2,0,0],[1,3],[0]]","10","0","","","","","","6","",""
"","","","","","single-stim-button","340","1168250","0.0-3.0-40.1-1.1","63d950327d82a384a24b606c","C3","batch3","","951","","","tol_toboard","","","","","","","","","tol_peg_2","951","951","0","[[0,0,0],[3,1],[2]]","2","[[2,0,0],[1,3],[0]]","10","0","","","","","","6","",""
"","","","","","single-stim-button","341","1169398","0.0-3.0-40.2-0.2","63d950327d82a384a24b606c","C3","batch3","","1147","","","tol_tohand","","","","","","","","","tol_peg_3","1147","1147","0","[[0,0,0],[3,1],[0]]","3","[[2,0,0],[1,3],[0]]","10","0","","","","","","6","",""
"","","","","","single-stim-button","342","1170818","0.0-3.0-40.2-1.2","63d950327d82a384a24b606c","C3","batch3","","1420","","","tol_toboard","","","","","","","","","tol_peg_1","1420","1420","0","[[2,0,0],[3,1],[0]]","3","[[2,0,0],[1,3],[0]]","10","0","","","","","","6","",""
"","","","","","single-stim-button","343","1173410","0.0-3.0-40.3-0.3","63d950327d82a384a24b606c","C3","batch3","","2591","","","tol_tohand","","","","","","","","","tol_peg_2","2591","2591","0","[[2,0,0],[3,0],[0]]","4","[[2,0,0],[1,3],[0]]","10","0","","","","","","6","",""
"","","","","","single-stim-button","344","1174661","0.0-3.0-40.3-1.3","63d950327d82a384a24b606c","C3","batch3","","1250","","","tol_toboard","","","","","","","","","tol_peg_3","1250","1250","0","[[2,0,0],[3,0],[1]]","4","[[2,0,0],[1,3],[0]]","10","0","","","","","","6","",""
"","","","","","single-stim-button","345","1176155","0.0-3.0-40.4-0.4","63d950327d82a384a24b606c","C3","batch3","","1493","","","tol_tohand","","","","","","","","","tol_peg_2","1493","1493","0","[[2,0,0],[0,0],[1]]","5","[[2,0,0],[1,3],[0]]","10","0","","","","","","6","",""
"","","","","","single-stim-button","346","1178037","0.0-3.0-40.4-1.4","63d950327d82a384a24b606c","C3","batch3","","1881","","","tol_toboard","","","","","","","","","tol_peg_1","1881","1881","0","[[2,3,0],[0,0],[1]]","5","[[2,0,0],[1,3],[0]]","10","0","","","","","","6","",""
"","","","","","single-stim-button","347","1178892","0.0-3.0-40.5-0.5","63d950327d82a384a24b606c","C3","batch3","","855","","","tol_tohand","","","","","","","","","tol_peg_3","855","855","0","[[2,3,0],[0,0],[0]]","6","[[2,0,0],[1,3],[0]]","10","0","","","","","","6","",""
"","","","","","single-stim-button","348","1179682","0.0-3.0-40.5-1.5","63d950327d82a384a24b606c","C3","batch3","","789","","","tol_toboard","","","","","","","","","tol_peg_2","789","789","0","[[2,3,0],[1,0],[0]]","6","[[2,0,0],[1,3],[0]]","10","0","","","","","","6","",""
