"success","timeout","failed_images","failed_audio","failed_video","trial_type","trial_index","time_elapsed","internal_node_id","subject_id","study_id","session_id","view_history","rt","task","stimulus","response","correct","mouse_click","stim_duration","block_duration","timing_post_trial","current_position","tol_num_moves_made","tol_target","tol_problem_id","tol_rt","key_press","possible_responses","tol_correct","preplanning","tol_rt_per_trial","tol_min_moves","item","answer","spm_correct","spm_rt","fiar_detect_rt","fiar_detect_correct","total_correct_fiar_detect","post_trial_gap","choices"
"true","false","[]","[]","[]","preload","0","8196","0.0-0.0","63e51f09c02713c63a9fa186","A3","batch1","","","","","","","","","","","","","","","","","","","","","","","","","","","","","",""
"true","","","","","fullscreen","1","24027","0.0-1.0-0.0","63e51f09c02713c63a9fa186","A3","batch1","","","","","","","","","","","","","","","","","","","","","","","","","","","","","",""
"true","","","","","fullscreen","2","26828","0.0-2.0-0.0","63e51f09c02713c63a9fa186","A3","batch1","","","","","","","","","","","","","","","","","","","","","","","","","","","","","",""
"","","","","","instructions","3","87273","0.0-2.0-1.0-0.0-0.0","63e51f09c02713c63a9fa186","A3","batch1","[{""page_index"":0,""viewing_time"":10946.30000000447},{""page_index"":1,""viewing_time"":12235},{""page_index"":2,""viewing_time"":12542.59999999404},{""page_index"":3,""viewing_time"":6443.80000000447},{""page_index"":4,""viewing_time"":8825.10000000149},{""page_index"":5,""viewing_time"":6965.0999999940395},{""page_index"":6,""viewing_time"":2483.8000000044703}]","60442.20000000298","tol-instructions","","","","","","","","","","","","","","","","","","","","","","","","","","",""
"","","","","","html-button-response","4","88224","0.0-2.0-1.0-1.0-0.0","63e51f09c02713c63a9fa186","A3","batch1","","949.6000000014901","tol_enter_quiz","<p class=block-text> Let's answer a few questions <br>","0","","","","","","","","","","","","","","","","","","","","","","","","",""
"","","","","","html-button-response","5","94513","0.0-2.0-1.0-1.0-1.0","63e51f09c02713c63a9fa186","A3","batch1","","6287.80000000447","tol_quiz","<p class = block-text>True or False: You can only move the ball on top of a peg. <br></p>","0","true","","","","","","","","","","","","","","","","","","","","","","","",""
"","","","","","html-button-response","6","95596","0.0-2.0-1.0-1.0-2.0","63e51f09c02713c63a9fa186","A3","batch1","","1081.1000000014901","tol_quiz_feedback","<p class = block-text>Correct! You can only move the ball on top of a peg.</p>","0","","","","","","","","","","","","","","","","","","","","","","","","",""
"","","","","","html-button-response","7","100126","0.0-2.0-1.0-1.0-3.0","63e51f09c02713c63a9fa186","A3","batch1","","4527.80000000447","tol_quiz","<p class = block-text>True or False: You should try to match your board with the target board with fewest moves possible. <br></p>","0","true","","","","","","","","","","","","","","","","","","","","","","","",""
"","","","","","html-button-response","8","100768","0.0-2.0-1.0-1.0-4.0","63e51f09c02713c63a9fa186","A3","batch1","","640.8000000044703","tol_quiz_feedback","<p class = block-text>Correct! </p>","0","","","","","","","","","","","","","","","","","","","","","","","","",""
"","","","","","html-button-response","9","102162","0.0-2.0-2.0","63e51f09c02713c63a9fa186","A3","batch1","","1392.8999999985099","","<p class=block-text> Now that you've understood the game, let's practice a few easier examples before we start!<br> <br>","0","","","","","","","","","","","","","","","","","","","","","","","","",""
"","","","","","single-stim-button","10","107248","0.0-2.0-3.0-0.0","63e51f09c02713c63a9fa186","A3","batch1","","5083","tol_practice","","","","tol_peg_2","5083","5083","0","[[1,2,0],[0,0],[0]]","1","[[1,2,0],[0,0],[3]]","practice","5083","","","","","","","","","","","","","","",""
"","","","","","single-stim-button","11","109388","0.0-2.0-3.0-1.0","63e51f09c02713c63a9fa186","A3","batch1","","2138","tol_practice","","","","tol_peg_2","2138","2138","0","[[1,2,0],[3,0],[0]]","1","[[1,2,0],[0,0],[3]]","practice","2138","","","","","","","","","","","","","","",""
"","","","","","single-stim-button","12","111688","0.0-2.0-3.1-0.1","63e51f09c02713c63a9fa186","A3","batch1","","2299","tol_practice","","","","tol_peg_2","2299","2299","0","[[1,2,0],[0,0],[0]]","2","[[1,2,0],[0,0],[3]]","practice","2299","","","","","","","","","","","","","","",""
"","","","","","single-stim-button","13","112707","0.0-2.0-3.1-1.1","63e51f09c02713c63a9fa186","A3","batch1","","1018","tol_practice","","","","tol_peg_3","1018","1018","0","[[1,2,0],[0,0],[3]]","2","[[1,2,0],[0,0],[3]]","practice","1018","","","","","","","","","","","","","","",""
"","","","","","poldrack-single-stim","14","113709","0.0-2.0-4.0","63e51f09c02713c63a9fa186","A3","batch1","","-1","tol_feedback","","","true","","1000","1000","500","","","","","","-1","none","true","","0","","","","","","","","","",""
"","","","","","single-stim-button","15","123897","0.0-2.0-5.0-0.0","63e51f09c02713c63a9fa186","A3","batch1","","10186","tol_practice","","","","tol_peg_1","10186","10186","0","[[1,0,0],[3,0],[0]]","3","[[0,0,0],[3,1],[2]]","practice","10186","","","","","","","","","","","","","","",""
"","","","","","single-stim-button","16","126115","0.0-2.0-5.0-1.0","63e51f09c02713c63a9fa186","A3","batch1","","2218","tol_practice","","","","tol_peg_3","2218","2218","0","[[1,0,0],[3,0],[2]]","3","[[0,0,0],[3,1],[2]]","practice","2218","","","","","","","","","","","","","","",""
"","","","","","single-stim-button","17","126747","0.0-2.0-5.1-0.1","63e51f09c02713c63a9fa186","A3","batch1","","632","tol_practice","","","","tol_peg_1","632","632","0","[[0,0,0],[3,0],[2]]","4","[[0,0,0],[3,1],[2]]","practice","632","","","","","","","","","","","","","","",""
"","","","","","single-stim-button","18","127945","0.0-2.0-5.1-1.1","63e51f09c02713c63a9fa186","A3","batch1","","1196","tol_practice","","","","tol_peg_2","1196","1196","0","[[0,0,0],[3,1],[2]]","4","[[0,0,0],[3,1],[2]]","practice","1196","","","","","","","","","","","","","","",""
"","","","","","poldrack-single-stim","19","128957","0.0-2.0-6.0","63e51f09c02713c63a9fa186","A3","batch1","","-1","tol_feedback","","","true","","1000","1000","500","","","","","","-1","none","true","","0","","","","","","","","","",""
"","","","","","single-stim-button","20","136818","0.0-2.0-7.0-0.0","63e51f09c02713c63a9fa186","A3","batch1","","7860","tol_practice","","","","tol_peg_2","7860","7860","0","[[1,2,0],[0,0],[0]]","5","[[1,0,0],[2,0],[3]]","practice","7860","","","","","","","","","","","","","","",""
"","","","","","single-stim-button","21","137800","0.0-2.0-7.0-1.0","63e51f09c02713c63a9fa186","A3","batch1","","981","tol_practice","","","","tol_peg_3","981","981","0","[[1,2,0],[0,0],[3]]","5","[[1,0,0],[2,0],[3]]","practice","981","","","","","","","","","","","","","","",""
"","","","","","single-stim-button","22","138855","0.0-2.0-7.1-0.1","63e51f09c02713c63a9fa186","A3","batch1","","1054","tol_practice","","","","tol_peg_1","1054","1054","0","[[1,0,0],[0,0],[3]]","6","[[1,0,0],[2,0],[3]]","practice","1054","","","","","","","","","","","","","","",""
"","","","","","single-stim-button","23","139645","0.0-2.0-7.1-1.1","63e51f09c02713c63a9fa186","A3","batch1","","790","tol_practice","","","","tol_peg_2","790","790","0","[[1,0,0],[2,0],[3]]","6","[[1,0,0],[2,0],[3]]","practice","790","","","","","","","","","","","","","","",""
"","","","","","poldrack-single-stim","24","140659","0.0-2.0-8.0","63e51f09c02713c63a9fa186","A3","batch1","","-1","tol_feedback","","","true","","1000","1000","500","","","","","","-1","none","true","","0","","","","","","","","","",""
"","","","","","html-button-response","25","143100","0.0-2.0-9.0","63e51f09c02713c63a9fa186","A3","batch1","","2440","tol_instruction","<div class = centerbox><p class = center-block-text>Great job! You are done with practice trials<br>You are about to start official trials.<br> <br> Problem <strong>1</strong> out of 25 problems</p></div>","0","","","","","","","","","","","","","","","","","","","","","","","","",""
"","","","","","single-stim-button","26","159280","0.0-2.0-10.0-0.0","63e51f09c02713c63a9fa186","A3","batch1","","15177","tol_tohand","","","","tol_peg_1","15177","15177","0","[[1,0,0],[3,0],[0]]","1","[[1,3,0],[2,0],[0]]","0","0","","","","","","3","","","","","","","","",""
"","","","","","single-stim-button","27","162038","0.0-2.0-10.0-1.0","63e51f09c02713c63a9fa186","A3","batch1","","2757","tol_toboard","","","","tol_peg_3","2757","2757","0","[[1,0,0],[3,0],[2]]","1","[[1,3,0],[2,0],[0]]","0","0","","","","","","3","","","","","","","","",""
"","","","","","single-stim-button","28","163031","0.0-2.0-10.1-0.1","63e51f09c02713c63a9fa186","A3","batch1","","991","tol_tohand","","","","tol_peg_2","991","991","0","[[1,0,0],[0,0],[2]]","2","[[1,3,0],[2,0],[0]]","0","0","","","","","","3","","","","","","","","",""
"","","","","","single-stim-button","29","163951","0.0-2.0-10.1-1.1","63e51f09c02713c63a9fa186","A3","batch1","","919","tol_toboard","","","","tol_peg_1","919","919","0","[[1,3,0],[0,0],[2]]","2","[[1,3,0],[2,0],[0]]","0","0","","","","","","3","","","","","","","","",""
"","","","","","single-stim-button","30","166082","0.0-2.0-10.2-0.2","63e51f09c02713c63a9fa186","A3","batch1","","2129","tol_tohand","","","","tol_peg_3","2129","2129","0","[[1,3,0],[0,0],[0]]","3","[[1,3,0],[2,0],[0]]","0","0","","","","","","3","","","","","","","","",""
"","","","","","single-stim-button","31","166728","0.0-2.0-10.2-1.2","63e51f09c02713c63a9fa186","A3","batch1","","646","tol_toboard","","","","tol_peg_2","646","646","0","[[1,3,0],[2,0],[0]]","3","[[1,3,0],[2,0],[0]]","0","0","","","","","","3","","","","","","","","",""
"","","","","","poldrack-single-stim","32","167731","0.0-2.0-11.0","63e51f09c02713c63a9fa186","A3","batch1","","-1","tol_feedback","","","true","","1000","1000","500","","","","","","-1","none","true","15177","18297","","","","","","","","","",""
"","","","","","html-button-response","33","168785","0.0-2.0-12.0","63e51f09c02713c63a9fa186","A3","batch1","","1052.5","tol_trial_num","<div class = centerbox><p class = center-block-text>problem <strong>2</strong> out of 25 problems</p></div>","0","","","","","","","","","","","","","","","","","","","","","","","","",""
"","","","","","single-stim-button","34","189302","0.0-2.0-13.0-0.0","63e51f09c02713c63a9fa186","A3","batch1","","20516","tol_tohand","","","","tol_peg_1","20516","20516","0","[[1,0,0],[3,0],[0]]","1","[[2,1,3],[0,0],[0]]","1","0","","","","","","5","","","","","","","","",""
"","","","","","single-stim-button","35","190077","0.0-2.0-13.0-1.0","63e51f09c02713c63a9fa186","A3","batch1","","774","tol_toboard","","","","tol_peg_2","774","774","0","[[1,0,0],[3,2],[0]]","1","[[2,1,3],[0,0],[0]]","1","0","","","","","","5","","","","","","","","",""
"","","","","","single-stim-button","36","193403","0.0-2.0-13.1-0.1","63e51f09c02713c63a9fa186","A3","batch1","","3325","tol_tohand","","","","tol_peg_1","3325","3325","0","[[0,0,0],[3,2],[0]]","2","[[2,1,3],[0,0],[0]]","1","0","","","","","","5","","","","","","","","",""
"","","","","","single-stim-button","37","194285","0.0-2.0-13.1-1.1","63e51f09c02713c63a9fa186","A3","batch1","","880","tol_toboard","","","","tol_peg_3","880","880","0","[[0,0,0],[3,2],[1]]","2","[[2,1,3],[0,0],[0]]","1","0","","","","","","5","","","","","","","","",""
"","","","","","single-stim-button","38","195106","0.0-2.0-13.2-0.2","63e51f09c02713c63a9fa186","A3","batch1","","821","tol_tohand","","","","tol_peg_2","821","821","0","[[0,0,0],[3,0],[1]]","3","[[2,1,3],[0,0],[0]]","1","0","","","","","","5","","","","","","","","",""
"","","","","","single-stim-button","39","197217","0.0-2.0-13.2-1.2","63e51f09c02713c63a9fa186","A3","batch1","","2110","tol_toboard","","","","tol_peg_1","2110","2110","0","[[2,0,0],[3,0],[1]]","3","[[2,1,3],[0,0],[0]]","1","0","","","","","","5","","","","","","","","",""
"","","","","","single-stim-button","40","198219","0.0-2.0-13.3-0.3","63e51f09c02713c63a9fa186","A3","batch1","","1001","tol_tohand","","","","tol_peg_3","1001","1001","0","[[2,0,0],[3,0],[0]]","4","[[2,1,3],[0,0],[0]]","1","0","","","","","","5","","","","","","","","",""
"","","","","","single-stim-button","41","199001","0.0-2.0-13.3-1.3","63e51f09c02713c63a9fa186","A3","batch1","","781","tol_toboard","","","","tol_peg_1","781","781","0","[[2,1,0],[3,0],[0]]","4","[[2,1,3],[0,0],[0]]","1","0","","","","","","5","","","","","","","","",""
"","","","","","single-stim-button","42","199688","0.0-2.0-13.4-0.4","63e51f09c02713c63a9fa186","A3","batch1","","686","tol_tohand","","","","tol_peg_2","686","686","0","[[2,1,0],[0,0],[0]]","5","[[2,1,3],[0,0],[0]]","1","0","","","","","","5","","","","","","","","",""
"","","","","","single-stim-button","43","200333","0.0-2.0-13.4-1.4","63e51f09c02713c63a9fa186","A3","batch1","","644","tol_toboard","","","","tol_peg_1","644","644","0","[[2,1,3],[0,0],[0]]","5","[[2,1,3],[0,0],[0]]","1","0","","","","","","5","","","","","","","","",""
"","","","","","poldrack-single-stim","44","201337","0.0-2.0-14.0","63e51f09c02713c63a9fa186","A3","batch1","","-1","tol_feedback","","","true","","1000","1000","500","","","","","","-1","none","true","20516","26349","","","","","","","","","",""
"","","","","","html-button-response","45","202096","0.0-2.0-15.0","63e51f09c02713c63a9fa186","A3","batch1","","755.8999999985099","tol_trial_num","<div class = centerbox><p class = center-block-text>problem <strong>3</strong> out of 25 problems</p></div>","0","","","","","","","","","","","","","","","","","","","","","","","","",""
"","","","","","single-stim-button","46","229063","0.0-2.0-16.0-0.0","63e51f09c02713c63a9fa186","A3","batch1","","26967","tol_tohand","","","","tol_peg_1","26967","26967","0","[[2,0,0],[0,0],[1]]","1","[[1,2,0],[3,0],[0]]","2","0","","","","","","4","","","","","","","","",""
"","","","","","single-stim-button","47","230489","0.0-2.0-16.0-1.0","63e51f09c02713c63a9fa186","A3","batch1","","1426","tol_toboard","","","","tol_peg_2","1426","1426","0","[[2,0,0],[3,0],[1]]","1","[[1,2,0],[3,0],[0]]","2","0","","","","","","4","","","","","","","","",""
"","","","","","single-stim-button","48","236347","0.0-2.0-16.1-0.1","63e51f09c02713c63a9fa186","A3","batch1","","5857","tol_tohand","","","","tol_peg_1","5857","5857","0","[[0,0,0],[3,0],[1]]","2","[[1,2,0],[3,0],[0]]","2","0","","","","","","4","","","","","","","","",""
"","","","","","single-stim-button","49","237311","0.0-2.0-16.1-1.1","63e51f09c02713c63a9fa186","A3","batch1","","963","tol_toboard","","","","tol_peg_2","963","963","0","[[0,0,0],[3,2],[1]]","2","[[1,2,0],[3,0],[0]]","2","0","","","","","","4","","","","","","","","",""
"","","","","","single-stim-button","50","238325","0.0-2.0-16.2-0.2","63e51f09c02713c63a9fa186","A3","batch1","","1013","tol_tohand","","","","tol_peg_3","1013","1013","0","[[0,0,0],[3,2],[0]]","3","[[1,2,0],[3,0],[0]]","2","0","","","","","","4","","","","","","","","",""
"","","","","","single-stim-button","51","239534","0.0-2.0-16.2-1.2","63e51f09c02713c63a9fa186","A3","batch1","","1208","tol_toboard","","","","tol_peg_1","1208","1208","0","[[1,0,0],[3,2],[0]]","3","[[1,2,0],[3,0],[0]]","2","0","","","","","","4","","","","","","","","",""
"","","","","","single-stim-button","52","240118","0.0-2.0-16.3-0.3","63e51f09c02713c63a9fa186","A3","batch1","","583","tol_tohand","","","","tol_peg_2","583","583","0","[[1,0,0],[3,0],[0]]","4","[[1,2,0],[3,0],[0]]","2","0","","","","","","4","","","","","","","","",""
"","","","","","single-stim-button","53","240710","0.0-2.0-16.3-1.3","63e51f09c02713c63a9fa186","A3","batch1","","590","tol_toboard","","","","tol_peg_1","590","590","0","[[1,2,0],[3,0],[0]]","4","[[1,2,0],[3,0],[0]]","2","0","","","","","","4","","","","","","","","",""
"","","","","","poldrack-single-stim","54","241711","0.0-2.0-17.0","63e51f09c02713c63a9fa186","A3","batch1","","-1","tol_feedback","","","true","","1000","1000","500","","","","","","-1","none","true","26967","34420","","","","","","","","","",""
"","","","","","html-button-response","55","242433","0.0-2.0-18.0","63e51f09c02713c63a9fa186","A3","batch1","","720.6000000014901","tol_trial_num","<div class = centerbox><p class = center-block-text>problem <strong>4</strong> out of 25 problems</p></div>","0","","","","","","","","","","","","","","","","","","","","","","","","",""
"","","","","","single-stim-button","56","252947","0.0-2.0-19.0-0.0","63e51f09c02713c63a9fa186","A3","batch1","","10514","tol_tohand","","","","tol_peg_2","10514","10514","0","[[3,0,0],[2,0],[0]]","1","[[3,0,0],[1,0],[2]]","3","0","","","","","","3","","","","","","","","",""
"","","","","","single-stim-button","57","253626","0.0-2.0-19.0-1.0","63e51f09c02713c63a9fa186","A3","batch1","","677","tol_toboard","","","","tol_peg_1","677","677","0","[[3,1,0],[2,0],[0]]","1","[[3,0,0],[1,0],[2]]","3","0","","","","","","3","","","","","","","","",""
"","","","","","single-stim-button","58","254226","0.0-2.0-19.1-0.1","63e51f09c02713c63a9fa186","A3","batch1","","599","tol_tohand","","","","tol_peg_2","599","599","0","[[3,1,0],[0,0],[0]]","2","[[3,0,0],[1,0],[2]]","3","0","","","","","","3","","","","","","","","",""
"","","","","","single-stim-button","59","255364","0.0-2.0-19.1-1.1","63e51f09c02713c63a9fa186","A3","batch1","","1138","tol_toboard","","","","tol_peg_3","1138","1138","0","[[3,1,0],[0,0],[2]]","2","[[3,0,0],[1,0],[2]]","3","0","","","","","","3","","","","","","","","",""
"","","","","","single-stim-button","60","255976","0.0-2.0-19.2-0.2","63e51f09c02713c63a9fa186","A3","batch1","","611","tol_tohand","","","","tol_peg_1","611","611","0","[[3,0,0],[0,0],[2]]","3","[[3,0,0],[1,0],[2]]","3","0","","","","","","3","","","","","","","","",""
"","","","","","single-stim-button","61","256646","0.0-2.0-19.2-1.2","63e51f09c02713c63a9fa186","A3","batch1","","669","tol_toboard","","","","tol_peg_2","669","669","0","[[3,0,0],[1,0],[2]]","3","[[3,0,0],[1,0],[2]]","3","0","","","","","","3","","","","","","","","",""
"","","","","","poldrack-single-stim","62","257649","0.0-2.0-20.0","63e51f09c02713c63a9fa186","A3","batch1","","-1","tol_feedback","","","true","","1000","1000","500","","","","","","-1","none","true","10514","11724","","","","","","","","","",""
"","","","","","html-button-response","63","258262","0.0-2.0-21.0","63e51f09c02713c63a9fa186","A3","batch1","","611.7000000029802","tol_trial_num","<div class = centerbox><p class = center-block-text>problem <strong>5</strong> out of 25 problems</p></div>","0","","","","","","","","","","","","","","","","","","","","","","","","",""
"","","","","","single-stim-button","64","282436","0.0-2.0-22.0-0.0","63e51f09c02713c63a9fa186","A3","batch1","","24174","tol_tohand","","","","tol_peg_3","24174","24174","0","[[1,0,0],[2,0],[0]]","1","[[0,0,0],[1,2],[3]]","4","0","","","","","","7","","","","","","","","",""
"","","","","","single-stim-button","65","292353","0.0-2.0-22.0-1.0","63e51f09c02713c63a9fa186","A3","batch1","","9916","tol_toboard","","","","tol_peg_2","9916","9916","0","[[1,0,0],[2,3],[0]]","1","[[0,0,0],[1,2],[3]]","4","0","","","","","","7","","","","","","","","",""
"","","","","","single-stim-button","66","292992","0.0-2.0-22.1-0.1","63e51f09c02713c63a9fa186","A3","batch1","","638","tol_tohand","","","","tol_peg_1","638","638","0","[[0,0,0],[2,3],[0]]","2","[[0,0,0],[1,2],[3]]","4","0","","","","","","7","","","","","","","","",""
"","","","","","single-stim-button","67","293918","0.0-2.0-22.1-1.1","63e51f09c02713c63a9fa186","A3","batch1","","926","tol_toboard","","","","tol_peg_3","926","926","0","[[0,0,0],[2,3],[1]]","2","[[0,0,0],[1,2],[3]]","4","0","","","","","","7","","","","","","","","",""
"","","","","","single-stim-button","68","299236","0.0-2.0-22.2-0.2","63e51f09c02713c63a9fa186","A3","batch1","","5317","tol_tohand","","","","tol_peg_2","5317","5317","0","[[0,0,0],[2,0],[1]]","3","[[0,0,0],[1,2],[3]]","4","0","","","","","","7","","","","","","","","",""
"","","","","","single-stim-button","69","300121","0.0-2.0-22.2-1.2","63e51f09c02713c63a9fa186","A3","batch1","","884","tol_toboard","","","","tol_peg_1","884","884","0","[[3,0,0],[2,0],[1]]","3","[[0,0,0],[1,2],[3]]","4","0","","","","","","7","","","","","","","","",""
"","","","","","single-stim-button","70","301072","0.0-2.0-22.3-0.3","63e51f09c02713c63a9fa186","A3","batch1","","951","tol_tohand","","","","tol_peg_2","951","951","0","[[3,0,0],[0,0],[1]]","4","[[0,0,0],[1,2],[3]]","4","0","","","","","","7","","","","","","","","",""
"","","","","","single-stim-button","71","303310","0.0-2.0-22.3-1.3","63e51f09c02713c63a9fa186","A3","batch1","","2237","tol_toboard","","","","tol_peg_1","2237","2237","0","[[3,2,0],[0,0],[1]]","4","[[0,0,0],[1,2],[3]]","4","0","","","","","","7","","","","","","","","",""
"","","","","","single-stim-button","72","303827","0.0-2.0-22.4-0.4","63e51f09c02713c63a9fa186","A3","batch1","","517","tol_tohand","","","","tol_peg_3","517","517","0","[[3,2,0],[0,0],[0]]","5","[[0,0,0],[1,2],[3]]","4","0","","","","","","7","","","","","","","","",""
"","","","","","single-stim-button","73","304441","0.0-2.0-22.4-1.4","63e51f09c02713c63a9fa186","A3","batch1","","613","tol_toboard","","","","tol_peg_2","613","613","0","[[3,2,0],[1,0],[0]]","5","[[0,0,0],[1,2],[3]]","4","0","","","","","","7","","","","","","","","",""
"","","","","","single-stim-button","74","305583","0.0-2.0-22.5-0.5","63e51f09c02713c63a9fa186","A3","batch1","","1142","tol_tohand","","","","tol_peg_1","1142","1142","0","[[3,0,0],[1,0],[0]]","6","[[0,0,0],[1,2],[3]]","4","0","","","","","","7","","","","","","","","",""
"","","","","","single-stim-button","75","306106","0.0-2.0-22.5-1.5","63e51f09c02713c63a9fa186","A3","batch1","","521","tol_toboard","","","","tol_peg_2","521","521","0","[[3,0,0],[1,2],[0]]","6","[[0,0,0],[1,2],[3]]","4","0","","","","","","7","","","","","","","","",""
"","","","","","single-stim-button","76","306554","0.0-2.0-22.6-0.6","63e51f09c02713c63a9fa186","A3","batch1","","448","tol_tohand","","","","tol_peg_1","448","448","0","[[0,0,0],[1,2],[0]]","7","[[0,0,0],[1,2],[3]]","4","0","","","","","","7","","","","","","","","",""
"","","","","","single-stim-button","77","307438","0.0-2.0-22.6-1.6","63e51f09c02713c63a9fa186","A3","batch1","","884","tol_toboard","","","","tol_peg_3","884","884","0","[[0,0,0],[1,2],[3]]","7","[[0,0,0],[1,2],[3]]","4","0","","","","","","7","","","","","","","","",""
"","","","","","poldrack-single-stim","78","308443","0.0-2.0-23.0","63e51f09c02713c63a9fa186","A3","batch1","","-1","tol_feedback","","","true","","1000","1000","500","","","","","","-1","none","true","24174","33187","","","","","","","","","",""
"","","","","","html-button-response","79","309319","0.0-2.0-24.0","63e51f09c02713c63a9fa186","A3","batch1","","874.7000000029802","tol_trial_num","<div class = centerbox><p class = center-block-text>problem <strong>6</strong> out of 25 problems</p></div>","0","","","","","","","","","","","","","","","","","","","","","","","","",""
"","","","","","single-stim-button","80","352870","0.0-2.0-25.0-0.0","63e51f09c02713c63a9fa186","A3","batch1","","43549","tol_tohand","","","","tol_peg_3","43549","43549","0","[[0,0,0],[1,2],[0]]","1","[[1,0,0],[2,3],[0]]","5","0","","","","","","6","","","","","","","","",""
"","","","","","single-stim-button","81","354407","0.0-2.0-25.0-1.0","63e51f09c02713c63a9fa186","A3","batch1","","1537","tol_toboard","","","","tol_peg_1","1537","1537","0","[[3,0,0],[1,2],[0]]","1","[[1,0,0],[2,3],[0]]","5","0","","","","","","6","","","","","","","","",""
"","","","","","single-stim-button","82","355597","0.0-2.0-25.1-0.1","63e51f09c02713c63a9fa186","A3","batch1","","1190","tol_tohand","","","","tol_peg_2","1190","1190","0","[[3,0,0],[1,0],[0]]","2","[[1,0,0],[2,3],[0]]","5","0","","","","","","6","","","","","","","","",""
"","","","","","single-stim-button","83","356128","0.0-2.0-25.1-1.1","63e51f09c02713c63a9fa186","A3","batch1","","530","tol_toboard","","","","tol_peg_3","530","530","0","[[3,0,0],[1,0],[2]]","2","[[1,0,0],[2,3],[0]]","5","0","","","","","","6","","","","","","","","",""
"","","","","","single-stim-button","84","361211","0.0-2.0-25.2-0.2","63e51f09c02713c63a9fa186","A3","batch1","","5083","tol_tohand","","","","tol_peg_3","5083","5083","0","[[3,0,0],[1,0],[0]]","3","[[1,0,0],[2,3],[0]]","5","0","","","","","","6","","","","","","","","",""
"","","","","","single-stim-button","85","361849","0.0-2.0-25.2-1.2","63e51f09c02713c63a9fa186","A3","batch1","","636","tol_toboard","","","","tol_peg_1","636","636","0","[[3,2,0],[1,0],[0]]","3","[[1,0,0],[2,3],[0]]","5","0","","","","","","6","","","","","","","","",""
"","","","","","single-stim-button","86","362660","0.0-2.0-25.3-0.3","63e51f09c02713c63a9fa186","A3","batch1","","811","tol_tohand","","","","tol_peg_2","811","811","0","[[3,2,0],[0,0],[0]]","4","[[1,0,0],[2,3],[0]]","5","0","","","","","","6","","","","","","","","",""
"","","","","","single-stim-button","87","363274","0.0-2.0-25.3-1.3","63e51f09c02713c63a9fa186","A3","batch1","","612","tol_toboard","","","","tol_peg_3","612","612","0","[[3,2,0],[0,0],[1]]","4","[[1,0,0],[2,3],[0]]","5","0","","","","","","6","","","","","","","","",""
"","","","","","single-stim-button","88","363936","0.0-2.0-25.4-0.4","63e51f09c02713c63a9fa186","A3","batch1","","662","tol_tohand","","","","tol_peg_1","662","662","0","[[3,0,0],[0,0],[1]]","5","[[1,0,0],[2,3],[0]]","5","0","","","","","","6","","","","","","","","",""
"","","","","","single-stim-button","89","364536","0.0-2.0-25.4-1.4","63e51f09c02713c63a9fa186","A3","batch1","","600","tol_toboard","","","","tol_peg_2","600","600","0","[[3,0,0],[2,0],[1]]","5","[[1,0,0],[2,3],[0]]","5","0","","","","","","6","","","","","","","","",""
"","","","","","single-stim-button","90","365647","0.0-2.0-25.5-0.5","63e51f09c02713c63a9fa186","A3","batch1","","1111","tol_tohand","","","","tol_peg_1","1111","1111","0","[[0,0,0],[2,0],[1]]","6","[[1,0,0],[2,3],[0]]","5","0","","","","","","6","","","","","","","","",""
"","","","","","single-stim-button","91","366753","0.0-2.0-25.5-1.5","63e51f09c02713c63a9fa186","A3","batch1","","1106","tol_toboard","","","","tol_peg_2","1106","1106","0","[[0,0,0],[2,3],[1]]","6","[[1,0,0],[2,3],[0]]","5","0","","","","","","6","","","","","","","","",""
"","","","","","single-stim-button","92","367134","0.0-2.0-25.6-0.6","63e51f09c02713c63a9fa186","A3","batch1","","380","tol_tohand","","","","tol_peg_3","380","380","0","[[0,0,0],[2,3],[0]]","7","[[1,0,0],[2,3],[0]]","5","0","","","","","","6","","","","","","","","",""
"","","","","","single-stim-button","93","367693","0.0-2.0-25.6-1.6","63e51f09c02713c63a9fa186","A3","batch1","","559","tol_toboard","","","","tol_peg_1","559","559","0","[[1,0,0],[2,3],[0]]","7","[[1,0,0],[2,3],[0]]","5","0","","","","","","6","","","","","","","","",""
"","","","","","poldrack-single-stim","94","368697","0.0-2.0-26.0","63e51f09c02713c63a9fa186","A3","batch1","","-1","tol_feedback","","","true","","1000","1000","500","","","","","","-1","none","true","43549","52786","","","","","","","","","",""
"","","","","","html-button-response","95","369366","0.0-2.0-27.0","63e51f09c02713c63a9fa186","A3","batch1","","666.8999999985099","tol_trial_num","<div class = centerbox><p class = center-block-text>problem <strong>7</strong> out of 25 problems</p></div>","0","","","","","","","","","","","","","","","","","","","","","","","","",""
"","","","","","single-stim-button","96","397749","0.0-2.0-28.0-0.0","63e51f09c02713c63a9fa186","A3","batch1","","28381","tol_tohand","","","","tol_peg_3","28381","28381","0","[[2,1,0],[0,0],[0]]","1","[[1,2,0],[3,0],[0]]","6","0","","","","","","5","","","","","","","","",""
"","","","","","single-stim-button","97","398605","0.0-2.0-28.0-1.0","63e51f09c02713c63a9fa186","A3","batch1","","855","tol_toboard","","","","tol_peg_2","855","855","0","[[2,1,0],[3,0],[0]]","1","[[1,2,0],[3,0],[0]]","6","0","","","","","","5","","","","","","","","",""
"","","","","","single-stim-button","98","399882","0.0-2.0-28.1-0.1","63e51f09c02713c63a9fa186","A3","batch1","","1275","tol_tohand","","","","tol_peg_1","1275","1275","0","[[2,0,0],[3,0],[0]]","2","[[1,2,0],[3,0],[0]]","6","0","","","","","","5","","","","","","","","",""
"","","","","","single-stim-button","99","403299","0.0-2.0-28.1-1.1","63e51f09c02713c63a9fa186","A3","batch1","","3416","tol_toboard","","","","tol_peg_3","3416","3416","0","[[2,0,0],[3,0],[1]]","2","[[1,2,0],[3,0],[0]]","6","0","","","","","","5","","","","","","","","",""
"","","","","","single-stim-button","100","403843","0.0-2.0-28.2-0.2","63e51f09c02713c63a9fa186","A3","batch1","","543","tol_tohand","","","","tol_peg_1","543","543","0","[[0,0,0],[3,0],[1]]","3","[[1,2,0],[3,0],[0]]","6","0","","","","","","5","","","","","","","","",""
"","","","","","single-stim-button","101","404550","0.0-2.0-28.2-1.2","63e51f09c02713c63a9fa186","A3","batch1","","706","tol_toboard","","","","tol_peg_2","706","706","0","[[0,0,0],[3,2],[1]]","3","[[1,2,0],[3,0],[0]]","6","0","","","","","","5","","","","","","","","",""
"","","","","","single-stim-button","102","405045","0.0-2.0-28.3-0.3","63e51f09c02713c63a9fa186","A3","batch1","","495","tol_tohand","","","","tol_peg_3","495","495","0","[[0,0,0],[3,2],[0]]","4","[[1,2,0],[3,0],[0]]","6","0","","","","","","5","","","","","","","","",""
"","","","","","single-stim-button","103","405666","0.0-2.0-28.3-1.3","63e51f09c02713c63a9fa186","A3","batch1","","620","tol_toboard","","","","tol_peg_1","620","620","0","[[1,0,0],[3,2],[0]]","4","[[1,2,0],[3,0],[0]]","6","0","","","","","","5","","","","","","","","",""
"","","","","","single-stim-button","104","406069","0.0-2.0-28.4-0.4","63e51f09c02713c63a9fa186","A3","batch1","","402","tol_tohand","","","","tol_peg_2","402","402","0","[[1,0,0],[3,0],[0]]","5","[[1,2,0],[3,0],[0]]","6","0","","","","","","5","","","","","","","","",""
"","","","","","single-stim-button","105","406589","0.0-2.0-28.4-1.4","63e51f09c02713c63a9fa186","A3","batch1","","519","tol_toboard","","","","tol_peg_1","519","519","0","[[1,2,0],[3,0],[0]]","5","[[1,2,0],[3,0],[0]]","6","0","","","","","","5","","","","","","","","",""
"","","","","","poldrack-single-stim","106","407590","0.0-2.0-29.0","63e51f09c02713c63a9fa186","A3","batch1","","-1","tol_feedback","","","true","","1000","1000","500","","","","","","-1","none","true","28381","31096","","","","","","","","","",""
"","","","","","html-button-response","107","408210","0.0-2.0-30.0","63e51f09c02713c63a9fa186","A3","batch1","","619","tol_trial_num","<div class = centerbox><p class = center-block-text>problem <strong>8</strong> out of 25 problems</p></div>","0","","","","","","","","","","","","","","","","","","","","","","","","",""
"","","","","","single-stim-button","108","416094","0.0-2.0-31.0-0.0","63e51f09c02713c63a9fa186","A3","batch1","","7882","tol_tohand","","","","tol_peg_3","7882","7882","0","[[0,0,0],[2,3],[0]]","1","[[1,2,0],[3,0],[0]]","7","0","","","","","","4","","","","","","","","",""
"","","","","","single-stim-button","109","417136","0.0-2.0-31.0-1.0","63e51f09c02713c63a9fa186","A3","batch1","","1041","tol_toboard","","","","tol_peg_1","1041","1041","0","[[1,0,0],[2,3],[0]]","1","[[1,2,0],[3,0],[0]]","7","0","","","","","","4","","","","","","","","",""
"","","","","","single-stim-button","110","418098","0.0-2.0-31.1-0.1","63e51f09c02713c63a9fa186","A3","batch1","","962","tol_tohand","","","","tol_peg_2","962","962","0","[[1,0,0],[2,0],[0]]","2","[[1,2,0],[3,0],[0]]","7","0","","","","","","4","","","","","","","","",""
"","","","","","single-stim-button","111","418605","0.0-2.0-31.1-1.1","63e51f09c02713c63a9fa186","A3","batch1","","505","tol_toboard","","","","tol_peg_3","505","505","0","[[1,0,0],[2,0],[3]]","2","[[1,2,0],[3,0],[0]]","7","0","","","","","","4","","","","","","","","",""
"","","","","","single-stim-button","112","419221","0.0-2.0-31.2-0.2","63e51f09c02713c63a9fa186","A3","batch1","","615","tol_tohand","","","","tol_peg_2","615","615","0","[[1,0,0],[0,0],[3]]","3","[[1,2,0],[3,0],[0]]","7","0","","","","","","4","","","","","","","","",""
"","","","","","single-stim-button","113","419840","0.0-2.0-31.2-1.2","63e51f09c02713c63a9fa186","A3","batch1","","618","tol_toboard","","","","tol_peg_1","618","618","0","[[1,2,0],[0,0],[3]]","3","[[1,2,0],[3,0],[0]]","7","0","","","","","","4","","","","","","","","",""
"","","","","","single-stim-button","114","420530","0.0-2.0-31.3-0.3","63e51f09c02713c63a9fa186","A3","batch1","","688","tol_tohand","","","","tol_peg_3","688","688","0","[[1,2,0],[0,0],[0]]","4","[[1,2,0],[3,0],[0]]","7","0","","","","","","4","","","","","","","","",""
"","","","","","single-stim-button","115","420927","0.0-2.0-31.3-1.3","63e51f09c02713c63a9fa186","A3","batch1","","397","tol_toboard","","","","tol_peg_2","397","397","0","[[1,2,0],[3,0],[0]]","4","[[1,2,0],[3,0],[0]]","7","0","","","","","","4","","","","","","","","",""
"","","","","","poldrack-single-stim","116","421942","0.0-2.0-32.0","63e51f09c02713c63a9fa186","A3","batch1","","-1","tol_feedback","","","true","","1000","1000","500","","","","","","-1","none","true","7882","10147","","","","","","","","","",""
"","","","","","html-button-response","117","422554","0.0-2.0-33.0","63e51f09c02713c63a9fa186","A3","batch1","","610.9000000059605","tol_trial_num","<div class = centerbox><p class = center-block-text>problem <strong>9</strong> out of 25 problems</p></div>","0","","","","","","","","","","","","","","","","","","","","","","","","",""
"","","","","","single-stim-button","118","435539","0.0-2.0-34.0-0.0","63e51f09c02713c63a9fa186","A3","batch1","","12984","tol_tohand","","","","tol_peg_1","12984","12984","0","[[3,0,0],[0,0],[1]]","1","[[2,1,0],[3,0],[0]]","8","0","","","","","","6","","","","","","","","",""
"","","","","","single-stim-button","119","436266","0.0-2.0-34.0-1.0","63e51f09c02713c63a9fa186","A3","batch1","","725","tol_toboard","","","","tol_peg_2","725","725","0","[[3,0,0],[2,0],[1]]","1","[[2,1,0],[3,0],[0]]","8","0","","","","","","6","","","","","","","","",""
"","","","","","single-stim-button","120","437151","0.0-2.0-34.1-0.1","63e51f09c02713c63a9fa186","A3","batch1","","885","tol_tohand","","","","tol_peg_3","885","885","0","[[3,0,0],[2,0],[0]]","2","[[2,1,0],[3,0],[0]]","8","0","","","","","","6","","","","","","","","",""
"","","","","","single-stim-button","121","437985","0.0-2.0-34.1-1.1","63e51f09c02713c63a9fa186","A3","batch1","","832","tol_toboard","","","","tol_peg_2","832","832","0","[[3,0,0],[2,1],[0]]","2","[[2,1,0],[3,0],[0]]","8","0","","","","","","6","","","","","","","","",""
"","","","","","single-stim-button","122","439249","0.0-2.0-34.2-0.2","63e51f09c02713c63a9fa186","A3","batch1","","1264","tol_tohand","","","","tol_peg_1","1264","1264","0","[[0,0,0],[2,1],[0]]","3","[[2,1,0],[3,0],[0]]","8","0","","","","","","6","","","","","","","","",""
"","","","","","single-stim-button","123","439978","0.0-2.0-34.2-1.2","63e51f09c02713c63a9fa186","A3","batch1","","729","tol_toboard","","","","tol_peg_3","729","729","0","[[0,0,0],[2,1],[3]]","3","[[2,1,0],[3,0],[0]]","8","0","","","","","","6","","","","","","","","",""
"","","","","","single-stim-button","124","443716","0.0-2.0-34.3-0.3","63e51f09c02713c63a9fa186","A3","batch1","","3737","tol_tohand","","","","tol_peg_2","3737","3737","0","[[0,0,0],[2,0],[3]]","4","[[2,1,0],[3,0],[0]]","8","0","","","","","","6","","","","","","","","",""
"","","","","","single-stim-button","125","444214","0.0-2.0-34.3-1.3","63e51f09c02713c63a9fa186","A3","batch1","","497","tol_toboard","","","","tol_peg_1","497","497","0","[[1,0,0],[2,0],[3]]","4","[[2,1,0],[3,0],[0]]","8","0","","","","","","6","","","","","","","","",""
"","","","","","single-stim-button","126","444916","0.0-2.0-34.4-0.4","63e51f09c02713c63a9fa186","A3","batch1","","701","tol_tohand","","","","tol_peg_2","701","701","0","[[1,0,0],[0,0],[3]]","5","[[2,1,0],[3,0],[0]]","8","0","","","","","","6","","","","","","","","",""
"","","","","","single-stim-button","127","445446","0.0-2.0-34.4-1.4","63e51f09c02713c63a9fa186","A3","batch1","","529","tol_toboard","","","","tol_peg_1","529","529","0","[[1,2,0],[0,0],[3]]","5","[[2,1,0],[3,0],[0]]","8","0","","","","","","6","","","","","","","","",""
"","","","","","single-stim-button","128","447197","0.0-2.0-34.5-0.5","63e51f09c02713c63a9fa186","A3","batch1","","1750","tol_tohand","","","","tol_peg_3","1750","1750","0","[[1,2,0],[0,0],[0]]","6","[[2,1,0],[3,0],[0]]","8","0","","","","","","6","","","","","","","","",""
"","","","","","single-stim-button","129","447783","0.0-2.0-34.5-1.5","63e51f09c02713c63a9fa186","A3","batch1","","585","tol_toboard","","","","tol_peg_2","585","585","0","[[1,2,0],[3,0],[0]]","6","[[2,1,0],[3,0],[0]]","8","0","","","","","","6","","","","","","","","",""
"","","","","","single-stim-button","130","449250","0.0-2.0-34.6-0.6","63e51f09c02713c63a9fa186","A3","batch1","","1466","tol_tohand","","","","tol_peg_1","1466","1466","0","[[1,0,0],[3,0],[0]]","7","[[2,1,0],[3,0],[0]]","8","0","","","","","","6","","","","","","","","",""
"","","","","","single-stim-button","131","449894","0.0-2.0-34.6-1.6","63e51f09c02713c63a9fa186","A3","batch1","","643","tol_toboard","","","","tol_peg_3","643","643","0","[[1,0,0],[3,0],[2]]","7","[[2,1,0],[3,0],[0]]","8","0","","","","","","6","","","","","","","","",""
"","","","","","single-stim-button","132","450453","0.0-2.0-34.7-0.7","63e51f09c02713c63a9fa186","A3","batch1","","558","tol_tohand","","","","tol_peg_1","558","558","0","[[0,0,0],[3,0],[2]]","8","[[2,1,0],[3,0],[0]]","8","0","","","","","","6","","","","","","","","",""
"","","","","","single-stim-button","133","450967","0.0-2.0-34.7-1.7","63e51f09c02713c63a9fa186","A3","batch1","","512","tol_toboard","","","","tol_peg_2","512","512","0","[[0,0,0],[3,1],[2]]","8","[[2,1,0],[3,0],[0]]","8","0","","","","","","6","","","","","","","","",""
"","","","","","single-stim-button","134","451451","0.0-2.0-34.8-0.8","63e51f09c02713c63a9fa186","A3","batch1","","482","tol_tohand","","","","tol_peg_3","482","482","0","[[0,0,0],[3,1],[0]]","9","[[2,1,0],[3,0],[0]]","8","0","","","","","","6","","","","","","","","",""
"","","","","","single-stim-button","135","452122","0.0-2.0-34.8-1.8","63e51f09c02713c63a9fa186","A3","batch1","","669","tol_toboard","","","","tol_peg_1","669","669","0","[[2,0,0],[3,1],[0]]","9","[[2,1,0],[3,0],[0]]","8","0","","","","","","6","","","","","","","","",""
"","","","","","single-stim-button","136","452448","0.0-2.0-34.9-0.9","63e51f09c02713c63a9fa186","A3","batch1","","325","tol_tohand","","","","tol_peg_2","325","325","0","[[2,0,0],[3,0],[0]]","10","[[2,1,0],[3,0],[0]]","8","0","","","","","","6","","","","","","","","",""
"","","","","","single-stim-button","137","452877","0.0-2.0-34.9-1.9","63e51f09c02713c63a9fa186","A3","batch1","","429","tol_toboard","","","","tol_peg_1","429","429","0","[[2,1,0],[3,0],[0]]","10","[[2,1,0],[3,0],[0]]","8","0","","","","","","6","","","","","","","","",""
"","","","","","poldrack-single-stim","138","453890","0.0-2.0-35.0","63e51f09c02713c63a9fa186","A3","batch1","","-1","tol_feedback","","","true","","1000","1000","500","","","","","","-1","none","true","12984","24152","","","","","","","","","",""
"","","","","","html-button-response","139","455258","0.0-2.0-36.0","63e51f09c02713c63a9fa186","A3","batch1","","1366.8999999985099","tol_trial_num","<div class = centerbox><p class = center-block-text>problem <strong>10</strong> out of 25 problems</p></div>","0","","","","","","","","","","","","","","","","","","","","","","","","",""
"","","","","","single-stim-button","140","465925","0.0-2.0-37.0-0.0","63e51f09c02713c63a9fa186","A3","batch1","","10666","tol_tohand","","","","tol_peg_2","10666","10666","0","[[3,0,0],[0,0],[2]]","1","[[3,0,0],[2,1],[0]]","9","0","","","","","","3","","","","","","","","",""
"","","","","","single-stim-button","141","466435","0.0-2.0-37.0-1.0","63e51f09c02713c63a9fa186","A3","batch1","","508","tol_toboard","","","","tol_peg_1","508","508","0","[[3,1,0],[0,0],[2]]","1","[[3,0,0],[2,1],[0]]","9","0","","","","","","3","","","","","","","","",""
"","","","","","single-stim-button","142","466925","0.0-2.0-37.1-0.1","63e51f09c02713c63a9fa186","A3","batch1","","490","tol_tohand","","","","tol_peg_3","490","490","0","[[3,1,0],[0,0],[0]]","2","[[3,0,0],[2,1],[0]]","9","0","","","","","","3","","","","","","","","",""
"","","","","","single-stim-button","143","467427","0.0-2.0-37.1-1.1","63e51f09c02713c63a9fa186","A3","batch1","","502","tol_toboard","","","","tol_peg_2","502","502","0","[[3,1,0],[2,0],[0]]","2","[[3,0,0],[2,1],[0]]","9","0","","","","","","3","","","","","","","","",""
"","","","","","single-stim-button","144","467866","0.0-2.0-37.2-0.2","63e51f09c02713c63a9fa186","A3","batch1","","438","tol_tohand","","","","tol_peg_1","438","438","0","[[3,0,0],[2,0],[0]]","3","[[3,0,0],[2,1],[0]]","9","0","","","","","","3","","","","","","","","",""
"","","","","","single-stim-button","145","468270","0.0-2.0-37.2-1.2","63e51f09c02713c63a9fa186","A3","batch1","","403","tol_toboard","","","","tol_peg_2","403","403","0","[[3,0,0],[2,1],[0]]","3","[[3,0,0],[2,1],[0]]","9","0","","","","","","3","","","","","","","","",""
"","","","","","poldrack-single-stim","146","469273","0.0-2.0-38.0","63e51f09c02713c63a9fa186","A3","batch1","","-1","tol_feedback","","","true","","1000","1000","500","","","","","","-1","none","true","10666","11594","","","","","","","","","",""
"","","","","","html-button-response","147","469840","0.0-2.0-39.0","63e51f09c02713c63a9fa186","A3","batch1","","565.3999999985099","tol_trial_num","<div class = centerbox><p class = center-block-text>problem <strong>11</strong> out of 25 problems</p></div>","0","","","","","","","","","","","","","","","","","","","","","","","","",""
"","","","","","single-stim-button","148","473587","0.0-2.0-40.0-0.0","63e51f09c02713c63a9fa186","A3","batch1","","3746","tol_tohand","","","","tol_peg_1","3746","3746","0","[[1,0,0],[3,0],[0]]","1","[[2,0,0],[1,3],[0]]","10","0","","","","","","6","","","","","","","","",""
"","","","","","single-stim-button","149","474151","0.0-2.0-40.0-1.0","63e51f09c02713c63a9fa186","A3","batch1","","562","tol_toboard","","","","tol_peg_3","562","562","0","[[1,0,0],[3,0],[2]]","1","[[2,0,0],[1,3],[0]]","10","0","","","","","","6","","","","","","","","",""
"","","","","","single-stim-button","150","487371","0.0-2.0-40.1-0.1","63e51f09c02713c63a9fa186","A3","batch1","","13220","tol_tohand","","","","tol_peg_1","13220","13220","0","[[0,0,0],[3,0],[2]]","2","[[2,0,0],[1,3],[0]]","10","0","","","","","","6","","","","","","","","",""
"","","","","","single-stim-button","151","487961","0.0-2.0-40.1-1.1","63e51f09c02713c63a9fa186","A3","batch1","","589","tol_toboard","","","","tol_peg_2","589","589","0","[[0,0,0],[3,1],[2]]","2","[[2,0,0],[1,3],[0]]","10","0","","","","","","6","","","","","","","","",""
"","","","","","single-stim-button","152","488399","0.0-2.0-40.2-0.2","63e51f09c02713c63a9fa186","A3","batch1","","437","tol_tohand","","","","tol_peg_3","437","437","0","[[0,0,0],[3,1],[0]]","3","[[2,0,0],[1,3],[0]]","10","0","","","","","","6","","","","","","","","",""
"","","","","","single-stim-button","153","489289","0.0-2.0-40.2-1.2","63e51f09c02713c63a9fa186","A3","batch1","","889","tol_toboard","","","","tol_peg_1","889","889","0","[[2,0,0],[3,1],[0]]","3","[[2,0,0],[1,3],[0]]","10","0","","","","","","6","","","","","","","","",""
"","","","","","single-stim-button","154","490386","0.0-2.0-40.3-0.3","63e51f09c02713c63a9fa186","A3","batch1","","1097","tol_tohand","","","","tol_peg_2","1097","1097","0","[[2,0,0],[3,0],[0]]","4","[[2,0,0],[1,3],[0]]","10","0","","","","","","6","","","","","","","","",""
"","","","","","single-stim-button","155","491117","0.0-2.0-40.3-1.3","63e51f09c02713c63a9fa186","A3","batch1","","730","tol_toboard","","","","tol_peg_3","730","730","0","[[2,0,0],[3,0],[1]]","4","[[2,0,0],[1,3],[0]]","10","0","","","","","","6","","","","","","","","",""
"","","","","","single-stim-button","156","492142","0.0-2.0-40.4-0.4","63e51f09c02713c63a9fa186","A3","batch1","","1024","tol_tohand","","","","tol_peg_2","1024","1024","0","[[2,0,0],[0,0],[1]]","5","[[2,0,0],[1,3],[0]]","10","0","","","","","","6","","","","","","","","",""
"","","","","","single-stim-button","157","492660","0.0-2.0-40.4-1.4","63e51f09c02713c63a9fa186","A3","batch1","","518","tol_toboard","","","","tol_peg_1","518","518","0","[[2,3,0],[0,0],[1]]","5","[[2,0,0],[1,3],[0]]","10","0","","","","","","6","","","","","","","","",""
"","","","","","single-stim-button","158","493122","0.0-2.0-40.5-0.5","63e51f09c02713c63a9fa186","A3","batch1","","461","tol_tohand","","","","tol_peg_3","461","461","0","[[2,3,0],[0,0],[0]]","6","[[2,0,0],[1,3],[0]]","10","0","","","","","","6","","","","","","","","",""
"","","","","","single-stim-button","159","493504","0.0-2.0-40.5-1.5","63e51f09c02713c63a9fa186","A3","batch1","","381","tol_toboard","","","","tol_peg_2","381","381","0","[[2,3,0],[1,0],[0]]","6","[[2,0,0],[1,3],[0]]","10","0","","","","","","6","","","","","","","","",""
"","","","","","single-stim-button","160","493876","0.0-2.0-40.6-0.6","63e51f09c02713c63a9fa186","A3","batch1","","370","tol_tohand","","","","tol_peg_1","370","370","0","[[2,0,0],[1,0],[0]]","7","[[2,0,0],[1,3],[0]]","10","0","","","","","","6","","","","","","","","",""
"","","","","","single-stim-button","161","494173","0.0-2.0-40.6-1.6","63e51f09c02713c63a9fa186","A3","batch1","","296","tol_toboard","","","","tol_peg_2","296","296","0","[[2,0,0],[1,3],[0]]","7","[[2,0,0],[1,3],[0]]","10","0","","","","","","6","","","","","","","","",""
"","","","","","poldrack-single-stim","162","495176","0.0-2.0-41.0","63e51f09c02713c63a9fa186","A3","batch1","","-1","tol_feedback","","","true","","1000","1000","500","","","","","","-1","none","true","3746","20355","","","","","","","","","",""
"","","","","","html-button-response","163","495808","0.0-2.0-42.0","63e51f09c02713c63a9fa186","A3","batch1","","631.6000000014901","tol_trial_num","<div class = centerbox><p class = center-block-text>problem <strong>12</strong> out of 25 problems</p></div>","0","","","","","","","","","","","","","","","","","","","","","","","","",""
"","","","","","single-stim-button","164","498075","0.0-2.0-43.0-0.0","63e51f09c02713c63a9fa186","A3","batch1","","2266","tol_tohand","","","","tol_peg_1","2266","2266","0","[[1,0,0],[3,0],[0]]","1","[[2,3,0],[0,0],[1]]","11","0","","","","","","4","","","","","","","","",""
"","","","","","single-stim-button","165","498532","0.0-2.0-43.0-1.0","63e51f09c02713c63a9fa186","A3","batch1","","456","tol_toboard","","","","tol_peg_2","456","456","0","[[1,0,0],[3,2],[0]]","1","[[2,3,0],[0,0],[1]]","11","0","","","","","","4","","","","","","","","",""
"","","","","","single-stim-button","166","499029","0.0-2.0-43.1-0.1","63e51f09c02713c63a9fa186","A3","batch1","","497","tol_tohand","","","","tol_peg_1","497","497","0","[[0,0,0],[3,2],[0]]","2","[[2,3,0],[0,0],[1]]","11","0","","","","","","4","","","","","","","","",""
"","","","","","single-stim-button","167","499607","0.0-2.0-43.1-1.1","63e51f09c02713c63a9fa186","A3","batch1","","577","tol_toboard","","","","tol_peg_3","577","577","0","[[0,0,0],[3,2],[1]]","2","[[2,3,0],[0,0],[1]]","11","0","","","","","","4","","","","","","","","",""
"","","","","","single-stim-button","168","501197","0.0-2.0-43.2-0.2","63e51f09c02713c63a9fa186","A3","batch1","","1588","tol_tohand","","","","tol_peg_2","1588","1588","0","[[0,0,0],[3,0],[1]]","3","[[2,3,0],[0,0],[1]]","11","0","","","","","","4","","","","","","","","",""
"","","","","","single-stim-button","169","501738","0.0-2.0-43.2-1.2","63e51f09c02713c63a9fa186","A3","batch1","","540","tol_toboard","","","","tol_peg_1","540","540","0","[[2,0,0],[3,0],[1]]","3","[[2,3,0],[0,0],[1]]","11","0","","","","","","4","","","","","","","","",""
"","","","","","single-stim-button","170","502153","0.0-2.0-43.3-0.3","63e51f09c02713c63a9fa186","A3","batch1","","415","tol_tohand","","","","tol_peg_2","415","415","0","[[2,0,0],[0,0],[1]]","4","[[2,3,0],[0,0],[1]]","11","0","","","","","","4","","","","","","","","",""
"","","","","","single-stim-button","171","502854","0.0-2.0-43.3-1.3","63e51f09c02713c63a9fa186","A3","batch1","","700","tol_toboard","","","","tol_peg_1","700","700","0","[[2,3,0],[0,0],[1]]","4","[[2,3,0],[0,0],[1]]","11","0","","","","","","4","","","","","","","","",""
"","","","","","poldrack-single-stim","172","503855","0.0-2.0-44.0","63e51f09c02713c63a9fa186","A3","batch1","","-1","tol_feedback","","","true","","1000","1000","500","","","","","","-1","none","true","2266","4766","","","","","","","","","",""
"","","","","","html-button-response","173","504536","0.0-2.0-45.0","63e51f09c02713c63a9fa186","A3","batch1","","678.8000000044703","tol_trial_num","<div class = centerbox><p class = center-block-text>problem <strong>13</strong> out of 25 problems</p></div>","0","","","","","","","","","","","","","","","","","","","","","","","","",""
"","","","","","single-stim-button","174","506056","0.0-2.0-46.0-0.0","63e51f09c02713c63a9fa186","A3","batch1","","1519","tol_tohand","","","","tol_peg_1","1519","1519","0","[[1,0,0],[3,0],[0]]","1","[[0,0,0],[2,3],[1]]","12","0","","","","","","4","","","","","","","","",""
"","","","","","single-stim-button","175","506415","0.0-2.0-46.0-1.0","63e51f09c02713c63a9fa186","A3","batch1","","358","tol_toboard","","","","tol_peg_2","358","358","0","[[1,0,0],[3,2],[0]]","1","[[0,0,0],[2,3],[1]]","12","0","","","","","","4","","","","","","","","",""
"","","","","","single-stim-button","176","506777","0.0-2.0-46.1-0.1","63e51f09c02713c63a9fa186","A3","batch1","","362","tol_tohand","","","","tol_peg_1","362","362","0","[[0,0,0],[3,2],[0]]","2","[[0,0,0],[2,3],[1]]","12","0","","","","","","4","","","","","","","","",""
"","","","","","single-stim-button","177","507359","0.0-2.0-46.1-1.1","63e51f09c02713c63a9fa186","A3","batch1","","581","tol_toboard","","","","tol_peg_3","581","581","0","[[0,0,0],[3,2],[1]]","2","[[0,0,0],[2,3],[1]]","12","0","","","","","","4","","","","","","","","",""
"","","","","","single-stim-button","178","507974","0.0-2.0-46.2-0.2","63e51f09c02713c63a9fa186","A3","batch1","","613","tol_tohand","","","","tol_peg_2","613","613","0","[[0,0,0],[3,0],[1]]","3","[[0,0,0],[2,3],[1]]","12","0","","","","","","4","","","","","","","","",""
"","","","","","single-stim-button","179","508508","0.0-2.0-46.2-1.2","63e51f09c02713c63a9fa186","A3","batch1","","534","tol_toboard","","","","tol_peg_1","534","534","0","[[2,0,0],[3,0],[1]]","3","[[0,0,0],[2,3],[1]]","12","0","","","","","","4","","","","","","","","",""
"","","","","","single-stim-button","180","511398","0.0-2.0-46.3-0.3","63e51f09c02713c63a9fa186","A3","batch1","","2889","tol_tohand","","","","tol_peg_2","2889","2889","0","[[2,0,0],[0,0],[1]]","4","[[0,0,0],[2,3],[1]]","12","0","","","","","","4","","","","","","","","",""
"","","","","","single-stim-button","181","511966","0.0-2.0-46.3-1.3","63e51f09c02713c63a9fa186","A3","batch1","","568","tol_toboard","","","","tol_peg_1","568","568","0","[[2,3,0],[0,0],[1]]","4","[[0,0,0],[2,3],[1]]","12","0","","","","","","4","","","","","","","","",""
"","","","","","single-stim-button","182","515530","0.0-2.0-46.4-0.4","63e51f09c02713c63a9fa186","A3","batch1","","3563","tol_tohand","","","","tol_peg_3","3563","3563","0","[[2,3,0],[0,0],[0]]","5","[[0,0,0],[2,3],[1]]","12","0","","","","","","4","","","","","","","","",""
"","","","","","single-stim-button","183","517026","0.0-2.0-46.4-1.4","63e51f09c02713c63a9fa186","A3","batch1","","1495","tol_toboard","","","","tol_peg_2","1495","1495","0","[[2,3,0],[1,0],[0]]","5","[[0,0,0],[2,3],[1]]","12","0","","","","","","4","","","","","","","","",""
"","","","","","single-stim-button","184","517570","0.0-2.0-46.5-0.5","63e51f09c02713c63a9fa186","A3","batch1","","544","tol_tohand","","","","tol_peg_1","544","544","0","[[2,0,0],[1,0],[0]]","6","[[0,0,0],[2,3],[1]]","12","0","","","","","","4","","","","","","","","",""
"","","","","","single-stim-button","185","518314","0.0-2.0-46.5-1.5","63e51f09c02713c63a9fa186","A3","batch1","","743","tol_toboard","","","","tol_peg_3","743","743","0","[[2,0,0],[1,0],[3]]","6","[[0,0,0],[2,3],[1]]","12","0","","","","","","4","","","","","","","","",""
"","","","","","single-stim-button","186","519343","0.0-2.0-46.6-0.6","63e51f09c02713c63a9fa186","A3","batch1","","1028","tol_tohand","","","","tol_peg_1","1028","1028","0","[[0,0,0],[1,0],[3]]","7","[[0,0,0],[2,3],[1]]","12","0","","","","","","4","","","","","","","","",""
"","","","","","single-stim-button","187","519942","0.0-2.0-46.6-1.6","63e51f09c02713c63a9fa186","A3","batch1","","597","tol_toboard","","","","tol_peg_2","597","597","0","[[0,0,0],[1,2],[3]]","7","[[0,0,0],[2,3],[1]]","12","0","","","","","","4","","","","","","","","",""
"","","","","","single-stim-button","188","520450","0.0-2.0-46.7-0.7","63e51f09c02713c63a9fa186","A3","batch1","","507","tol_tohand","","","","tol_peg_3","507","507","0","[[0,0,0],[1,2],[0]]","8","[[0,0,0],[2,3],[1]]","12","0","","","","","","4","","","","","","","","",""
"","","","","","single-stim-button","189","521032","0.0-2.0-46.7-1.7","63e51f09c02713c63a9fa186","A3","batch1","","582","tol_toboard","","","","tol_peg_1","582","582","0","[[3,0,0],[1,2],[0]]","8","[[0,0,0],[2,3],[1]]","12","0","","","","","","4","","","","","","","","",""
"","","","","","single-stim-button","190","522139","0.0-2.0-46.8-0.8","63e51f09c02713c63a9fa186","A3","batch1","","1105","tol_tohand","","","","tol_peg_2","1105","1105","0","[[3,0,0],[1,0],[0]]","9","[[0,0,0],[2,3],[1]]","12","0","","","","","","4","","","","","","","","",""
"","","","","","single-stim-button","191","522706","0.0-2.0-46.8-1.8","63e51f09c02713c63a9fa186","A3","batch1","","567","tol_toboard","","","","tol_peg_3","567","567","0","[[3,0,0],[1,0],[2]]","9","[[0,0,0],[2,3],[1]]","12","0","","","","","","4","","","","","","","","",""
"","","","","","single-stim-button","192","523363","0.0-2.0-46.9-0.9","63e51f09c02713c63a9fa186","A3","batch1","","656","tol_tohand","","","","tol_peg_2","656","656","0","[[3,0,0],[0,0],[2]]","10","[[0,0,0],[2,3],[1]]","12","0","","","","","","4","","","","","","","","",""
"","","","","","single-stim-button","193","523876","0.0-2.0-46.9-1.9","63e51f09c02713c63a9fa186","A3","batch1","","512","tol_toboard","","","","tol_peg_1","512","512","0","[[3,1,0],[0,0],[2]]","10","[[0,0,0],[2,3],[1]]","12","0","","","","","","4","","","","","","","","",""
"","","","","","single-stim-button","194","527549","0.0-2.0-46.10-0.10","63e51f09c02713c63a9fa186","A3","batch1","","3672","tol_tohand","","","","tol_peg_3","3672","3672","0","[[3,1,0],[0,0],[0]]","11","[[0,0,0],[2,3],[1]]","12","0","","","","","","4","","","","","","","","",""
"","","","","","single-stim-button","195","528112","0.0-2.0-46.10-1.10","63e51f09c02713c63a9fa186","A3","batch1","","562","tol_toboard","","","","tol_peg_2","562","562","0","[[3,1,0],[2,0],[0]]","11","[[0,0,0],[2,3],[1]]","12","0","","","","","","4","","","","","","","","",""
"","","","","","single-stim-button","196","528548","0.0-2.0-46.11-0.11","63e51f09c02713c63a9fa186","A3","batch1","","435","tol_tohand","","","","tol_peg_1","435","435","0","[[3,0,0],[2,0],[0]]","12","[[0,0,0],[2,3],[1]]","12","0","","","","","","4","","","","","","","","",""
"","","","","","single-stim-button","197","529174","0.0-2.0-46.11-1.11","63e51f09c02713c63a9fa186","A3","batch1","","624","tol_toboard","","","","tol_peg_3","624","624","0","[[3,0,0],[2,0],[1]]","12","[[0,0,0],[2,3],[1]]","12","0","","","","","","4","","","","","","","","",""
"","","","","","single-stim-button","198","529742","0.0-2.0-46.12-0.12","63e51f09c02713c63a9fa186","A3","batch1","","567","tol_tohand","","","","tol_peg_1","567","567","0","[[0,0,0],[2,0],[1]]","13","[[0,0,0],[2,3],[1]]","12","0","","","","","","4","","","","","","","","",""
"","","","","","single-stim-button","199","530118","0.0-2.0-46.12-1.12","63e51f09c02713c63a9fa186","A3","batch1","","375","tol_toboard","","","","tol_peg_2","375","375","0","[[0,0,0],[2,3],[1]]","13","[[0,0,0],[2,3],[1]]","12","0","","","","","","4","","","","","","","","",""
"","","","","","poldrack-single-stim","200","531119","0.0-2.0-47.0","63e51f09c02713c63a9fa186","A3","batch1","","-1","tol_feedback","","","true","","1000","1000","500","","","","","","-1","none","true","1519","17460","","","","","","","","","",""
"","","","","","html-button-response","201","540656","0.0-2.0-48.0","63e51f09c02713c63a9fa186","A3","batch1","","9535.80000000447","attention_check","<p class = block-text>How many balls are in your board<br></p>","1","true","","","","","","","","","","","","","","","","","","","","","","","",""
"","","","","","html-button-response","202","541540","0.0-2.0-49.0","63e51f09c02713c63a9fa186","A3","batch1","","882.2999999970198","tol_trial_num","<div class = centerbox><p class = center-block-text>problem <strong>14</strong> out of 25 problems</p></div>","0","","","","","","","","","","","","","","","","","","","","","","","","",""
"","","","","","single-stim-button","203","545126","0.0-2.0-50.0-0.0","63e51f09c02713c63a9fa186","A3","batch1","","3584","tol_tohand","","","","tol_peg_1","3584","3584","0","[[2,0,0],[3,0],[0]]","1","[[1,2,0],[3,0],[0]]","13","0","","","","","","4","","","","","","","","",""
"","","","","","single-stim-button","204","545718","0.0-2.0-50.0-1.0","63e51f09c02713c63a9fa186","A3","batch1","","591","tol_toboard","","","","tol_peg_3","591","591","0","[[2,0,0],[3,0],[1]]","1","[[1,2,0],[3,0],[0]]","13","0","","","","","","4","","","","","","","","",""
"","","","","","single-stim-button","205","546904","0.0-2.0-50.1-0.1","63e51f09c02713c63a9fa186","A3","batch1","","1185","tol_tohand","","","","tol_peg_1","1185","1185","0","[[0,0,0],[3,0],[1]]","2","[[1,2,0],[3,0],[0]]","13","0","","","","","","4","","","","","","","","",""
"","","","","","single-stim-button","206","547369","0.0-2.0-50.1-1.1","63e51f09c02713c63a9fa186","A3","batch1","","465","tol_toboard","","","","tol_peg_2","465","465","0","[[0,0,0],[3,2],[1]]","2","[[1,2,0],[3,0],[0]]","13","0","","","","","","4","","","","","","","","",""
"","","","","","single-stim-button","207","548107","0.0-2.0-50.2-0.2","63e51f09c02713c63a9fa186","A3","batch1","","737","tol_tohand","","","","tol_peg_3","737","737","0","[[0,0,0],[3,2],[0]]","3","[[1,2,0],[3,0],[0]]","13","0","","","","","","4","","","","","","","","",""
"","","","","","single-stim-button","208","548565","0.0-2.0-50.2-1.2","63e51f09c02713c63a9fa186","A3","batch1","","457","tol_toboard","","","","tol_peg_1","457","457","0","[[1,0,0],[3,2],[0]]","3","[[1,2,0],[3,0],[0]]","13","0","","","","","","4","","","","","","","","",""
"","","","","","single-stim-button","209","548916","0.0-2.0-50.3-0.3","63e51f09c02713c63a9fa186","A3","batch1","","350","tol_tohand","","","","tol_peg_2","350","350","0","[[1,0,0],[3,0],[0]]","4","[[1,2,0],[3,0],[0]]","13","0","","","","","","4","","","","","","","","",""
"","","","","","single-stim-button","210","549278","0.0-2.0-50.3-1.3","63e51f09c02713c63a9fa186","A3","batch1","","360","tol_toboard","","","","tol_peg_1","360","360","0","[[1,2,0],[3,0],[0]]","4","[[1,2,0],[3,0],[0]]","13","0","","","","","","4","","","","","","","","",""
"","","","","","poldrack-single-stim","211","550280","0.0-2.0-51.0","63e51f09c02713c63a9fa186","A3","batch1","","-1","tol_feedback","","","true","","1000","1000","500","","","","","","-1","none","true","3584","5856","","","","","","","","","",""
"","","","","","html-button-response","212","550960","0.0-2.0-52.0","63e51f09c02713c63a9fa186","A3","batch1","","679.5","tol_trial_num","<div class = centerbox><p class = center-block-text>problem <strong>15</strong> out of 25 problems</p></div>","0","","","","","","","","","","","","","","","","","","","","","","","","",""
"","","","","","single-stim-button","213","554315","0.0-2.0-53.0-0.0","63e51f09c02713c63a9fa186","A3","batch1","","3354","tol_tohand","","","","tol_peg_1","3354","3354","0","[[1,0,0],[3,0],[0]]","1","[[2,0,0],[3,0],[1]]","14","0","","","","","","3","","","","","","","","",""
"","","","","","single-stim-button","214","555055","0.0-2.0-53.0-1.0","63e51f09c02713c63a9fa186","A3","batch1","","738","tol_toboard","","","","tol_peg_3","738","738","0","[[1,0,0],[3,0],[2]]","1","[[2,0,0],[3,0],[1]]","14","0","","","","","","3","","","","","","","","",""
"","","","","","single-stim-button","215","557117","0.0-2.0-53.1-0.1","63e51f09c02713c63a9fa186","A3","batch1","","2060","tol_tohand","","","","tol_peg_1","2060","2060","0","[[0,0,0],[3,0],[2]]","2","[[2,0,0],[3,0],[1]]","14","0","","","","","","3","","","","","","","","",""
"","","","","","single-stim-button","216","557546","0.0-2.0-53.1-1.1","63e51f09c02713c63a9fa186","A3","batch1","","428","tol_toboard","","","","tol_peg_2","428","428","0","[[0,0,0],[3,1],[2]]","2","[[2,0,0],[3,0],[1]]","14","0","","","","","","3","","","","","","","","",""
"","","","","","single-stim-button","217","558038","0.0-2.0-53.2-0.2","63e51f09c02713c63a9fa186","A3","batch1","","491","tol_tohand","","","","tol_peg_3","491","491","0","[[0,0,0],[3,1],[0]]","3","[[2,0,0],[3,0],[1]]","14","0","","","","","","3","","","","","","","","",""
"","","","","","single-stim-button","218","558503","0.0-2.0-53.2-1.2","63e51f09c02713c63a9fa186","A3","batch1","","465","tol_toboard","","","","tol_peg_1","465","465","0","[[2,0,0],[3,1],[0]]","3","[[2,0,0],[3,0],[1]]","14","0","","","","","","3","","","","","","","","",""
"","","","","","single-stim-button","219","558931","0.0-2.0-53.3-0.3","63e51f09c02713c63a9fa186","A3","batch1","","427","tol_tohand","","","","tol_peg_2","427","427","0","[[2,0,0],[3,0],[0]]","4","[[2,0,0],[3,0],[1]]","14","0","","","","","","3","","","","","","","","",""
"","","","","","single-stim-button","220","559518","0.0-2.0-53.3-1.3","63e51f09c02713c63a9fa186","A3","batch1","","587","tol_toboard","","","","tol_peg_3","587","587","0","[[2,0,0],[3,0],[1]]","4","[[2,0,0],[3,0],[1]]","14","0","","","","","","3","","","","","","","","",""
"","","","","","poldrack-single-stim","221","560520","0.0-2.0-54.0","63e51f09c02713c63a9fa186","A3","batch1","","-1","tol_feedback","","","true","","1000","1000","500","","","","","","-1","none","true","3354","6332","","","","","","","","","",""
"","","","","","html-button-response","222","561122","0.0-2.0-55.0","63e51f09c02713c63a9fa186","A3","batch1","","602.2000000029802","tol_trial_num","<div class = centerbox><p class = center-block-text>problem <strong>16</strong> out of 25 problems</p></div>","0","","","","","","","","","","","","","","","","","","","","","","","","",""
"","","","","","single-stim-button","223","573461","0.0-2.0-56.0-0.0","63e51f09c02713c63a9fa186","A3","batch1","","12338","tol_tohand","","","","tol_peg_3","12338","12338","0","[[0,0,0],[2,3],[0]]","1","[[2,3,0],[1,0],[0]]","15","0","","","","","","7","","","","","","","","",""
"","","","","","single-stim-button","224","575457","0.0-2.0-56.0-1.0","63e51f09c02713c63a9fa186","A3","batch1","","1995","tol_toboard","","","","tol_peg_1","1995","1995","0","[[1,0,0],[2,3],[0]]","1","[[2,3,0],[1,0],[0]]","15","0","","","","","","7","","","","","","","","",""
"","","","","","single-stim-button","225","575923","0.0-2.0-56.1-0.1","63e51f09c02713c63a9fa186","A3","batch1","","466","tol_tohand","","","","tol_peg_2","466","466","0","[[1,0,0],[2,0],[0]]","2","[[2,3,0],[1,0],[0]]","15","0","","","","","","7","","","","","","","","",""
"","","","","","single-stim-button","226","576484","0.0-2.0-56.1-1.1","63e51f09c02713c63a9fa186","A3","batch1","","561","tol_toboard","","","","tol_peg_3","561","561","0","[[1,0,0],[2,0],[3]]","2","[[2,3,0],[1,0],[0]]","15","0","","","","","","7","","","","","","","","",""
"","","","","","single-stim-button","227","582308","0.0-2.0-56.2-0.2","63e51f09c02713c63a9fa186","A3","batch1","","5824","tol_tohand","","","","tol_peg_2","5824","5824","0","[[1,0,0],[0,0],[3]]","3","[[2,3,0],[1,0],[0]]","15","0","","","","","","7","","","","","","","","",""
"","","","","","single-stim-button","228","582917","0.0-2.0-56.2-1.2","63e51f09c02713c63a9fa186","A3","batch1","","608","tol_toboard","","","","tol_peg_1","608","608","0","[[1,2,0],[0,0],[3]]","3","[[2,3,0],[1,0],[0]]","15","0","","","","","","7","","","","","","","","",""
"","","","","","single-stim-button","229","583808","0.0-2.0-56.3-0.3","63e51f09c02713c63a9fa186","A3","batch1","","891","tol_tohand","","","","tol_peg_3","891","891","0","[[1,2,0],[0,0],[0]]","4","[[2,3,0],[1,0],[0]]","15","0","","","","","","7","","","","","","","","",""
"","","","","","single-stim-button","230","584305","0.0-2.0-56.3-1.3","63e51f09c02713c63a9fa186","A3","batch1","","495","tol_toboard","","","","tol_peg_2","495","495","0","[[1,2,0],[3,0],[0]]","4","[[2,3,0],[1,0],[0]]","15","0","","","","","","7","","","","","","","","",""
"","","","","","single-stim-button","231","585649","0.0-2.0-56.4-0.4","63e51f09c02713c63a9fa186","A3","batch1","","1344","tol_tohand","","","","tol_peg_1","1344","1344","0","[[1,0,0],[3,0],[0]]","5","[[2,3,0],[1,0],[0]]","15","0","","","","","","7","","","","","","","","",""
"","","","","","single-stim-button","232","586723","0.0-2.0-56.4-1.4","63e51f09c02713c63a9fa186","A3","batch1","","1073","tol_toboard","","","","tol_peg_3","1073","1073","0","[[1,0,0],[3,0],[2]]","5","[[2,3,0],[1,0],[0]]","15","0","","","","","","7","","","","","","","","",""
"","","","","","single-stim-button","233","589710","0.0-2.0-56.5-0.5","63e51f09c02713c63a9fa186","A3","batch1","","2987","tol_tohand","","","","tol_peg_1","2987","2987","0","[[0,0,0],[3,0],[2]]","6","[[2,3,0],[1,0],[0]]","15","0","","","","","","7","","","","","","","","",""
"","","","","","single-stim-button","234","590273","0.0-2.0-56.5-1.5","63e51f09c02713c63a9fa186","A3","batch1","","563","tol_toboard","","","","tol_peg_2","563","563","0","[[0,0,0],[3,1],[2]]","6","[[2,3,0],[1,0],[0]]","15","0","","","","","","7","","","","","","","","",""
"","","","","","single-stim-button","235","590970","0.0-2.0-56.6-0.6","63e51f09c02713c63a9fa186","A3","batch1","","696","tol_tohand","","","","tol_peg_3","696","696","0","[[0,0,0],[3,1],[0]]","7","[[2,3,0],[1,0],[0]]","15","0","","","","","","7","","","","","","","","",""
"","","","","","single-stim-button","236","591592","0.0-2.0-56.6-1.6","63e51f09c02713c63a9fa186","A3","batch1","","622","tol_toboard","","","","tol_peg_1","622","622","0","[[2,0,0],[3,1],[0]]","7","[[2,3,0],[1,0],[0]]","15","0","","","","","","7","","","","","","","","",""
"","","","","","single-stim-button","237","592060","0.0-2.0-56.7-0.7","63e51f09c02713c63a9fa186","A3","batch1","","467","tol_tohand","","","","tol_peg_2","467","467","0","[[2,0,0],[3,0],[0]]","8","[[2,3,0],[1,0],[0]]","15","0","","","","","","7","","","","","","","","",""
"","","","","","single-stim-button","238","592692","0.0-2.0-56.7-1.7","63e51f09c02713c63a9fa186","A3","batch1","","632","tol_toboard","","","","tol_peg_3","632","632","0","[[2,0,0],[3,0],[1]]","8","[[2,3,0],[1,0],[0]]","15","0","","","","","","7","","","","","","","","",""
"","","","","","single-stim-button","239","593235","0.0-2.0-56.8-0.8","63e51f09c02713c63a9fa186","A3","batch1","","542","tol_tohand","","","","tol_peg_2","542","542","0","[[2,0,0],[0,0],[1]]","9","[[2,3,0],[1,0],[0]]","15","0","","","","","","7","","","","","","","","",""
"","","","","","single-stim-button","240","593791","0.0-2.0-56.8-1.8","63e51f09c02713c63a9fa186","A3","batch1","","555","tol_toboard","","","","tol_peg_1","555","555","0","[[2,3,0],[0,0],[1]]","9","[[2,3,0],[1,0],[0]]","15","0","","","","","","7","","","","","","","","",""
"","","","","","single-stim-button","241","594483","0.0-2.0-56.9-0.9","63e51f09c02713c63a9fa186","A3","batch1","","691","tol_tohand","","","","tol_peg_3","691","691","0","[[2,3,0],[0,0],[0]]","10","[[2,3,0],[1,0],[0]]","15","0","","","","","","7","","","","","","","","",""
"","","","","","single-stim-button","242","594820","0.0-2.0-56.9-1.9","63e51f09c02713c63a9fa186","A3","batch1","","337","tol_toboard","","","","tol_peg_2","337","337","0","[[2,3,0],[1,0],[0]]","10","[[2,3,0],[1,0],[0]]","15","0","","","","","","7","","","","","","","","",""
"","","","","","poldrack-single-stim","243","595832","0.0-2.0-57.0","63e51f09c02713c63a9fa186","A3","batch1","","-1","tol_feedback","","","true","","1000","1000","500","","","","","","-1","none","true","12338","26246","","","","","","","","","",""
"","","","","","html-button-response","244","596435","0.0-2.0-58.0","63e51f09c02713c63a9fa186","A3","batch1","","601.9000000059605","tol_trial_num","<div class = centerbox><p class = center-block-text>problem <strong>17</strong> out of 25 problems</p></div>","0","","","","","","","","","","","","","","","","","","","","","","","","",""
"","","","","","single-stim-button","245","600632","0.0-2.0-59.0-0.0","63e51f09c02713c63a9fa186","A3","batch1","","4196","tol_tohand","","","","tol_peg_1","4196","4196","0","[[1,0,0],[3,0],[0]]","1","[[3,1,0],[2,0],[0]]","16","0","","","","","","5","","","","","","","","",""
"","","","","","single-stim-button","246","601262","0.0-2.0-59.0-1.0","63e51f09c02713c63a9fa186","A3","batch1","","629","tol_toboard","","","","tol_peg_3","629","629","0","[[1,0,0],[3,0],[2]]","1","[[3,1,0],[2,0],[0]]","16","0","","","","","","5","","","","","","","","",""
"","","","","","single-stim-button","247","604883","0.0-2.0-59.1-0.1","63e51f09c02713c63a9fa186","A3","batch1","","3619","tol_tohand","","","","tol_peg_1","3619","3619","0","[[0,0,0],[3,0],[2]]","2","[[3,1,0],[2,0],[0]]","16","0","","","","","","5","","","","","","","","",""
"","","","","","single-stim-button","248","605389","0.0-2.0-59.1-1.1","63e51f09c02713c63a9fa186","A3","batch1","","506","tol_toboard","","","","tol_peg_2","506","506","0","[[0,0,0],[3,1],[2]]","2","[[3,1,0],[2,0],[0]]","16","0","","","","","","5","","","","","","","","",""
"","","","","","single-stim-button","249","606413","0.0-2.0-59.2-0.2","63e51f09c02713c63a9fa186","A3","batch1","","1024","tol_tohand","","","","tol_peg_3","1024","1024","0","[[0,0,0],[3,1],[0]]","3","[[3,1,0],[2,0],[0]]","16","0","","","","","","5","","","","","","","","",""
"","","","","","single-stim-button","250","607000","0.0-2.0-59.2-1.2","63e51f09c02713c63a9fa186","A3","batch1","","587","tol_toboard","","","","tol_peg_1","587","587","0","[[2,0,0],[3,1],[0]]","3","[[3,1,0],[2,0],[0]]","16","0","","","","","","5","","","","","","","","",""
"","","","","","single-stim-button","251","607508","0.0-2.0-59.3-0.3","63e51f09c02713c63a9fa186","A3","batch1","","507","tol_tohand","","","","tol_peg_2","507","507","0","[[2,0,0],[3,0],[0]]","4","[[3,1,0],[2,0],[0]]","16","0","","","","","","5","","","","","","","","",""
"","","","","","single-stim-button","252","608196","0.0-2.0-59.3-1.3","63e51f09c02713c63a9fa186","A3","batch1","","687","tol_toboard","","","","tol_peg_3","687","687","0","[[2,0,0],[3,0],[1]]","4","[[3,1,0],[2,0],[0]]","16","0","","","","","","5","","","","","","","","",""
"","","","","","single-stim-button","253","619764","0.0-2.0-59.4-0.4","63e51f09c02713c63a9fa186","A3","batch1","","11567","tol_tohand","","","","tol_peg_1","11567","11567","0","[[0,0,0],[3,0],[1]]","5","[[3,1,0],[2,0],[0]]","16","0","","","","","","5","","","","","","","","",""
"","","","","","single-stim-button","254","620358","0.0-2.0-59.4-1.4","63e51f09c02713c63a9fa186","A3","batch1","","594","tol_toboard","","","","tol_peg_2","594","594","0","[[0,0,0],[3,2],[1]]","5","[[3,1,0],[2,0],[0]]","16","0","","","","","","5","","","","","","","","",""
"","","","","","single-stim-button","255","620896","0.0-2.0-59.5-0.5","63e51f09c02713c63a9fa186","A3","batch1","","538","tol_tohand","","","","tol_peg_3","538","538","0","[[0,0,0],[3,2],[0]]","6","[[3,1,0],[2,0],[0]]","16","0","","","","","","5","","","","","","","","",""
"","","","","","single-stim-button","256","621432","0.0-2.0-59.5-1.5","63e51f09c02713c63a9fa186","A3","batch1","","535","tol_toboard","","","","tol_peg_1","535","535","0","[[1,0,0],[3,2],[0]]","6","[[3,1,0],[2,0],[0]]","16","0","","","","","","5","","","","","","","","",""
"","","","","","single-stim-button","257","622304","0.0-2.0-59.6-0.6","63e51f09c02713c63a9fa186","A3","batch1","","870","tol_tohand","","","","tol_peg_2","870","870","0","[[1,0,0],[3,0],[0]]","7","[[3,1,0],[2,0],[0]]","16","0","","","","","","5","","","","","","","","",""
"","","","","","single-stim-button","258","623652","0.0-2.0-59.6-1.6","63e51f09c02713c63a9fa186","A3","batch1","","1348","tol_toboard","","","","tol_peg_2","1348","1348","0","[[1,0,0],[3,2],[0]]","7","[[3,1,0],[2,0],[0]]","16","0","","","","","","5","","","","","","","","",""
"","","","","","single-stim-button","259","628291","0.0-2.0-59.7-0.7","63e51f09c02713c63a9fa186","A3","batch1","","4638","tol_tohand","","","","tol_peg_2","4638","4638","0","[[1,0,0],[3,0],[0]]","8","[[3,1,0],[2,0],[0]]","16","0","","","","","","5","","","","","","","","",""
"","","","","","single-stim-button","260","628928","0.0-2.0-59.7-1.7","63e51f09c02713c63a9fa186","A3","batch1","","636","tol_toboard","","","","tol_peg_1","636","636","0","[[1,2,0],[3,0],[0]]","8","[[3,1,0],[2,0],[0]]","16","0","","","","","","5","","","","","","","","",""
"","","","","","single-stim-button","261","629539","0.0-2.0-59.8-0.8","63e51f09c02713c63a9fa186","A3","batch1","","610","tol_tohand","","","","tol_peg_2","610","610","0","[[1,2,0],[0,0],[0]]","9","[[3,1,0],[2,0],[0]]","16","0","","","","","","5","","","","","","","","",""
"","","","","","single-stim-button","262","629934","0.0-2.0-59.8-1.8","63e51f09c02713c63a9fa186","A3","batch1","","393","tol_toboard","","","","tol_peg_3","393","393","0","[[1,2,0],[0,0],[3]]","9","[[3,1,0],[2,0],[0]]","16","0","","","","","","5","","","","","","","","",""
"","","","","","single-stim-button","263","633343","0.0-2.0-59.9-0.9","63e51f09c02713c63a9fa186","A3","batch1","","3408","tol_tohand","","","","tol_peg_1","3408","3408","0","[[1,0,0],[0,0],[3]]","10","[[3,1,0],[2,0],[0]]","16","0","","","","","","5","","","","","","","","",""
"","","","","","single-stim-button","264","633948","0.0-2.0-59.9-1.9","63e51f09c02713c63a9fa186","A3","batch1","","604","tol_toboard","","","","tol_peg_2","604","604","0","[[1,0,0],[2,0],[3]]","10","[[3,1,0],[2,0],[0]]","16","0","","","","","","5","","","","","","","","",""
"","","","","","single-stim-button","265","636556","0.0-2.0-59.10-0.10","63e51f09c02713c63a9fa186","A3","batch1","","2607","tol_tohand","","","","tol_peg_1","2607","2607","0","[[0,0,0],[2,0],[3]]","11","[[3,1,0],[2,0],[0]]","16","0","","","","","","5","","","","","","","","",""
"","","","","","single-stim-button","266","636948","0.0-2.0-59.10-1.10","63e51f09c02713c63a9fa186","A3","batch1","","391","tol_toboard","","","","tol_peg_2","391","391","0","[[0,0,0],[2,1],[3]]","11","[[3,1,0],[2,0],[0]]","16","0","","","","","","5","","","","","","","","",""
"","","","","","single-stim-button","267","637365","0.0-2.0-59.11-0.11","63e51f09c02713c63a9fa186","A3","batch1","","417","tol_tohand","","","","tol_peg_3","417","417","0","[[0,0,0],[2,1],[0]]","12","[[3,1,0],[2,0],[0]]","16","0","","","","","","5","","","","","","","","",""
"","","","","","single-stim-button","268","637840","0.0-2.0-59.11-1.11","63e51f09c02713c63a9fa186","A3","batch1","","475","tol_toboard","","","","tol_peg_1","475","475","0","[[3,0,0],[2,1],[0]]","12","[[3,1,0],[2,0],[0]]","16","0","","","","","","5","","","","","","","","",""
"","","","","","single-stim-button","269","638168","0.0-2.0-59.12-0.12","63e51f09c02713c63a9fa186","A3","batch1","","327","tol_tohand","","","","tol_peg_2","327","327","0","[[3,0,0],[2,0],[0]]","13","[[3,1,0],[2,0],[0]]","16","0","","","","","","5","","","","","","","","",""
"","","","","","single-stim-button","270","638547","0.0-2.0-59.12-1.12","63e51f09c02713c63a9fa186","A3","batch1","","378","tol_toboard","","","","tol_peg_1","378","378","0","[[3,1,0],[2,0],[0]]","13","[[3,1,0],[2,0],[0]]","16","0","","","","","","5","","","","","","","","",""
"","","","","","poldrack-single-stim","271","639552","0.0-2.0-60.0","63e51f09c02713c63a9fa186","A3","batch1","","-1","tol_feedback","","","true","","1000","1000","500","","","","","","-1","none","true","4196","34328","","","","","","","","","",""
"","","","","","html-button-response","272","640070","0.0-2.0-61.0","63e51f09c02713c63a9fa186","A3","batch1","","515.5","tol_trial_num","<div class = centerbox><p class = center-block-text>problem <strong>18</strong> out of 25 problems</p></div>","0","","","","","","","","","","","","","","","","","","","","","","","","",""
"","","","","","single-stim-button","273","649394","0.0-2.0-62.0-0.0","63e51f09c02713c63a9fa186","A3","batch1","","9323","tol_tohand","","","","tol_peg_2","9323","9323","0","[[1,2,0],[0,0],[0]]","1","[[3,0,0],[2,0],[1]]","17","0","","","","","","5","","","","","","","","",""
"","","","","","single-stim-button","274","651772","0.0-2.0-62.0-1.0","63e51f09c02713c63a9fa186","A3","batch1","","2377","tol_toboard","","","","tol_peg_3","2377","2377","0","[[1,2,0],[0,0],[3]]","1","[[3,0,0],[2,0],[1]]","17","0","","","","","","5","","","","","","","","",""
"","","","","","single-stim-button","275","657860","0.0-2.0-62.1-0.1","63e51f09c02713c63a9fa186","A3","batch1","","6087","tol_tohand","","","","tol_peg_1","6087","6087","0","[[1,0,0],[0,0],[3]]","2","[[3,0,0],[2,0],[1]]","17","0","","","","","","5","","","","","","","","",""
"","","","","","single-stim-button","276","658602","0.0-2.0-62.1-1.1","63e51f09c02713c63a9fa186","A3","batch1","","741","tol_toboard","","","","tol_peg_2","741","741","0","[[1,0,0],[2,0],[3]]","2","[[3,0,0],[2,0],[1]]","17","0","","","","","","5","","","","","","","","",""
"","","","","","single-stim-button","277","658977","0.0-2.0-62.2-0.2","63e51f09c02713c63a9fa186","A3","batch1","","374","tol_tohand","","","","tol_peg_1","374","374","0","[[0,0,0],[2,0],[3]]","3","[[3,0,0],[2,0],[1]]","17","0","","","","","","5","","","","","","","","",""
"","","","","","single-stim-button","278","659386","0.0-2.0-62.2-1.2","63e51f09c02713c63a9fa186","A3","batch1","","408","tol_toboard","","","","tol_peg_2","408","408","0","[[0,0,0],[2,1],[3]]","3","[[3,0,0],[2,0],[1]]","17","0","","","","","","5","","","","","","","","",""
"","","","","","single-stim-button","279","659908","0.0-2.0-62.3-0.3","63e51f09c02713c63a9fa186","A3","batch1","","521","tol_tohand","","","","tol_peg_3","521","521","0","[[0,0,0],[2,1],[0]]","4","[[3,0,0],[2,0],[1]]","17","0","","","","","","5","","","","","","","","",""
"","","","","","single-stim-button","280","660639","0.0-2.0-62.3-1.3","63e51f09c02713c63a9fa186","A3","batch1","","731","tol_toboard","","","","tol_peg_1","731","731","0","[[3,0,0],[2,1],[0]]","4","[[3,0,0],[2,0],[1]]","17","0","","","","","","5","","","","","","","","",""
"","","","","","single-stim-button","281","661136","0.0-2.0-62.4-0.4","63e51f09c02713c63a9fa186","A3","batch1","","496","tol_tohand","","","","tol_peg_2","496","496","0","[[3,0,0],[2,0],[0]]","5","[[3,0,0],[2,0],[1]]","17","0","","","","","","5","","","","","","","","",""
"","","","","","single-stim-button","282","661603","0.0-2.0-62.4-1.4","63e51f09c02713c63a9fa186","A3","batch1","","465","tol_toboard","","","","tol_peg_3","465","465","0","[[3,0,0],[2,0],[1]]","5","[[3,0,0],[2,0],[1]]","17","0","","","","","","5","","","","","","","","",""
"","","","","","poldrack-single-stim","283","662605","0.0-2.0-63.0","63e51f09c02713c63a9fa186","A3","batch1","","-1","tol_feedback","","","true","","1000","1000","500","","","","","","-1","none","true","9323","16801","","","","","","","","","",""
"","","","","","html-button-response","284","663153","0.0-2.0-64.0","63e51f09c02713c63a9fa186","A3","batch1","","547.5","tol_trial_num","<div class = centerbox><p class = center-block-text>problem <strong>19</strong> out of 25 problems</p></div>","0","","","","","","","","","","","","","","","","","","","","","","","","",""
"","","","","","single-stim-button","285","669675","0.0-2.0-65.0-0.0","63e51f09c02713c63a9fa186","A3","batch1","","6520","tol_tohand","","","","tol_peg_1","6520","6520","0","[[1,0,0],[3,0],[0]]","1","[[0,0,0],[1,2],[3]]","18","0","","","","","","7","","","","","","","","",""
"","","","","","single-stim-button","286","670318","0.0-2.0-65.0-1.0","63e51f09c02713c63a9fa186","A3","batch1","","642","tol_toboard","","","","tol_peg_3","642","642","0","[[1,0,0],[3,0],[2]]","1","[[0,0,0],[1,2],[3]]","18","0","","","","","","7","","","","","","","","",""
"","","","","","single-stim-button","287","687999","0.0-2.0-65.1-0.1","63e51f09c02713c63a9fa186","A3","batch1","","17680","tol_tohand","","","","tol_peg_1","17680","17680","0","[[0,0,0],[3,0],[2]]","2","[[0,0,0],[1,2],[3]]","18","0","","","","","","7","","","","","","","","",""
"","","","","","single-stim-button","288","688649","0.0-2.0-65.1-1.1","63e51f09c02713c63a9fa186","A3","batch1","","648","tol_toboard","","","","tol_peg_2","648","648","0","[[0,0,0],[3,1],[2]]","2","[[0,0,0],[1,2],[3]]","18","0","","","","","","7","","","","","","","","",""
"","","","","","single-stim-button","289","689116","0.0-2.0-65.2-0.2","63e51f09c02713c63a9fa186","A3","batch1","","467","tol_tohand","","","","tol_peg_3","467","467","0","[[0,0,0],[3,1],[0]]","3","[[0,0,0],[1,2],[3]]","18","0","","","","","","7","","","","","","","","",""
"","","","","","single-stim-button","290","689671","0.0-2.0-65.2-1.2","63e51f09c02713c63a9fa186","A3","batch1","","553","tol_toboard","","","","tol_peg_1","553","553","0","[[2,0,0],[3,1],[0]]","3","[[0,0,0],[1,2],[3]]","18","0","","","","","","7","","","","","","","","",""
"","","","","","single-stim-button","291","690220","0.0-2.0-65.3-0.3","63e51f09c02713c63a9fa186","A3","batch1","","548","tol_tohand","","","","tol_peg_2","548","548","0","[[2,0,0],[3,0],[0]]","4","[[0,0,0],[1,2],[3]]","18","0","","","","","","7","","","","","","","","",""
"","","","","","single-stim-button","292","690964","0.0-2.0-65.3-1.3","63e51f09c02713c63a9fa186","A3","batch1","","743","tol_toboard","","","","tol_peg_3","743","743","0","[[2,0,0],[3,0],[1]]","4","[[0,0,0],[1,2],[3]]","18","0","","","","","","7","","","","","","","","",""
"","","","","","single-stim-button","293","693241","0.0-2.0-65.4-0.4","63e51f09c02713c63a9fa186","A3","batch1","","2277","tol_tohand","","","","tol_peg_2","2277","2277","0","[[2,0,0],[0,0],[1]]","5","[[0,0,0],[1,2],[3]]","18","0","","","","","","7","","","","","","","","",""
"","","","","","single-stim-button","294","693789","0.0-2.0-65.4-1.4","63e51f09c02713c63a9fa186","A3","batch1","","547","tol_toboard","","","","tol_peg_1","547","547","0","[[2,3,0],[0,0],[1]]","5","[[0,0,0],[1,2],[3]]","18","0","","","","","","7","","","","","","","","",""
"","","","","","single-stim-button","295","695007","0.0-2.0-65.5-0.5","63e51f09c02713c63a9fa186","A3","batch1","","1217","tol_tohand","","","","tol_peg_3","1217","1217","0","[[2,3,0],[0,0],[0]]","6","[[0,0,0],[1,2],[3]]","18","0","","","","","","7","","","","","","","","",""
"","","","","","single-stim-button","296","695550","0.0-2.0-65.5-1.5","63e51f09c02713c63a9fa186","A3","batch1","","542","tol_toboard","","","","tol_peg_2","542","542","0","[[2,3,0],[1,0],[0]]","6","[[0,0,0],[1,2],[3]]","18","0","","","","","","7","","","","","","","","",""
"","","","","","single-stim-button","297","696084","0.0-2.0-65.6-0.6","63e51f09c02713c63a9fa186","A3","batch1","","534","tol_tohand","","","","tol_peg_1","534","534","0","[[2,0,0],[1,0],[0]]","7","[[0,0,0],[1,2],[3]]","18","0","","","","","","7","","","","","","","","",""
"","","","","","single-stim-button","298","696682","0.0-2.0-65.6-1.6","63e51f09c02713c63a9fa186","A3","batch1","","597","tol_toboard","","","","tol_peg_3","597","597","0","[[2,0,0],[1,0],[3]]","7","[[0,0,0],[1,2],[3]]","18","0","","","","","","7","","","","","","","","",""
"","","","","","single-stim-button","299","697227","0.0-2.0-65.7-0.7","63e51f09c02713c63a9fa186","A3","batch1","","545","tol_tohand","","","","tol_peg_1","545","545","0","[[0,0,0],[1,0],[3]]","8","[[0,0,0],[1,2],[3]]","18","0","","","","","","7","","","","","","","","",""
"","","","","","single-stim-button","300","697551","0.0-2.0-65.7-1.7","63e51f09c02713c63a9fa186","A3","batch1","","322","tol_toboard","","","","tol_peg_2","322","322","0","[[0,0,0],[1,2],[3]]","8","[[0,0,0],[1,2],[3]]","18","0","","","","","","7","","","","","","","","",""
"","","","","","poldrack-single-stim","301","698552","0.0-2.0-66.0","63e51f09c02713c63a9fa186","A3","batch1","","-1","tol_feedback","","","true","","1000","1000","500","","","","","","-1","none","true","6520","29788","","","","","","","","","",""
"","","","","","html-button-response","302","699197","0.0-2.0-67.0","63e51f09c02713c63a9fa186","A3","batch1","","643.8999999985099","tol_trial_num","<div class = centerbox><p class = center-block-text>problem <strong>20</strong> out of 25 problems</p></div>","0","","","","","","","","","","","","","","","","","","","","","","","","",""
"","","","","","single-stim-button","303","713825","0.0-2.0-68.0-0.0","63e51f09c02713c63a9fa186","A3","batch1","","14628","tol_tohand","","","","tol_peg_1","14628","14628","0","[[1,0,0],[3,0],[0]]","1","[[2,1,0],[0,0],[3]]","19","0","","","","","","5","","","","","","","","",""
"","","","","","single-stim-button","304","714389","0.0-2.0-68.0-1.0","63e51f09c02713c63a9fa186","A3","batch1","","563","tol_toboard","","","","tol_peg_2","563","563","0","[[1,0,0],[3,2],[0]]","1","[[2,1,0],[0,0],[3]]","19","0","","","","","","5","","","","","","","","",""
"","","","","","single-stim-button","305","715585","0.0-2.0-68.1-0.1","63e51f09c02713c63a9fa186","A3","batch1","","1194","tol_tohand","","","","tol_peg_1","1194","1194","0","[[0,0,0],[3,2],[0]]","2","[[2,1,0],[0,0],[3]]","19","0","","","","","","5","","","","","","","","",""
"","","","","","single-stim-button","306","716147","0.0-2.0-68.1-1.1","63e51f09c02713c63a9fa186","A3","batch1","","561","tol_toboard","","","","tol_peg_3","561","561","0","[[0,0,0],[3,2],[1]]","2","[[2,1,0],[0,0],[3]]","19","0","","","","","","5","","","","","","","","",""
"","","","","","single-stim-button","307","716448","0.0-2.0-68.2-0.2","63e51f09c02713c63a9fa186","A3","batch1","","300","tol_tohand","","","","tol_peg_2","300","300","0","[[0,0,0],[3,0],[1]]","3","[[2,1,0],[0,0],[3]]","19","0","","","","","","5","","","","","","","","",""
"","","","","","single-stim-button","308","716907","0.0-2.0-68.2-1.2","63e51f09c02713c63a9fa186","A3","batch1","","458","tol_toboard","","","","tol_peg_1","458","458","0","[[2,0,0],[3,0],[1]]","3","[[2,1,0],[0,0],[3]]","19","0","","","","","","5","","","","","","","","",""
"","","","","","single-stim-button","309","717417","0.0-2.0-68.3-0.3","63e51f09c02713c63a9fa186","A3","batch1","","509","tol_tohand","","","","tol_peg_3","509","509","0","[[2,0,0],[3,0],[0]]","4","[[2,1,0],[0,0],[3]]","19","0","","","","","","5","","","","","","","","",""
"","","","","","single-stim-button","310","718024","0.0-2.0-68.3-1.3","63e51f09c02713c63a9fa186","A3","batch1","","607","tol_toboard","","","","tol_peg_1","607","607","0","[[2,1,0],[3,0],[0]]","4","[[2,1,0],[0,0],[3]]","19","0","","","","","","5","","","","","","","","",""
"","","","","","single-stim-button","311","718540","0.0-2.0-68.4-0.4","63e51f09c02713c63a9fa186","A3","batch1","","515","tol_tohand","","","","tol_peg_2","515","515","0","[[2,1,0],[0,0],[0]]","5","[[2,1,0],[0,0],[3]]","19","0","","","","","","5","","","","","","","","",""
"","","","","","single-stim-button","312","718999","0.0-2.0-68.4-1.4","63e51f09c02713c63a9fa186","A3","batch1","","458","tol_toboard","","","","tol_peg_3","458","458","0","[[2,1,0],[0,0],[3]]","5","[[2,1,0],[0,0],[3]]","19","0","","","","","","5","","","","","","","","",""
"","","","","","poldrack-single-stim","313","720002","0.0-2.0-69.0","63e51f09c02713c63a9fa186","A3","batch1","","-1","tol_feedback","","","true","","1000","1000","500","","","","","","-1","none","true","14628","17146","","","","","","","","","",""
"","","","","","html-button-response","314","720744","0.0-2.0-70.0","63e51f09c02713c63a9fa186","A3","batch1","","740.2999999970198","tol_trial_num","<div class = centerbox><p class = center-block-text>problem <strong>21</strong> out of 25 problems</p></div>","0","","","","","","","","","","","","","","","","","","","","","","","","",""
"","","","","","single-stim-button","315","724037","0.0-2.0-71.0-0.0","63e51f09c02713c63a9fa186","A3","batch1","","3292","tol_tohand","","","","tol_peg_1","3292","3292","0","[[1,0,0],[3,0],[0]]","1","[[3,2,0],[0,0],[1]]","20","0","","","","","","6","","","","","","","","",""
"","","","","","single-stim-button","316","764998","0.0-2.0-71.0-1.0","63e51f09c02713c63a9fa186","A3","batch1","","40961","tol_toboard","","","","tol_peg_2","40961","40961","0","[[1,0,0],[3,2],[0]]","1","[[3,2,0],[0,0],[1]]","20","0","","","","","","6","","","","","","","","",""
"","","","","","single-stim-button","317","767716","0.0-2.0-71.1-0.1","63e51f09c02713c63a9fa186","A3","batch1","","2717","tol_tohand","","","","tol_peg_1","2717","2717","0","[[0,0,0],[3,2],[0]]","2","[[3,2,0],[0,0],[1]]","20","0","","","","","","6","","","","","","","","",""
"","","","","","single-stim-button","318","770151","0.0-2.0-71.1-1.1","63e51f09c02713c63a9fa186","A3","batch1","","2434","tol_toboard","","","","tol_peg_1","2434","2434","0","[[1,0,0],[3,2],[0]]","2","[[3,2,0],[0,0],[1]]","20","0","","","","","","6","","","","","","","","",""
"","","","","","single-stim-button","319","772342","0.0-2.0-71.2-0.2","63e51f09c02713c63a9fa186","A3","batch1","","2190","tol_tohand","","","","tol_peg_2","2190","2190","0","[[1,0,0],[3,0],[0]]","3","[[3,2,0],[0,0],[1]]","20","0","","","","","","6","","","","","","","","",""
"","","","","","single-stim-button","320","772815","0.0-2.0-71.2-1.2","63e51f09c02713c63a9fa186","A3","batch1","","472","tol_toboard","","","","tol_peg_1","472","472","0","[[1,2,0],[3,0],[0]]","3","[[3,2,0],[0,0],[1]]","20","0","","","","","","6","","","","","","","","",""
"","","","","","single-stim-button","321","773353","0.0-2.0-71.3-0.3","63e51f09c02713c63a9fa186","A3","batch1","","537","tol_tohand","","","","tol_peg_2","537","537","0","[[1,2,0],[0,0],[0]]","4","[[3,2,0],[0,0],[1]]","20","0","","","","","","6","","","","","","","","",""
"","","","","","single-stim-button","322","773987","0.0-2.0-71.3-1.3","63e51f09c02713c63a9fa186","A3","batch1","","634","tol_toboard","","","","tol_peg_3","634","634","0","[[1,2,0],[0,0],[3]]","4","[[3,2,0],[0,0],[1]]","20","0","","","","","","6","","","","","","","","",""
"","","","","","single-stim-button","323","774722","0.0-2.0-71.4-0.4","63e51f09c02713c63a9fa186","A3","batch1","","734","tol_tohand","","","","tol_peg_1","734","734","0","[[1,0,0],[0,0],[3]]","5","[[3,2,0],[0,0],[1]]","20","0","","","","","","6","","","","","","","","",""
"","","","","","single-stim-button","324","775491","0.0-2.0-71.4-1.4","63e51f09c02713c63a9fa186","A3","batch1","","769","tol_toboard","","","","tol_peg_2","769","769","0","[[1,0,0],[2,0],[3]]","5","[[3,2,0],[0,0],[1]]","20","0","","","","","","6","","","","","","","","",""
"","","","","","single-stim-button","325","775931","0.0-2.0-71.5-0.5","63e51f09c02713c63a9fa186","A3","batch1","","439","tol_tohand","","","","tol_peg_1","439","439","0","[[0,0,0],[2,0],[3]]","6","[[3,2,0],[0,0],[1]]","20","0","","","","","","6","","","","","","","","",""
"","","","","","single-stim-button","326","776257","0.0-2.0-71.5-1.5","63e51f09c02713c63a9fa186","A3","batch1","","326","tol_toboard","","","","tol_peg_2","326","326","0","[[0,0,0],[2,1],[3]]","6","[[3,2,0],[0,0],[1]]","20","0","","","","","","6","","","","","","","","",""
"","","","","","single-stim-button","327","776812","0.0-2.0-71.6-0.6","63e51f09c02713c63a9fa186","A3","batch1","","554","tol_tohand","","","","tol_peg_3","554","554","0","[[0,0,0],[2,1],[0]]","7","[[3,2,0],[0,0],[1]]","20","0","","","","","","6","","","","","","","","",""
"","","","","","single-stim-button","328","777311","0.0-2.0-71.6-1.6","63e51f09c02713c63a9fa186","A3","batch1","","499","tol_toboard","","","","tol_peg_1","499","499","0","[[3,0,0],[2,1],[0]]","7","[[3,2,0],[0,0],[1]]","20","0","","","","","","6","","","","","","","","",""
"","","","","","single-stim-button","329","778661","0.0-2.0-71.7-0.7","63e51f09c02713c63a9fa186","A3","batch1","","1347","tol_tohand","","","","tol_peg_2","1347","1347","0","[[3,0,0],[2,0],[0]]","8","[[3,2,0],[0,0],[1]]","20","0","","","","","","6","","","","","","","","",""
"","","","","","single-stim-button","330","779300","0.0-2.0-71.7-1.7","63e51f09c02713c63a9fa186","A3","batch1","","638","tol_toboard","","","","tol_peg_3","638","638","0","[[3,0,0],[2,0],[1]]","8","[[3,2,0],[0,0],[1]]","20","0","","","","","","6","","","","","","","","",""
"","","","","","single-stim-button","331","779680","0.0-2.0-71.8-0.8","63e51f09c02713c63a9fa186","A3","batch1","","379","tol_tohand","","","","tol_peg_2","379","379","0","[[3,0,0],[0,0],[1]]","9","[[3,2,0],[0,0],[1]]","20","0","","","","","","6","","","","","","","","",""
"","","","","","single-stim-button","332","780233","0.0-2.0-71.8-1.8","63e51f09c02713c63a9fa186","A3","batch1","","553","tol_toboard","","","","tol_peg_1","553","553","0","[[3,2,0],[0,0],[1]]","9","[[3,2,0],[0,0],[1]]","20","0","","","","","","6","","","","","","","","",""
"","","","","","poldrack-single-stim","333","781247","0.0-2.0-72.0","63e51f09c02713c63a9fa186","A3","batch1","","-1","tol_feedback","","","true","","1000","1000","500","","","","","","-1","none","true","3292","12189","","","","","","","","","",""
"","","","","","html-button-response","334","781930","0.0-2.0-73.0","63e51f09c02713c63a9fa186","A3","batch1","","682.6000000014901","tol_trial_num","<div class = centerbox><p class = center-block-text>problem <strong>22</strong> out of 25 problems</p></div>","0","","","","","","","","","","","","","","","","","","","","","","","","",""
"","","","","","single-stim-button","335","787499","0.0-2.0-74.0-0.0","63e51f09c02713c63a9fa186","A3","batch1","","5568","tol_tohand","","","","tol_peg_1","5568","5568","0","[[0,0,0],[2,3],[0]]","1","[[0,0,0],[1,2],[3]]","21","0","","","","","","6","","","","","","","","",""
"","","","","","single-stim-button","336","788070","0.0-2.0-74.0-1.0","63e51f09c02713c63a9fa186","A3","batch1","","570","tol_toboard","","","","tol_peg_3","570","570","0","[[0,0,0],[2,3],[1]]","1","[[0,0,0],[1,2],[3]]","21","0","","","","","","6","","","","","","","","",""
"","","","","","single-stim-button","337","790873","0.0-2.0-74.1-0.1","63e51f09c02713c63a9fa186","A3","batch1","","2802","tol_tohand","","","","tol_peg_2","2802","2802","0","[[0,0,0],[2,0],[1]]","2","[[0,0,0],[1,2],[3]]","21","0","","","","","","6","","","","","","","","",""
"","","","","","single-stim-button","338","791375","0.0-2.0-74.1-1.1","63e51f09c02713c63a9fa186","A3","batch1","","501","tol_toboard","","","","tol_peg_1","501","501","0","[[3,0,0],[2,0],[1]]","2","[[0,0,0],[1,2],[3]]","21","0","","","","","","6","","","","","","","","",""
"","","","","","single-stim-button","339","791833","0.0-2.0-74.2-0.2","63e51f09c02713c63a9fa186","A3","batch1","","458","tol_tohand","","","","tol_peg_2","458","458","0","[[3,0,0],[0,0],[1]]","3","[[0,0,0],[1,2],[3]]","21","0","","","","","","6","","","","","","","","",""
"","","","","","single-stim-button","340","792395","0.0-2.0-74.2-1.2","63e51f09c02713c63a9fa186","A3","batch1","","561","tol_toboard","","","","tol_peg_1","561","561","0","[[3,2,0],[0,0],[1]]","3","[[0,0,0],[1,2],[3]]","21","0","","","","","","6","","","","","","","","",""
"","","","","","single-stim-button","341","793047","0.0-2.0-74.3-0.3","63e51f09c02713c63a9fa186","A3","batch1","","650","tol_tohand","","","","tol_peg_3","650","650","0","[[3,2,0],[0,0],[0]]","4","[[0,0,0],[1,2],[3]]","21","0","","","","","","6","","","","","","","","",""
"","","","","","single-stim-button","342","793403","0.0-2.0-74.3-1.3","63e51f09c02713c63a9fa186","A3","batch1","","356","tol_toboard","","","","tol_peg_2","356","356","0","[[3,2,0],[1,0],[0]]","4","[[0,0,0],[1,2],[3]]","21","0","","","","","","6","","","","","","","","",""
"","","","","","single-stim-button","343","794380","0.0-2.0-74.4-0.4","63e51f09c02713c63a9fa186","A3","batch1","","976","tol_tohand","","","","tol_peg_1","976","976","0","[[3,0,0],[1,0],[0]]","5","[[0,0,0],[1,2],[3]]","21","0","","","","","","6","","","","","","","","",""
"","","","","","single-stim-button","344","794910","0.0-2.0-74.4-1.4","63e51f09c02713c63a9fa186","A3","batch1","","528","tol_toboard","","","","tol_peg_2","528","528","0","[[3,0,0],[1,2],[0]]","5","[[0,0,0],[1,2],[3]]","21","0","","","","","","6","","","","","","","","",""
"","","","","","single-stim-button","345","795320","0.0-2.0-74.5-0.5","63e51f09c02713c63a9fa186","A3","batch1","","410","tol_tohand","","","","tol_peg_1","410","410","0","[[0,0,0],[1,2],[0]]","6","[[0,0,0],[1,2],[3]]","21","0","","","","","","6","","","","","","","","",""
"","","","","","single-stim-button","346","795941","0.0-2.0-74.5-1.5","63e51f09c02713c63a9fa186","A3","batch1","","620","tol_toboard","","","","tol_peg_3","620","620","0","[[0,0,0],[1,2],[3]]","6","[[0,0,0],[1,2],[3]]","21","0","","","","","","6","","","","","","","","",""
"","","","","","poldrack-single-stim","347","796946","0.0-2.0-75.0","63e51f09c02713c63a9fa186","A3","batch1","","-1","tol_feedback","","","true","","1000","1000","500","","","","","","-1","none","true","5568","10864","","","","","","","","","",""
"","","","","","html-button-response","348","797600","0.0-2.0-76.0","63e51f09c02713c63a9fa186","A3","batch1","","652.7000000029802","tol_trial_num","<div class = centerbox><p class = center-block-text>problem <strong>23</strong> out of 25 problems</p></div>","0","","","","","","","","","","","","","","","","","","","","","","","","",""
"","","","","","single-stim-button","349","805866","0.0-2.0-77.0-0.0","63e51f09c02713c63a9fa186","A3","batch1","","8265","tol_tohand","","","","tol_peg_1","8265","8265","0","[[1,0,0],[3,0],[0]]","1","[[1,3,2],[0,0],[0]]","22","0","","","","","","3","","","","","","","","",""
"","","","","","single-stim-button","350","806364","0.0-2.0-77.0-1.0","63e51f09c02713c63a9fa186","A3","batch1","","497","tol_toboard","","","","tol_peg_2","497","497","0","[[1,0,0],[3,2],[0]]","1","[[1,3,2],[0,0],[0]]","22","0","","","","","","3","","","","","","","","",""
"","","","","","single-stim-button","351","806918","0.0-2.0-77.1-0.1","63e51f09c02713c63a9fa186","A3","batch1","","554","tol_tohand","","","","tol_peg_1","554","554","0","[[0,0,0],[3,2],[0]]","2","[[1,3,2],[0,0],[0]]","22","0","","","","","","3","","","","","","","","",""
"","","","","","single-stim-button","352","807414","0.0-2.0-77.1-1.1","63e51f09c02713c63a9fa186","A3","batch1","","494","tol_toboard","","","","tol_peg_3","494","494","0","[[0,0,0],[3,2],[1]]","2","[[1,3,2],[0,0],[0]]","22","0","","","","","","3","","","","","","","","",""
"","","","","","single-stim-button","353","807786","0.0-2.0-77.2-0.2","63e51f09c02713c63a9fa186","A3","batch1","","372","tol_tohand","","","","tol_peg_3","372","372","0","[[0,0,0],[3,2],[0]]","3","[[1,3,2],[0,0],[0]]","22","0","","","","","","3","","","","","","","","",""
"","","","","","single-stim-button","354","810804","0.0-2.0-77.2-1.2","63e51f09c02713c63a9fa186","A3","batch1","","3017","tol_toboard","","","","tol_peg_1","3017","3017","0","[[1,0,0],[3,2],[0]]","3","[[1,3,2],[0,0],[0]]","22","0","","","","","","3","","","","","","","","",""
"","","","","","single-stim-button","355","811369","0.0-2.0-77.3-0.3","63e51f09c02713c63a9fa186","A3","batch1","","563","tol_tohand","","","","tol_peg_2","563","563","0","[[1,0,0],[3,0],[0]]","4","[[1,3,2],[0,0],[0]]","22","0","","","","","","3","","","","","","","","",""
