"success","timeout","failed_images","failed_audio","failed_video","trial_type","trial_index","time_elapsed","internal_node_id","subject_id","study_id","session_id","view_history","rt","stimulus","response","task","correct","answer","item","fiar_detect_rt","fiar_detect_correct","total_correct_fiar_detect","post_trial_gap","choices","mouse_click","stim_duration","block_duration","timing_post_trial","current_position","tol_num_moves_made","tol_target","tol_problem_id","tol_rt","key_press","possible_responses","tol_correct","preplanning","tol_rt_per_trial","tol_min_moves","spm_correct","spm_rt"
"true","false","[]","[]","[]","preload","0","4281","0.0-0.0","63e50a77fb746e1db8a9e223","B2","batch2","","","","","","","","","","","","","","","","","","","","","","","","","","","","","",""
"true","","","","","fullscreen","1","21518","0.0-1.0-0.0","63e50a77fb746e1db8a9e223","B2","batch2","","","","","","","","","","","","","","","","","","","","","","","","","","","","","",""
"true","","","","","fullscreen","2","25053","0.0-2.0-0.0","63e50a77fb746e1db8a9e223","B2","batch2","","","","","","","","","","","","","","","","","","","","","","","","","","","","","",""
"","","","","","instructions","3","45448","0.0-2.0-1.0-0.0","63e50a77fb746e1db8a9e223","B2","batch2","[{""page_index"":0,""viewing_time"":2312.9000000059605},{""page_index"":1,""viewing_time"":7877.199999988079},{""page_index"":0,""viewing_time"":5304.800000011921},{""page_index"":1,""viewing_time"":4898.899999976158}]","20394.09999999404","","","","","","","","","","","","","","","","","","","","","","","","","","","",""
"","","","","","html-button-response","4","46403","0.0-2.0-1.0-1.0-0.0","63e50a77fb746e1db8a9e223","B2","batch2","","954.3000000119209","<p class=block-text> Let's answer a few questions <br>","0","pattern_enter_quiz","","","","","","","","","","","","","","","","","","","","","","","","",""
"","","","","","html-button-response","5","51558","0.0-2.0-1.0-1.0-1.0","63e50a77fb746e1db8a9e223","B2","batch2","","5154.200000017881","<p class = block-text>True or False: You will have as much time as you want to make each choice. <br></p>","1","pattern_quiz","true","","","","","","","","","","","","","","","","","","","","","","","",""
"","","","","","html-button-response","6","53000","0.0-2.0-1.0-1.0-2.0","63e50a77fb746e1db8a9e223","B2","batch2","","1441.2999999821186","<p class = block-text>Correct! You should make your choice <strong> as fast as you can</strong>.</p>","0","pattern_quiz_feedback","","","","","","","","","","","","","","","","","","","","","","","","",""
"","","","","","html-button-response","7","57746","0.0-2.0-1.0-1.0-3.0","63e50a77fb746e1db8a9e223","B2","batch2","","4745.0999999940395","<p class = block-text>True or False: You will look for 4 pieces in black or white color connected in a row either horizontally, vertically or diagonally. <br></p>","0","pattern_quiz","true","","","","","","","","","","","","","","","","","","","","","","","",""
"","","","","","html-button-response","8","58393","0.0-2.0-1.0-1.0-4.0","63e50a77fb746e1db8a9e223","B2","batch2","","646.4000000059605","<p class = block-text>Correct! </p>","0","pattern_quiz_feedback","","","","","","","","","","","","","","","","","","","","","","","","",""
"","","","","","html-button-response","9","58596","0.0-2.0-2.0","63e50a77fb746e1db8a9e223","B2","batch2","","201.90000000596046","<p class=block-text> Now that you've understood the game, let's do a few practice trials before we start!<br> <br>","0","pattern_enter_practice","","","","","","","","","","","","","","","","","","","","","","","","",""
"","","","","","image-keyboard-response","10","61804","0.0-2.0-3.0-0.0","63e50a77fb746e1db8a9e223","B2","batch2","","3206.0999999940395","stim/prac_yes_16_ver_w1.png","f","pattern_practice","true","f","","","","","","","","","","","","","","","","","","","","","","",""
"","","","","","html-keyboard-response","11","62823","0.0-2.0-3.0-1.0","63e50a77fb746e1db8a9e223","B2","batch2","","null","<p style=""font-size:30px;color:green;"">Correct!</p>","null","pattern_feedback","","","","","","","","","","","","","","","","","","","","","","","","",""
"","","","","","image-keyboard-response","12","64468","0.0-2.0-3.0-0.1","63e50a77fb746e1db8a9e223","B2","batch2","","1644.0999999940395","stim/prac_no_18_1.png","j","pattern_practice","true","j","","","","","","","","","","","","","","","","","","","","","","",""
"","","","","","html-keyboard-response","13","65490","0.0-2.0-3.0-1.1","63e50a77fb746e1db8a9e223","B2","batch2","","null","<p style=""font-size:30px;color:green;"">Correct!</p>","null","pattern_feedback","","","","","","","","","","","","","","","","","","","","","","","","",""
"","","","","","image-keyboard-response","14","67516","0.0-2.0-3.0-0.2","63e50a77fb746e1db8a9e223","B2","batch2","","2025.2000000178814","stim/prac_no_16_1.png","j","pattern_practice","true","j","","","","","","","","","","","","","","","","","","","","","","",""
"","","","","","html-keyboard-response","15","68524","0.0-2.0-3.0-1.2","63e50a77fb746e1db8a9e223","B2","batch2","","null","<p style=""font-size:30px;color:green;"">Correct!</p>","null","pattern_feedback","","","","","","","","","","","","","","","","","","","","","","","","",""
"","","","","","image-keyboard-response","16","69532","0.0-2.0-3.0-0.3","63e50a77fb746e1db8a9e223","B2","batch2","","1007.1999999880791","stim/prac_yes_20_dia_b1.png","f","pattern_practice","true","f","","","","","","","","","","","","","","","","","","","","","","",""
"","","","","","html-keyboard-response","17","70555","0.0-2.0-3.0-1.3","63e50a77fb746e1db8a9e223","B2","batch2","","null","<p style=""font-size:30px;color:green;"">Correct!</p>","null","pattern_feedback","","","","","","","","","","","","","","","","","","","","","","","","",""
"","","","","","image-keyboard-response","18","71295","0.0-2.0-3.0-0.4","63e50a77fb746e1db8a9e223","B2","batch2","","736.1999999880791","stim/prac_yes_18_hor_w1.png","f","pattern_practice","true","f","","","","","","","","","","","","","","","","","","","","","","",""
"","","","","","html-keyboard-response","19","72321","0.0-2.0-3.0-1.4","63e50a77fb746e1db8a9e223","B2","batch2","","null","<p style=""font-size:30px;color:green;"">Correct!</p>","null","pattern_feedback","","","","","","","","","","","","","","","","","","","","","","","","",""
"","","","","","html-button-response","20","75044","0.0-2.0-4.0","63e50a77fb746e1db8a9e223","B2","batch2","","2722","<p class=block-text> Good job! You are done with practice trials!<br>
        You responded correctly on 100% of the trials.<br>
        Press the button below to start official trials. Now you won't see any feedback about your response</p>","0","pattern_enter_official_trials","","","","","","","","","","","","","","","","","","","","","","","","",""
"","","","","","html-keyboard-response","21","75846","0.0-2.0-5.0-0.0","63e50a77fb746e1db8a9e223","B2","batch2","","null","<p class=block-text>Trial 1 out of 78</p>","null","pattern_show_trial_num","","","","","","","","","","","","","","","","","","","","","","","","",""
"","","","","","image-keyboard-response","22","77452","0.0-2.0-5.0-1.0","63e50a77fb746e1db8a9e223","B2","batch2","","1605.2000000178814","stim/no_22_1_b.png","j","pattern_response","true","j","pattern_07","1605.2000000178814","true","1","","","","","","","","","","","","","","","","","","",""
"","","","","","html-keyboard-response","23","78770","0.0-2.0-5.0-0.1","63e50a77fb746e1db8a9e223","B2","batch2","","null","<p class=block-text>Trial 2 out of 78</p>","null","pattern_show_trial_num","","","","","","","","","","","","","","","","","","","","","","","","",""
"","","","","","image-keyboard-response","24","80076","0.0-2.0-5.0-1.1","63e50a77fb746e1db8a9e223","B2","batch2","","1305.199999988079","stim/yes_23_ver_b1.png","j","pattern_response","false","f","pattern_48","1305.199999988079","false","1","","","","","","","","","","","","","","","","","","",""
"","","","","","html-keyboard-response","25","81404","0.0-2.0-5.0-0.2","63e50a77fb746e1db8a9e223","B2","batch2","","null","<p class=block-text>Trial 3 out of 78</p>","null","pattern_show_trial_num","","","","","","","","","","","","","","","","","","","","","","","","",""
"","","","","","image-keyboard-response","26","82352","0.0-2.0-5.0-1.2","63e50a77fb746e1db8a9e223","B2","batch2","","950.5","stim/yes_26_dia_w2_w.png","f","pattern_response","true","f","pattern_50","950.5","true","2","","","","","","","","","","","","","","","","","","",""
"","","","","","html-keyboard-response","27","83667","0.0-2.0-5.0-0.3","63e50a77fb746e1db8a9e223","B2","batch2","","null","<p class=block-text>Trial 4 out of 78</p>","null","pattern_show_trial_num","","","","","","","","","","","","","","","","","","","","","","","","",""
"","","","","","image-keyboard-response","28","84688","0.0-2.0-5.0-1.3","63e50a77fb746e1db8a9e223","B2","batch2","","1020.6999999880791","stim/yes_12_hor_w1_w.png","f","pattern_response","true","f","pattern_42","1020.6999999880791","true","3","","","","","","","","","","","","","","","","","","",""
"","","","","","html-keyboard-response","29","86022","0.0-2.0-5.0-0.4","63e50a77fb746e1db8a9e223","B2","batch2","","null","<p class=block-text>Trial 5 out of 78</p>","null","pattern_show_trial_num","","","","","","","","","","","","","","","","","","","","","","","","",""
"","","","","","image-keyboard-response","30","87673","0.0-2.0-5.0-1.4","63e50a77fb746e1db8a9e223","B2","batch2","","1649.5","stim/no_28_2.png","j","pattern_response","true","j","pattern_11","1649.5","true","4","","","","","","","","","","","","","","","","","","",""
"","","","","","html-keyboard-response","31","89002","0.0-2.0-5.0-0.5","63e50a77fb746e1db8a9e223","B2","batch2","","null","<p class=block-text>Trial 6 out of 78</p>","null","pattern_show_trial_num","","","","","","","","","","","","","","","","","","","","","","","","",""
"","","","","","image-keyboard-response","32","93505","0.0-2.0-5.0-1.5","63e50a77fb746e1db8a9e223","B2","batch2","","4501.100000023842","stim/no_51_1.png","j","pattern_response","true","j","pattern_31","4501.100000023842","true","5","","","","","","","","","","","","","","","","","","",""
"","","","","","html-keyboard-response","33","94820","0.0-2.0-5.0-0.6","63e50a77fb746e1db8a9e223","B2","batch2","","null","<p class=block-text>Trial 7 out of 78</p>","null","pattern_show_trial_num","","","","","","","","","","","","","","","","","","","","","","","","",""
"","","","","","image-keyboard-response","34","96072","0.0-2.0-5.0-1.6","63e50a77fb746e1db8a9e223","B2","batch2","","1250.9000000059605","stim/yes_39_hor_w1_w.png","f","pattern_response","true","f","pattern_62","1250.9000000059605","true","6","","","","","","","","","","","","","","","","","","",""
"","","","","","html-keyboard-response","35","97402","0.0-2.0-5.0-0.7","63e50a77fb746e1db8a9e223","B2","batch2","","null","<p class=block-text>Trial 8 out of 78</p>","null","pattern_show_trial_num","","","","","","","","","","","","","","","","","","","","","","","","",""
"","","","","","image-keyboard-response","36","98473","0.0-2.0-5.0-1.7","63e50a77fb746e1db8a9e223","B2","batch2","","1070","stim/no_12_1.png","j","pattern_response","true","j","pattern_01","1070","true","7","","","","","","","","","","","","","","","","","","",""
"","","","","","html-keyboard-response","37","99793","0.0-2.0-5.0-0.8","63e50a77fb746e1db8a9e223","B2","batch2","","null","<p class=block-text>Trial 9 out of 78</p>","null","pattern_show_trial_num","","","","","","","","","","","","","","","","","","","","","","","","",""
"","","","","","image-keyboard-response","38","105209","0.0-2.0-5.0-1.8","63e50a77fb746e1db8a9e223","B2","batch2","","5414.4000000059605","stim/no_43_2_b.png","j","pattern_response","true","j","pattern_23","5414.4000000059605","true","8","","","","","","","","","","","","","","","","","","",""
"","","","","","html-keyboard-response","39","106521","0.0-2.0-5.0-0.9","63e50a77fb746e1db8a9e223","B2","batch2","","null","<p class=block-text>Trial 10 out of 78</p>","null","pattern_show_trial_num","","","","","","","","","","","","","","","","","","","","","","","","",""
"","","","","","image-keyboard-response","40","110976","0.0-2.0-5.0-1.9","63e50a77fb746e1db8a9e223","B2","batch2","","4454.0999999940395","stim/no_58_1_w.png","j","pattern_response","true","j","pattern_35","4454.0999999940395","true","9","","","","","","","","","","","","","","","","","","",""
"","","","","","html-keyboard-response","41","112287","0.0-2.0-5.0-0.10","63e50a77fb746e1db8a9e223","B2","batch2","","null","<p class=block-text>Trial 11 out of 78</p>","null","pattern_show_trial_num","","","","","","","","","","","","","","","","","","","","","","","","",""
"","","","","","image-keyboard-response","42","113032","0.0-2.0-5.0-1.10","63e50a77fb746e1db8a9e223","B2","batch2","","744.1999999880791","stim/yes_15_dia_b1u_b.png","f","pattern_response","true","f","pattern_44","744.1999999880791","true","10","","","","","","","","","","","","","","","","","","",""
"","","","","","html-keyboard-response","43","114344","0.0-2.0-5.0-0.11","63e50a77fb746e1db8a9e223","B2","batch2","","null","<p class=block-text>Trial 12 out of 78</p>","null","pattern_show_trial_num","","","","","","","","","","","","","","","","","","","","","","","","",""
"","","","","","image-keyboard-response","44","116553","0.0-2.0-5.0-1.11","63e50a77fb746e1db8a9e223","B2","batch2","","2207.5999999940395","stim/no_49_2_b.png","j","pattern_response","true","j","pattern_29","2207.5999999940395","true","11","","","","","","","","","","","","","","","","","","",""
"","","","","","html-keyboard-response","45","117868","0.0-2.0-5.0-0.12","63e50a77fb746e1db8a9e223","B2","batch2","","null","<p class=block-text>Trial 13 out of 78</p>","null","pattern_show_trial_num","","","","","","","","","","","","","","","","","","","","","","","","",""
"","","","","","image-keyboard-response","46","118608","0.0-2.0-5.0-1.12","63e50a77fb746e1db8a9e223","B2","batch2","","739.6999999880791","stim/no_15_1_w.png","j","pattern_response","true","j","pattern_03","739.6999999880791","true","12","","","","","","","","","","","","","","","","","","",""
"","","","","","html-keyboard-response","47","119933","0.0-2.0-5.0-0.13","63e50a77fb746e1db8a9e223","B2","batch2","","null","<p class=block-text>Trial 14 out of 78</p>","null","pattern_show_trial_num","","","","","","","","","","","","","","","","","","","","","","","","",""
"","","","","","image-keyboard-response","48","120913","0.0-2.0-5.0-1.13","63e50a77fb746e1db8a9e223","B2","batch2","","978.4000000059605","stim/yes_70_ver_b1.png","f","pattern_response","true","f","pattern_80","978.4000000059605","true","13","","","","","","","","","","","","","","","","","","",""
"","","","","","html-keyboard-response","49","122235","0.0-2.0-5.0-0.14","63e50a77fb746e1db8a9e223","B2","batch2","","null","<p class=block-text>Trial 15 out of 78</p>","null","pattern_show_trial_num","","","","","","","","","","","","","","","","","","","","","","","","",""
"","","","","","image-keyboard-response","50","123001","0.0-2.0-5.0-1.14","63e50a77fb746e1db8a9e223","B2","batch2","","764.6000000238419","stim/no_33_1_b.png","j","pattern_response","true","j","pattern_15","764.6000000238419","true","14","","","","","","","","","","","","","","","","","","",""
"","","","","","html-keyboard-response","51","124322","0.0-2.0-5.0-0.15","63e50a77fb746e1db8a9e223","B2","batch2","","null","<p class=block-text>Trial 16 out of 78</p>","null","pattern_show_trial_num","","","","","","","","","","","","","","","","","","","","","","","","",""
"","","","","","image-keyboard-response","52","125112","0.0-2.0-5.0-1.15","63e50a77fb746e1db8a9e223","B2","batch2","","789.0999999940395","stim/no_18_1_b.png","j","pattern_response","true","j","pattern_05","789.0999999940395","true","15","","","","","","","","","","","","","","","","","","",""
"","","","","","html-keyboard-response","53","126435","0.0-2.0-5.0-0.16","63e50a77fb746e1db8a9e223","B2","batch2","","null","<p class=block-text>Trial 17 out of 78</p>","null","pattern_show_trial_num","","","","","","","","","","","","","","","","","","","","","","","","",""
"","","","","","image-keyboard-response","54","127232","0.0-2.0-5.0-1.16","63e50a77fb746e1db8a9e223","B2","batch2","","797","stim/yes_29_hor_b1_b.png","f","pattern_response","true","f","pattern_52","797","true","16","","","","","","","","","","","","","","","","","","",""
"","","","","","html-keyboard-response","55","128539","0.0-2.0-5.0-0.17","63e50a77fb746e1db8a9e223","B2","batch2","","null","<p class=block-text>Trial 18 out of 78</p>","null","pattern_show_trial_num","","","","","","","","","","","","","","","","","","","","","","","","",""
"","","","","","image-keyboard-response","56","130752","0.0-2.0-5.0-1.17","63e50a77fb746e1db8a9e223","B2","batch2","","2212.4000000059605","stim/no_67_1.png","j","pattern_response","true","j","pattern_39","2212.4000000059605","true","17","","","","","","","","","","","","","","","","","","",""
"","","","","","html-keyboard-response","57","132069","0.0-2.0-5.0-0.18","63e50a77fb746e1db8a9e223","B2","batch2","","null","<p class=block-text>Trial 19 out of 78</p>","null","pattern_show_trial_num","","","","","","","","","","","","","","","","","","","","","","","","",""
"","","","","","image-keyboard-response","58","133320","0.0-2.0-5.0-1.18","63e50a77fb746e1db8a9e223","B2","batch2","","1250.2000000178814","stim/yes_49_hor_w1_b.png","f","pattern_response","true","f","pattern_70","1250.2000000178814","true","18","","","","","","","","","","","","","","","","","","",""
"","","","","","html-keyboard-response","59","134636","0.0-2.0-5.0-0.19","63e50a77fb746e1db8a9e223","B2","batch2","","null","<p class=block-text>Trial 20 out of 78</p>","null","pattern_show_trial_num","","","","","","","","","","","","","","","","","","","","","","","","",""
"","","","","","image-keyboard-response","60","135568","0.0-2.0-5.0-1.19","63e50a77fb746e1db8a9e223","B2","batch2","","931.4000000059605","stim/yes_51_dia_b1.png","j","pattern_response","false","f","pattern_72","931.4000000059605","false","18","","","","","","","","","","","","","","","","","","",""
"","","","","","html-keyboard-response","61","136881","0.0-2.0-5.0-0.20","63e50a77fb746e1db8a9e223","B2","batch2","","null","<p class=block-text>Trial 21 out of 78</p>","null","pattern_show_trial_num","","","","","","","","","","","","","","","","","","","","","","","","",""
"","","","","","image-keyboard-response","62","138321","0.0-2.0-5.0-1.20","63e50a77fb746e1db8a9e223","B2","batch2","","1438.6000000238419","stim/no_53_1_b.png","j","pattern_response","true","j","pattern_33","1438.6000000238419","true","19","","","","","","","","","","","","","","","","","","",""
"","","","","","html-keyboard-response","63","139651","0.0-2.0-5.0-0.21","63e50a77fb746e1db8a9e223","B2","batch2","","null","<p class=block-text>Trial 22 out of 78</p>","null","pattern_show_trial_num","","","","","","","","","","","","","","","","","","","","","","","","",""
"","","","","","image-keyboard-response","64","142072","0.0-2.0-5.0-1.21","63e50a77fb746e1db8a9e223","B2","batch2","","2419.7000000178814","stim/yes_42_dia_w1_w.png","j","pattern_response","false","f","pattern_64","2419.7000000178814","false","19","","","","","","","","","","","","","","","","","","",""
"","","","","","html-keyboard-response","65","143404","0.0-2.0-5.0-0.22","63e50a77fb746e1db8a9e223","B2","batch2","","null","<p class=block-text>Trial 23 out of 78</p>","null","pattern_show_trial_num","","","","","","","","","","","","","","","","","","","","","","","","",""
"","","","","","image-keyboard-response","66","144259","0.0-2.0-5.0-1.22","63e50a77fb746e1db8a9e223","B2","batch2","","854.5","stim/yes_37_hor_w1_w.png","f","pattern_response","true","f","pattern_60","854.5","true","20","","","","","","","","","","","","","","","","","","",""
"","","","","","html-keyboard-response","67","145575","0.0-2.0-5.0-0.23","63e50a77fb746e1db8a9e223","B2","batch2","","null","<p class=block-text>Trial 24 out of 78</p>","null","pattern_show_trial_num","","","","","","","","","","","","","","","","","","","","","","","","",""
"","","","","","image-keyboard-response","68","146852","0.0-2.0-5.0-1.23","63e50a77fb746e1db8a9e223","B2","batch2","","1276","stim/yes_33_dia_w1_w.png","f","pattern_response","true","f","pattern_56","1276","true","21","","","","","","","","","","","","","","","","","","",""
"","","","","","html-keyboard-response","69","148157","0.0-2.0-5.0-0.24","63e50a77fb746e1db8a9e223","B2","batch2","","null","<p class=block-text>Trial 25 out of 78</p>","null","pattern_show_trial_num","","","","","","","","","","","","","","","","","","","","","","","","",""
"","","","","","image-keyboard-response","70","149324","0.0-2.0-5.0-1.24","63e50a77fb746e1db8a9e223","B2","batch2","","1166.0999999940395","stim/yes_53_ver_b1_b.png","f","pattern_response","true","f","pattern_74","1166.0999999940395","true","22","","","","","","","","","","","","","","","","","","",""
"","","","","","html-keyboard-response","71","150655","0.0-2.0-5.0-0.25","63e50a77fb746e1db8a9e223","B2","batch2","","null","<p class=block-text>Trial 26 out of 78</p>","null","pattern_show_trial_num","","","","","","","","","","","","","","","","","","","","","","","","",""
"","","","","","image-keyboard-response","72","152556","0.0-2.0-5.0-1.25","63e50a77fb746e1db8a9e223","B2","batch2","","1899.4000000059605","stim/no_36_1_b.png","j","pattern_response","true","j","pattern_17","1899.4000000059605","true","23","","","","","","","","","","","","","","","","","","",""
"","","","","","html-keyboard-response","73","153885","0.0-2.0-5.0-0.26","63e50a77fb746e1db8a9e223","B2","batch2","","null","<p class=block-text>Trial 27 out of 78</p>","null","pattern_show_trial_num","","","","","","","","","","","","","","","","","","","","","","","","",""
"","","","","","image-keyboard-response","74","155411","0.0-2.0-5.0-1.26","63e50a77fb746e1db8a9e223","B2","batch2","","1524.9000000059605","stim/no_25_1_b.png","j","pattern_response","true","j","pattern_09","1524.9000000059605","true","24","","","","","","","","","","","","","","","","","","",""
"","","","","","html-keyboard-response","75","156737","0.0-2.0-5.0-0.27","63e50a77fb746e1db8a9e223","B2","batch2","","null","<p class=block-text>Trial 28 out of 78</p>","null","pattern_show_trial_num","","","","","","","","","","","","","","","","","","","","","","","","",""
"","","","","","image-keyboard-response","76","159708","0.0-2.0-5.0-1.27","63e50a77fb746e1db8a9e223","B2","batch2","","2970.5","stim/no_45_1_w.png","j","pattern_response","true","j","pattern_25","2970.5","true","25","","","","","","","","","","","","","","","","","","",""
"","","","","","html-keyboard-response","77","161035","0.0-2.0-5.0-0.28","63e50a77fb746e1db8a9e223","B2","batch2","","null","<p class=block-text>Trial 29 out of 78</p>","null","pattern_show_trial_num","","","","","","","","","","","","","","","","","","","","","","","","",""
"","","","","","image-keyboard-response","78","163108","0.0-2.0-5.0-1.28","63e50a77fb746e1db8a9e223","B2","batch2","","2072","stim/yes_44_ver_w1_w.png","f","pattern_response","true","f","pattern_66","2072","true","26","","","","","","","","","","","","","","","","","","",""
"","","","","","html-keyboard-response","79","164426","0.0-2.0-5.0-0.29","63e50a77fb746e1db8a9e223","B2","batch2","","null","<p class=block-text>Trial 30 out of 78</p>","null","pattern_show_trial_num","","","","","","","","","","","","","","","","","","","","","","","","",""
"","","","","","image-keyboard-response","80","166508","0.0-2.0-5.0-1.29","63e50a77fb746e1db8a9e223","B2","batch2","","2080.399999976158","stim/yes_63_dia_b1.png","f","pattern_response","true","f","pattern_78","2080.399999976158","true","27","","","","","","","","","","","","","","","","","","",""
"","","","","","html-keyboard-response","81","167823","0.0-2.0-5.0-0.30","63e50a77fb746e1db8a9e223","B2","batch2","","null","<p class=block-text>Trial 31 out of 78</p>","null","pattern_show_trial_num","","","","","","","","","","","","","","","","","","","","","","","","",""
"","","","","","image-keyboard-response","82","171476","0.0-2.0-5.0-1.30","63e50a77fb746e1db8a9e223","B2","batch2","","3652.4000000059605","stim/no_39_1_w.png","j","pattern_response","true","j","pattern_21","3652.4000000059605","true","28","","","","","","","","","","","","","","","","","","",""
"","","","","","html-keyboard-response","83","172804","0.0-2.0-5.0-0.31","63e50a77fb746e1db8a9e223","B2","batch2","","null","<p class=block-text>Trial 32 out of 78</p>","null","pattern_show_trial_num","","","","","","","","","","","","","","","","","","","","","","","","",""
"","","","","","image-keyboard-response","84","173715","0.0-2.0-5.0-1.31","63e50a77fb746e1db8a9e223","B2","batch2","","909.6000000238419","stim/yes_30_ver_b1_b.png","j","pattern_response","false","f","pattern_54","909.6000000238419","false","28","","","","","","","","","","","","","","","","","","",""
"","","","","","html-keyboard-response","85","175021","0.0-2.0-5.0-0.32","63e50a77fb746e1db8a9e223","B2","batch2","","null","<p class=block-text>Trial 33 out of 78</p>","null","pattern_show_trial_num","","","","","","","","","","","","","","","","","","","","","","","","",""
"","","","","","image-keyboard-response","86","176059","0.0-2.0-5.0-1.32","63e50a77fb746e1db8a9e223","B2","batch2","","1037.8999999761581","stim/yes_36_ver_w1_w.png","f","pattern_response","true","f","pattern_58","1037.8999999761581","true","29","","","","","","","","","","","","","","","","","","",""
"","","","","","html-keyboard-response","87","177385","0.0-2.0-5.0-0.33","63e50a77fb746e1db8a9e223","B2","batch2","","null","<p class=block-text>Trial 34 out of 78</p>","null","pattern_show_trial_num","","","","","","","","","","","","","","","","","","","","","","","","",""
"","","","","","image-keyboard-response","88","182468","0.0-2.0-5.0-1.33","63e50a77fb746e1db8a9e223","B2","batch2","","5081.300000011921","stim/yes_58_dia_w1_w.png","j","pattern_response","false","f","pattern_76","5081.300000011921","false","29","","","","","","","","","","","","","","","","","","",""
"","","","","","html-keyboard-response","89","183771","0.0-2.0-5.0-0.34","63e50a77fb746e1db8a9e223","B2","batch2","","null","<p class=block-text>Trial 35 out of 78</p>","null","pattern_show_trial_num","","","","","","","","","","","","","","","","","","","","","","","","",""
"","","","","","image-keyboard-response","90","187435","0.0-2.0-5.0-1.34","63e50a77fb746e1db8a9e223","B2","batch2","","3662.899999976158","stim/no_37_2_w.png","j","pattern_response","true","j","pattern_19","3662.899999976158","true","30","","","","","","","","","","","","","","","","","","",""
"","","","","","html-keyboard-response","91","188751","0.0-2.0-5.0-0.35","63e50a77fb746e1db8a9e223","B2","batch2","","null","<p class=block-text>Trial 36 out of 78</p>","null","pattern_show_trial_num","","","","","","","","","","","","","","","","","","","","","","","","",""
"","","","","","image-keyboard-response","92","189875","0.0-2.0-5.0-1.35","63e50a77fb746e1db8a9e223","B2","batch2","","1123.3999999761581","stim/yes_17_ver_b1_b.png","f","pattern_response","true","f","pattern_46","1123.3999999761581","true","31","","","","","","","","","","","","","","","","","","",""
"","","","","","html-keyboard-response","93","191197","0.0-2.0-5.0-0.36","63e50a77fb746e1db8a9e223","B2","batch2","","null","<p class=block-text>Trial 37 out of 78</p>","null","pattern_show_trial_num","","","","","","","","","","","","","","","","","","","","","","","","",""
"","","","","","image-keyboard-response","94","194652","0.0-2.0-5.0-1.36","63e50a77fb746e1db8a9e223","B2","batch2","","3454.199999988079","stim/no_47_1_b.png","j","pattern_response","true","j","pattern_27","3454.199999988079","true","32","","","","","","","","","","","","","","","","","","",""
"","","","","","html-keyboard-response","95","195969","0.0-2.0-5.0-0.37","63e50a77fb746e1db8a9e223","B2","batch2","","null","<p class=block-text>Trial 38 out of 78</p>","null","pattern_show_trial_num","","","","","","","","","","","","","","","","","","","","","","","","",""
"","","","","","image-keyboard-response","96","197571","0.0-2.0-5.0-1.37","63e50a77fb746e1db8a9e223","B2","batch2","","1601.5","stim/no_30_1_b.png","j","pattern_response","true","j","pattern_13","1601.5","true","33","","","","","","","","","","","","","","","","","","",""
"","","","","","html-keyboard-response","97","198885","0.0-2.0-5.0-0.38","63e50a77fb746e1db8a9e223","B2","batch2","","null","<p class=block-text>Trial 39 out of 78</p>","null","pattern_show_trial_num","","","","","","","","","","","","","","","","","","","","","","","","",""
"","","","","","image-keyboard-response","98","202974","0.0-2.0-5.0-1.38","63e50a77fb746e1db8a9e223","B2","batch2","","4102.0999999940395","stim/yes_46_ver_b1_b.png","f","pattern_response","true","f","pattern_68","4102.0999999940395","true","34","","","","","","","","","","","","","","","","","","",""
"","","","","","image-keyboard-response","99","206086","0.0-2.0-6.0","63e50a77fb746e1db8a9e223","B2","batch2","","2596.0999999940395","stim/empty_board.png","j","attention_check","true","j","","","","","500","[""f"",""j""]","","","","","","","","","","","","","","","","",""
"","","","","","html-keyboard-response","100","206889","0.0-2.0-7.0-0.0","63e50a77fb746e1db8a9e223","B2","batch2","","null","<p class=block-text>Trial 40 out of 78</p>","null","pattern_show_trial_num","","","","","","","","","","","","","","","","","","","","","","","","",""
"","","","","","image-keyboard-response","101","208325","0.0-2.0-7.0-1.0","63e50a77fb746e1db8a9e223","B2","batch2","","1435.4000000059605","stim/yes_55_hor_w1_w.png","f","pattern_response","true","f","pattern_75","1435.4000000059605","true","35","","","","","","","","","","","","","","","","","","",""
"","","","","","html-keyboard-response","102","209656","0.0-2.0-7.0-0.1","63e50a77fb746e1db8a9e223","B2","batch2","","null","<p class=block-text>Trial 41 out of 78</p>","null","pattern_show_trial_num","","","","","","","","","","","","","","","","","","","","","","","","",""
"","","","","","image-keyboard-response","103","213165","0.0-2.0-7.0-1.1","63e50a77fb746e1db8a9e223","B2","batch2","","3508.2999999821186","stim/no_62_1_w.png","j","pattern_response","true","j","pattern_36","3508.2999999821186","true","36","","","","","","","","","","","","","","","","","","",""
"","","","","","html-keyboard-response","104","214475","0.0-2.0-7.0-0.2","63e50a77fb746e1db8a9e223","B2","batch2","","null","<p class=block-text>Trial 42 out of 78</p>","null","pattern_show_trial_num","","","","","","","","","","","","","","","","","","","","","","","","",""
"","","","","","image-keyboard-response","105","216630","0.0-2.0-7.0-1.2","63e50a77fb746e1db8a9e223","B2","batch2","","2153.899999976158","stim/no_52_1.png","j","pattern_response","true","j","pattern_32","2153.899999976158","true","37","","","","","","","","","","","","","","","","","","",""
"","","","","","html-keyboard-response","106","217942","0.0-2.0-7.0-0.3","63e50a77fb746e1db8a9e223","B2","batch2","","null","<p class=block-text>Trial 43 out of 78</p>","null","pattern_show_trial_num","","","","","","","","","","","","","","","","","","","","","","","","",""
"","","","","","image-keyboard-response","107","218901","0.0-2.0-7.0-1.3","63e50a77fb746e1db8a9e223","B2","batch2","","958.0999999940395","stim/yes_43_ver_w1_w.png","f","pattern_response","true","f","pattern_65","958.0999999940395","true","38","","","","","","","","","","","","","","","","","","",""
"","","","","","html-keyboard-response","108","220223","0.0-2.0-7.0-0.4","63e50a77fb746e1db8a9e223","B2","batch2","","null","<p class=block-text>Trial 44 out of 78</p>","null","pattern_show_trial_num","","","","","","","","","","","","","","","","","","","","","","","","",""
"","","","","","image-keyboard-response","109","222685","0.0-2.0-7.0-1.4","63e50a77fb746e1db8a9e223","B2","batch2","","2461.699999988079","stim/yes_38_hor_b1_b.png","f","pattern_response","true","f","pattern_61","2461.699999988079","true","39","","","","","","","","","","","","","","","","","","",""
"","","","","","html-keyboard-response","110","223989","0.0-2.0-7.0-0.5","63e50a77fb746e1db8a9e223","B2","batch2","","null","<p class=block-text>Trial 45 out of 78</p>","null","pattern_show_trial_num","","","","","","","","","","","","","","","","","","","","","","","","",""
"","","","","","image-keyboard-response","111","225414","0.0-2.0-7.0-1.5","63e50a77fb746e1db8a9e223","B2","batch2","","1423.3999999761581","stim/yes_31_hor_b1.png","f","pattern_response","true","f","pattern_55","1423.3999999761581","true","40","","","","","","","","","","","","","","","","","","",""
"","","","","","html-keyboard-response","112","226725","0.0-2.0-7.0-0.6","63e50a77fb746e1db8a9e223","B2","batch2","","null","<p class=block-text>Trial 46 out of 78</p>","null","pattern_show_trial_num","","","","","","","","","","","","","","","","","","","","","","","","",""
"","","","","","image-keyboard-response","113","229990","0.0-2.0-7.0-1.6","63e50a77fb746e1db8a9e223","B2","batch2","","3264","stim/yes_52_ver_w1.png","f","pattern_response","true","f","pattern_73","3264","true","41","","","","","","","","","","","","","","","","","","",""
"","","","","","html-keyboard-response","114","231320","0.0-2.0-7.0-0.7","63e50a77fb746e1db8a9e223","B2","batch2","","null","<p class=block-text>Trial 47 out of 78</p>","null","pattern_show_trial_num","","","","","","","","","","","","","","","","","","","","","","","","",""
"","","","","","image-keyboard-response","115","232397","0.0-2.0-7.0-1.7","63e50a77fb746e1db8a9e223","B2","batch2","","1075.8999999761581","stim/no_23_1.png","j","pattern_response","true","j","pattern_08","1075.8999999761581","true","42","","","","","","","","","","","","","","","","","","",""
"","","","","","html-keyboard-response","116","233721","0.0-2.0-7.0-0.8","63e50a77fb746e1db8a9e223","B2","batch2","","null","<p class=block-text>Trial 48 out of 78</p>","null","pattern_show_trial_num","","","","","","","","","","","","","","","","","","","","","","","","",""
"","","","","","image-keyboard-response","117","236949","0.0-2.0-7.0-1.8","63e50a77fb746e1db8a9e223","B2","batch2","","3227","stim/yes_67_hor_b1.png","f","pattern_response","true","f","pattern_79","3227","true","43","","","","","","","","","","","","","","","","","","",""
"","","","","","html-keyboard-response","118","238272","0.0-2.0-7.0-0.9","63e50a77fb746e1db8a9e223","B2","batch2","","null","<p class=block-text>Trial 49 out of 78</p>","null","pattern_show_trial_num","","","","","","","","","","","","","","","","","","","","","","","","",""
"","","","","","image-keyboard-response","119","240862","0.0-2.0-7.0-1.9","63e50a77fb746e1db8a9e223","B2","batch2","","2588.9000000059605","stim/no_50_1.png","j","pattern_response","true","j","pattern_30","2588.9000000059605","true","44","","","","","","","","","","","","","","","","","","",""
"","","","","","html-keyboard-response","120","242187","0.0-2.0-7.0-0.10","63e50a77fb746e1db8a9e223","B2","batch2","","null","<p class=block-text>Trial 50 out of 78</p>","null","pattern_show_trial_num","","","","","","","","","","","","","","","","","","","","","","","","",""
"","","","","","image-keyboard-response","121","245541","0.0-2.0-7.0-1.10","63e50a77fb746e1db8a9e223","B2","batch2","","3352.800000011921","stim/yes_37_dia_w1.png","j","pattern_response","false","f","pattern_59","3352.800000011921","false","44","","","","","","","","","","","","","","","","","","",""
"","","","","","html-keyboard-response","122","246857","0.0-2.0-7.0-0.11","63e50a77fb746e1db8a9e223","B2","batch2","","null","<p class=block-text>Trial 51 out of 78</p>","null","pattern_show_trial_num","","","","","","","","","","","","","","","","","","","","","","","","",""
"","","","","","image-keyboard-response","123","249549","0.0-2.0-7.0-1.11","63e50a77fb746e1db8a9e223","B2","batch2","","2691.4000000059605","stim/no_55_1_w.png","j","pattern_response","true","j","pattern_34","2691.4000000059605","true","45","","","","","","","","","","","","","","","","","","",""
"","","","","","html-keyboard-response","124","250866","0.0-2.0-7.0-0.12","63e50a77fb746e1db8a9e223","B2","batch2","","null","<p class=block-text>Trial 52 out of 78</p>","null","pattern_show_trial_num","","","","","","","","","","","","","","","","","","","","","","","","",""
"","","","","","image-keyboard-response","125","251853","0.0-2.0-7.0-1.12","63e50a77fb746e1db8a9e223","B2","batch2","","986","stim/no_20_1_w.png","j","pattern_response","true","j","pattern_06","986","true","46","","","","","","","","","","","","","","","","","","",""
"","","","","","html-keyboard-response","126","253171","0.0-2.0-7.0-0.13","63e50a77fb746e1db8a9e223","B2","batch2","","null","<p class=block-text>Trial 53 out of 78</p>","null","pattern_show_trial_num","","","","","","","","","","","","","","","","","","","","","","","","",""
"","","","","","image-keyboard-response","127","256085","0.0-2.0-7.0-1.13","63e50a77fb746e1db8a9e223","B2","batch2","","2913.2000000178814","stim/yes_40_dia_b1_b.png","j","pattern_response","false","f","pattern_63","2913.2000000178814","false","46","","","","","","","","","","","","","","","","","","",""
"","","","","","html-keyboard-response","128","257406","0.0-2.0-7.0-0.14","63e50a77fb746e1db8a9e223","B2","batch2","","null","<p class=block-text>Trial 54 out of 78</p>","null","pattern_show_trial_num","","","","","","","","","","","","","","","","","","","","","","","","",""
"","","","","","image-keyboard-response","129","258654","0.0-2.0-7.0-1.14","63e50a77fb746e1db8a9e223","B2","batch2","","1246.7999999821186","stim/yes_45_hor_b2_b.png","f","pattern_response","true","f","pattern_67","1246.7999999821186","true","47","","","","","","","","","","","","","","","","","","",""
"","","","","","html-keyboard-response","130","259971","0.0-2.0-7.0-0.15","63e50a77fb746e1db8a9e223","B2","batch2","","null","<p class=block-text>Trial 55 out of 78</p>","null","pattern_show_trial_num","","","","","","","","","","","","","","","","","","","","","","","","",""
"","","","","","image-keyboard-response","131","263953","0.0-2.0-7.0-1.15","63e50a77fb746e1db8a9e223","B2","batch2","","3969.2000000178814","stim/no_36_2_w.png","j","pattern_response","true","j","pattern_18","3969.2000000178814","true","48","","","","","","","","","","","","","","","","","","",""
"","","","","","html-keyboard-response","132","265261","0.0-2.0-7.0-0.16","63e50a77fb746e1db8a9e223","B2","batch2","","null","<p class=block-text>Trial 56 out of 78</p>","null","pattern_show_trial_num","","","","","","","","","","","","","","","","","","","","","","","","",""
"","","","","","image-keyboard-response","133","270873","0.0-2.0-7.0-1.16","63e50a77fb746e1db8a9e223","B2","batch2","","5610.5","stim/no_65_1_b.png","j","pattern_response","true","j","pattern_38","5610.5","true","49","","","","","","","","","","","","","","","","","","",""
"","","","","","html-keyboard-response","134","272201","0.0-2.0-7.0-0.17","63e50a77fb746e1db8a9e223","B2","batch2","","null","<p class=block-text>Trial 57 out of 78</p>","null","pattern_show_trial_num","","","","","","","","","","","","","","","","","","","","","","","","",""
"","","","","","image-keyboard-response","135","273248","0.0-2.0-7.0-1.17","63e50a77fb746e1db8a9e223","B2","batch2","","1046.800000011921","stim/yes_35_dia_b1.png","j","pattern_response","false","f","pattern_57","1046.800000011921","false","49","","","","","","","","","","","","","","","","","","",""
"","","","","","html-keyboard-response","136","274566","0.0-2.0-7.0-0.18","63e50a77fb746e1db8a9e223","B2","batch2","","null","<p class=block-text>Trial 58 out of 78</p>","null","pattern_show_trial_num","","","","","","","","","","","","","","","","","","","","","","","","",""
"","","","","","image-keyboard-response","137","279241","0.0-2.0-7.0-1.18","63e50a77fb746e1db8a9e223","B2","batch2","","4674.200000017881","stim/yes_50_dia_w1.png","j","pattern_response","false","f","pattern_71","4674.200000017881","false","49","","","","","","","","","","","","","","","","","","",""
"","","","","","html-keyboard-response","138","280563","0.0-2.0-7.0-0.19","63e50a77fb746e1db8a9e223","B2","batch2","","null","<p class=block-text>Trial 59 out of 78</p>","null","pattern_show_trial_num","","","","","","","","","","","","","","","","","","","","","","","","",""
"","","","","","image-keyboard-response","139","282129","0.0-2.0-7.0-1.19","63e50a77fb746e1db8a9e223","B2","batch2","","1564.9000000059605","stim/no_42_1_w.png","j","pattern_response","true","j","pattern_22","1564.9000000059605","true","50","","","","","","","","","","","","","","","","","","",""
"","","","","","html-keyboard-response","140","283438","0.0-2.0-7.0-0.20","63e50a77fb746e1db8a9e223","B2","batch2","","null","<p class=block-text>Trial 60 out of 78</p>","null","pattern_show_trial_num","","","","","","","","","","","","","","","","","","","","","","","","",""
"","","","","","image-keyboard-response","141","286073","0.0-2.0-7.0-1.20","63e50a77fb746e1db8a9e223","B2","batch2","","2633.9000000059605","stim/no_44_1.png","j","pattern_response","true","j","pattern_24","2633.9000000059605","true","51","","","","","","","","","","","","","","","","","","",""
"","","","","","html-keyboard-response","142","287399","0.0-2.0-7.0-0.21","63e50a77fb746e1db8a9e223","B2","batch2","","null","<p class=block-text>Trial 61 out of 78</p>","null","pattern_show_trial_num","","","","","","","","","","","","","","","","","","","","","","","","",""
"","","","","","image-keyboard-response","143","288281","0.0-2.0-7.0-1.21","63e50a77fb746e1db8a9e223","B2","batch2","","881.1999999880791","stim/no_38_1_b.png","j","pattern_response","true","j","pattern_20","881.1999999880791","true","52","","","","","","","","","","","","","","","","","","",""
"","","","","","html-keyboard-response","144","289601","0.0-2.0-7.0-0.22","63e50a77fb746e1db8a9e223","B2","batch2","","null","<p class=block-text>Trial 62 out of 78</p>","null","pattern_show_trial_num","","","","","","","","","","","","","","","","","","","","","","","","",""
"","","","","","image-keyboard-response","145","290369","0.0-2.0-7.0-1.22","63e50a77fb746e1db8a9e223","B2","batch2","","767.4000000059605","stim/no_13_2_b.png","j","pattern_response","true","j","pattern_02","767.4000000059605","true","53","","","","","","","","","","","","","","","","","","",""
"","","","","","html-keyboard-response","146","291683","0.0-2.0-7.0-0.23","63e50a77fb746e1db8a9e223","B2","batch2","","null","<p class=block-text>Trial 63 out of 78</p>","null","pattern_show_trial_num","","","","","","","","","","","","","","","","","","","","","","","","",""
"","","","","","image-keyboard-response","147","297545","0.0-2.0-7.0-1.23","63e50a77fb746e1db8a9e223","B2","batch2","","5861.399999976158","stim/no_70_2.png","j","pattern_response","true","j","pattern_40","5861.399999976158","true","54","","","","","","","","","","","","","","","","","","",""
"","","","","","html-keyboard-response","148","298867","0.0-2.0-7.0-0.24","63e50a77fb746e1db8a9e223","B2","batch2","","null","<p class=block-text>Trial 64 out of 78</p>","null","pattern_show_trial_num","","","","","","","","","","","","","","","","","","","","","","","","",""
"","","","","","image-keyboard-response","149","299537","0.0-2.0-7.0-1.24","63e50a77fb746e1db8a9e223","B2","batch2","","668.5","stim/no_17_1_w.png","j","pattern_response","true","j","pattern_04","668.5","true","55","","","","","","","","","","","","","","","","","","",""
"","","","","","html-keyboard-response","150","300851","0.0-2.0-7.0-0.25","63e50a77fb746e1db8a9e223","B2","batch2","","null","<p class=block-text>Trial 65 out of 78</p>","null","pattern_show_trial_num","","","","","","","","","","","","","","","","","","","","","","","","",""
"","","","","","image-keyboard-response","151","305145","0.0-2.0-7.0-1.25","63e50a77fb746e1db8a9e223","B2","batch2","","4292.399999976158","stim/yes_48_dia_w1_w.png","j","pattern_response","false","f","pattern_69","4292.399999976158","false","55","","","","","","","","","","","","","","","","","","",""
"","","","","","html-keyboard-response","152","306466","0.0-2.0-7.0-0.26","63e50a77fb746e1db8a9e223","B2","batch2","","null","<p class=block-text>Trial 66 out of 78</p>","null","pattern_show_trial_num","","","","","","","","","","","","","","","","","","","","","","","","",""
"","","","","","image-keyboard-response","153","311681","0.0-2.0-7.0-1.26","63e50a77fb746e1db8a9e223","B2","batch2","","5214.0999999940395","stim/no_48_1_w.png","j","pattern_response","true","j","pattern_28","5214.0999999940395","true","56","","","","","","","","","","","","","","","","","","",""
"","","","","","html-keyboard-response","154","312998","0.0-2.0-7.0-0.27","63e50a77fb746e1db8a9e223","B2","batch2","","null","<p class=block-text>Trial 67 out of 78</p>","null","pattern_show_trial_num","","","","","","","","","","","","","","","","","","","","","","","","",""
"","","","","","image-keyboard-response","155","315689","0.0-2.0-7.0-1.27","63e50a77fb746e1db8a9e223","B2","batch2","","2689.300000011921","stim/no_29_1_b.png","j","pattern_response","true","j","pattern_12","2689.300000011921","true","57","","","","","","","","","","","","","","","","","","",""
"","","","","","html-keyboard-response","156","317015","0.0-2.0-7.0-0.28","63e50a77fb746e1db8a9e223","B2","batch2","","null","<p class=block-text>Trial 68 out of 78</p>","null","pattern_show_trial_num","","","","","","","","","","","","","","","","","","","","","","","","",""
"","","","","","image-keyboard-response","157","319729","0.0-2.0-7.0-1.28","63e50a77fb746e1db8a9e223","B2","batch2","","2712.4000000059605","stim/no_46_1_b.png","j","pattern_response","true","j","pattern_26","2712.4000000059605","true","58","","","","","","","","","","","","","","","","","","",""
"","","","","","html-keyboard-response","158","321047","0.0-2.0-7.0-0.29","63e50a77fb746e1db8a9e223","B2","batch2","","null","<p class=block-text>Trial 69 out of 78</p>","null","pattern_show_trial_num","","","","","","","","","","","","","","","","","","","","","","","","",""
"","","","","","image-keyboard-response","159","321872","0.0-2.0-7.0-1.29","63e50a77fb746e1db8a9e223","B2","batch2","","824.7000000178814","stim/yes_25_hor_b1_b.png","f","pattern_response","true","f","pattern_49","824.7000000178814","true","59","","","","","","","","","","","","","","","","","","",""
"","","","","","html-keyboard-response","160","323182","0.0-2.0-7.0-0.30","63e50a77fb746e1db8a9e223","B2","batch2","","null","<p class=block-text>Trial 70 out of 78</p>","null","pattern_show_trial_num","","","","","","","","","","","","","","","","","","","","","","","","",""
"","","","","","image-keyboard-response","161","324020","0.0-2.0-7.0-1.30","63e50a77fb746e1db8a9e223","B2","batch2","","841","stim/yes_22_ver_w1.png","f","pattern_response","true","f","pattern_47","841","true","60","","","","","","","","","","","","","","","","","","",""
"","","","","","html-keyboard-response","162","325335","0.0-2.0-7.0-0.31","63e50a77fb746e1db8a9e223","B2","batch2","","null","<p class=block-text>Trial 71 out of 78</p>","null","pattern_show_trial_num","","","","","","","","","","","","","","","","","","","","","","","","",""
"","","","","","image-keyboard-response","163","325877","0.0-2.0-7.0-1.31","63e50a77fb746e1db8a9e223","B2","batch2","","540.5","stim/yes_14_hor_b1_w.png","f","pattern_response","true","f","pattern_43","540.5","true","61","","","","","","","","","","","","","","","","","","",""
"","","","","","html-keyboard-response","164","327194","0.0-2.0-7.0-0.32","63e50a77fb746e1db8a9e223","B2","batch2","","null","<p class=block-text>Trial 72 out of 78</p>","null","pattern_show_trial_num","","","","","","","","","","","","","","","","","","","","","","","","",""
"","","","","","image-keyboard-response","165","328061","0.0-2.0-7.0-1.32","63e50a77fb746e1db8a9e223","B2","batch2","","866","stim/no_26_1_w.png","j","pattern_response","true","j","pattern_10","866","true","62","","","","","","","","","","","","","","","","","","",""
"","","","","","html-keyboard-response","166","329376","0.0-2.0-7.0-0.33","63e50a77fb746e1db8a9e223","B2","batch2","","null","<p class=block-text>Trial 73 out of 78</p>","null","pattern_show_trial_num","","","","","","","","","","","","","","","","","","","","","","","","",""
"","","","","","image-keyboard-response","167","330909","0.0-2.0-7.0-1.33","63e50a77fb746e1db8a9e223","B2","batch2","","1531.800000011921","stim/no_32_1_w.png","j","pattern_response","true","j","pattern_14","1531.800000011921","true","63","","","","","","","","","","","","","","","","","","",""
"","","","","","html-keyboard-response","168","332224","0.0-2.0-7.0-0.34","63e50a77fb746e1db8a9e223","B2","batch2","","null","<p class=block-text>Trial 74 out of 78</p>","null","pattern_show_trial_num","","","","","","","","","","","","","","","","","","","","","","","","",""
"","","","","","image-keyboard-response","169","333444","0.0-2.0-7.0-1.34","63e50a77fb746e1db8a9e223","B2","batch2","","1219.7000000178814","stim/yes_60_ver_b1_b.png","f","pattern_response","true","f","pattern_77","1219.7000000178814","true","64","","","","","","","","","","","","","","","","","","",""
"","","","","","html-keyboard-response","170","334755","0.0-2.0-7.0-0.35","63e50a77fb746e1db8a9e223","B2","batch2","","null","<p class=block-text>Trial 75 out of 78</p>","null","pattern_show_trial_num","","","","","","","","","","","","","","","","","","","","","","","","",""
"","","","","","image-keyboard-response","171","337101","0.0-2.0-7.0-1.35","63e50a77fb746e1db8a9e223","B2","batch2","","2345.2999999821186","stim/no_34_1_b.png","j","pattern_response","true","j","pattern_16","2345.2999999821186","true","65","","","","","","","","","","","","","","","","","","",""
"","","","","","html-keyboard-response","172","338426","0.0-2.0-7.0-0.36","63e50a77fb746e1db8a9e223","B2","batch2","","null","<p class=block-text>Trial 76 out of 78</p>","null","pattern_show_trial_num","","","","","","","","","","","","","","","","","","","","","","","","",""
"","","","","","image-keyboard-response","173","340172","0.0-2.0-7.0-1.36","63e50a77fb746e1db8a9e223","B2","batch2","","1745.5","stim/yes_29_ver_w1.png","f","pattern_response","true","f","pattern_53","1745.5","true","66","","","","","","","","","","","","","","","","","","",""
"","","","","","html-keyboard-response","174","341497","0.0-2.0-7.0-0.37","63e50a77fb746e1db8a9e223","B2","batch2","","null","<p class=block-text>Trial 77 out of 78</p>","null","pattern_show_trial_num","","","","","","","","","","","","","","","","","","","","","","","","",""
"","","","","","image-keyboard-response","175","342453","0.0-2.0-7.0-1.37","63e50a77fb746e1db8a9e223","B2","batch2","","955.5","stim/yes_28_ver_b1.png","f","pattern_response","true","f","pattern_51","955.5","true","67","","","","","","","","","","","","","","","","","","",""
"","","","","","html-keyboard-response","176","343774","0.0-2.0-7.0-0.38","63e50a77fb746e1db8a9e223","B2","batch2","","null","<p class=block-text>Trial 78 out of 78</p>","null","pattern_show_trial_num","","","","","","","","","","","","","","","","","","","","","","","","",""
"","","","","","image-keyboard-response","177","344565","0.0-2.0-7.0-1.38","63e50a77fb746e1db8a9e223","B2","batch2","","790.1999999880791","stim/yes_17_dia_w1.png","f","pattern_response","true","f","pattern_45","790.1999999880791","true","68","","","","","","","","","","","","","","","","","","",""
"","","","","","html-button-response","178","348876","0.0-2.0-8.0","63e50a77fb746e1db8a9e223","B2","batch2","","3797.7000000178814","<p class = block-text>This concludes the 4-in-a-row detection game.Thank you for your responses!<br>
            You responded correctly on 87% of the trials.<br>
            When you are ready, press ""Continue"" button to continue </p>","0","","","","","","","","","","","","","","","","","","","","","","","","","",""
"true","","","","","fullscreen","179","394912","0.0-3.0-0.0","63e50a77fb746e1db8a9e223","B2","batch2","","","","","","","","","","","","","","","","","","","","","","","","","","","","","",""
"","","","","","instructions","180","439458","0.0-3.0-1.0-0.0-0.0","63e50a77fb746e1db8a9e223","B2","batch2","[{""page_index"":0,""viewing_time"":16773.30000001192},{""page_index"":1,""viewing_time"":3759.0999999940395},{""page_index"":2,""viewing_time"":4293.0999999940395},{""page_index"":3,""viewing_time"":4979.9000000059605},{""page_index"":4,""viewing_time"":4316.800000011921},{""page_index"":5,""viewing_time"":7343.0999999940395},{""page_index"":6,""viewing_time"":3079.7999999821186}]","44545.20000001788","","","tol-instructions","","","","","","","","","","","","","","","","","","","","","","","","",""
"","","","","","html-button-response","181","440313","0.0-3.0-1.0-1.0-0.0","63e50a77fb746e1db8a9e223","B2","batch2","","854.5999999940395","<p class=block-text> Let's answer a few questions <br>","0","tol_enter_quiz","","","","","","","","","","","","","","","","","","","","","","","","",""
"","","","","","html-button-response","182","443819","0.0-3.0-1.0-1.0-1.0","63e50a77fb746e1db8a9e223","B2","batch2","","3505.100000023842","<p class = block-text>True or False: You can only move the ball on top of a peg. <br></p>","1","tol_quiz","false","","","","","","","","","","","","","","","","","","","","","","","",""
"","","","","","html-button-response","183","448779","0.0-3.0-1.0-1.0-2.0","63e50a77fb746e1db8a9e223","B2","batch2","","4959.300000011921","<p class = block-text>Incorrect. Remember, you can only move the ball on top of a peg.</p>","0","tol_quiz_feedback","","","","","","","","","","","","","","","","","","","","","","","","",""
"","","","","","html-button-response","184","453607","0.0-3.0-1.0-1.0-3.0","63e50a77fb746e1db8a9e223","B2","batch2","","4827.200000017881","<p class = block-text>True or False: You should try to match your board with the target board with fewest moves possible. <br></p>","0","tol_quiz","true","","","","","","","","","","","","","","","","","","","","","","","",""
"","","","","","html-button-response","185","454534","0.0-3.0-1.0-1.0-4.0","63e50a77fb746e1db8a9e223","B2","batch2","","926.2000000178814","<p class = block-text>Correct! </p>","0","tol_quiz_feedback","","","","","","","","","","","","","","","","","","","","","","","","",""
"","","","","","html-button-response","186","457545","0.0-3.0-1.0-2.0-0.0","63e50a77fb746e1db8a9e223","B2","batch2","","3010.7000000178814","<p class = block-text>You made too many incorrect choices.</p><p class = block-text>You will now repeat the instructions and quiz</p>","0","","","","","","","","","","","","","","","","","","","","","","","","","",""
"","","","","","instructions","187","463793","0.0-3.0-1.1-0.1-0.1","63e50a77fb746e1db8a9e223","B2","batch2","[{""page_index"":0,""viewing_time"":844.5},{""page_index"":1,""viewing_time"":166.40000000596046},{""page_index"":2,""viewing_time"":318.90000000596046},{""page_index"":3,""viewing_time"":407.09999999403954},{""page_index"":4,""viewing_time"":443.80000001192093},{""page_index"":5,""viewing_time"":414},{""page_index"":6,""viewing_time"":3652.7999999821186}]","6247.700000017881","","","tol-instructions","","","","","","","","","","","","","","","","","","","","","","","","",""
"","","","","","html-button-response","188","464570","0.0-3.0-1.1-1.1-0.1","63e50a77fb746e1db8a9e223","B2","batch2","","775.5999999940395","<p class=block-text> Let's answer a few questions <br>","0","tol_enter_quiz","","","","","","","","","","","","","","","","","","","","","","","","",""
"","","","","","html-button-response","189","466127","0.0-3.0-1.1-1.1-1.1","63e50a77fb746e1db8a9e223","B2","batch2","","1556.1000000238419","<p class = block-text>True or False: You can only move the ball on top of a peg. <br></p>","0","tol_quiz","true","","","","","","","","","","","","","","","","","","","","","","","",""
"","","","","","html-button-response","190","466830","0.0-3.0-1.1-1.1-2.1","63e50a77fb746e1db8a9e223","B2","batch2","","703","<p class = block-text>Correct! You can only move the ball on top of a peg.</p>","0","tol_quiz_feedback","","","","","","","","","","","","","","","","","","","","","","","","",""
"","","","","","html-button-response","191","468201","0.0-3.0-1.1-1.1-3.1","63e50a77fb746e1db8a9e223","B2","batch2","","1369.3999999761581","<p class = block-text>True or False: You should try to match your board with the target board with fewest moves possible. <br></p>","0","tol_quiz","true","","","","","","","","","","","","","","","","","","","","","","","",""
"","","","","","html-button-response","192","468923","0.0-3.0-1.1-1.1-4.1","63e50a77fb746e1db8a9e223","B2","batch2","","721.5999999940395","<p class = block-text>Correct! </p>","0","tol_quiz_feedback","","","","","","","","","","","","","","","","","","","","","","","","",""
"","","","","","html-button-response","193","470799","0.0-3.0-2.0","63e50a77fb746e1db8a9e223","B2","batch2","","1875.300000011921","<p class=block-text> Now that you've understood the game, let's practice a few easier examples before we start!<br> <br>","0","","","","","","","","","","","","","","","","","","","","","","","","","",""
"","","","","","single-stim-button","194","473016","0.0-3.0-3.0-0.0","63e50a77fb746e1db8a9e223","B2","batch2","","2216","","","tol_practice","","","","","","","","","tol_peg_2","2216","2216","0","[[1,2,0],[0,0],[0]]","1","[[1,2,0],[0,0],[3]]","practice","2216","","","","","","","",""
"","","","","","single-stim-button","195","475354","0.0-3.0-3.0-1.0","63e50a77fb746e1db8a9e223","B2","batch2","","2338","","","tol_practice","","","","","","","","","tol_peg_3","2338","2338","0","[[1,2,0],[0,0],[3]]","1","[[1,2,0],[0,0],[3]]","practice","2338","","","","","","","",""
"","","","","","poldrack-single-stim","196","476356","0.0-3.0-4.0","63e50a77fb746e1db8a9e223","B2","batch2","","-1","","","tol_feedback","true","","","","","","","","","1000","1000","500","","","","","","-1","none","true","","0","","",""
"","","","","","single-stim-button","197","478645","0.0-3.0-5.0-0.0","63e50a77fb746e1db8a9e223","B2","batch2","","2289","","","tol_practice","","","","","","","","","tol_peg_1","2289","2289","0","[[1,0,0],[3,0],[0]]","2","[[0,0,0],[3,1],[2]]","practice","2289","","","","","","","",""
"","","","","","single-stim-button","198","482691","0.0-3.0-5.0-1.0","63e50a77fb746e1db8a9e223","B2","batch2","","4046","","","tol_practice","","","","","","","","","tol_peg_3","4046","4046","0","[[1,0,0],[3,0],[2]]","2","[[0,0,0],[3,1],[2]]","practice","4046","","","","","","","",""
"","","","","","single-stim-button","199","483233","0.0-3.0-5.1-0.1","63e50a77fb746e1db8a9e223","B2","batch2","","542","","","tol_practice","","","","","","","","","tol_peg_1","542","542","0","[[0,0,0],[3,0],[2]]","3","[[0,0,0],[3,1],[2]]","practice","542","","","","","","","",""
"","","","","","single-stim-button","200","483816","0.0-3.0-5.1-1.1","63e50a77fb746e1db8a9e223","B2","batch2","","582","","","tol_practice","","","","","","","","","tol_peg_2","582","582","0","[[0,0,0],[3,1],[2]]","3","[[0,0,0],[3,1],[2]]","practice","582","","","","","","","",""
"","","","","","poldrack-single-stim","201","484818","0.0-3.0-6.0","63e50a77fb746e1db8a9e223","B2","batch2","","-1","","","tol_feedback","true","","","","","","","","","1000","1000","500","","","","","","-1","none","true","","0","","",""
"","","","","","single-stim-button","202","488277","0.0-3.0-7.0-0.0","63e50a77fb746e1db8a9e223","B2","batch2","","3459","","","tol_practice","","","","","","","","","tol_peg_2","3459","3459","0","[[1,2,0],[0,0],[0]]","4","[[1,0,0],[2,0],[3]]","practice","3459","","","","","","","",""
"","","","","","single-stim-button","203","489475","0.0-3.0-7.0-1.0","63e50a77fb746e1db8a9e223","B2","batch2","","1198","","","tol_practice","","","","","","","","","tol_peg_3","1198","1198","0","[[1,2,0],[0,0],[3]]","4","[[1,0,0],[2,0],[3]]","practice","1198","","","","","","","",""
"","","","","","single-stim-button","204","490107","0.0-3.0-7.1-0.1","63e50a77fb746e1db8a9e223","B2","batch2","","630","","","tol_practice","","","","","","","","","tol_peg_1","630","630","0","[[1,0,0],[0,0],[3]]","5","[[1,0,0],[2,0],[3]]","practice","630","","","","","","","",""
"","","","","","single-stim-button","205","490737","0.0-3.0-7.1-1.1","63e50a77fb746e1db8a9e223","B2","batch2","","630","","","tol_practice","","","","","","","","","tol_peg_2","630","630","0","[[1,0,0],[2,0],[3]]","5","[[1,0,0],[2,0],[3]]","practice","630","","","","","","","",""
"","","","","","poldrack-single-stim","206","491739","0.0-3.0-8.0","63e50a77fb746e1db8a9e223","B2","batch2","","-1","","","tol_feedback","true","","","","","","","","","1000","1000","500","","","","","","-1","none","true","","0","","",""
"","","","","","html-button-response","207","492983","0.0-3.0-9.0","63e50a77fb746e1db8a9e223","B2","batch2","","1244.5","<div class = centerbox><p class = center-block-text>Great job! You are done with practice trials<br>You are about to start official trials.<br> <br> Problem <strong>1</strong> out of 25 problems</p></div>","0","tol_instruction","","","","","","","","","","","","","","","","","","","","","","","","",""
"","","","","","single-stim-button","208","498956","0.0-3.0-10.0-0.0","63e50a77fb746e1db8a9e223","B2","batch2","","4971","","","tol_tohand","","","","","","","","","tol_peg_2","4971","4971","0","[[1,2,0],[0,0],[0]]","1","[[1,3,0],[2,0],[0]]","0","0","","","","","","3","",""
"","","","","","single-stim-button","209","499620","0.0-3.0-10.0-1.0","63e50a77fb746e1db8a9e223","B2","batch2","","663","","","tol_toboard","","","","","","","","","tol_peg_1","663","663","0","[[1,2,3],[0,0],[0]]","1","[[1,3,0],[2,0],[0]]","0","0","","","","","","3","",""
"","","","","","single-stim-button","210","500620","0.0-3.0-10.1-0.1","63e50a77fb746e1db8a9e223","B2","batch2","","999","","","tol_tohand","","","","","","","","","tol_peg_1","999","999","0","[[1,2,0],[0,0],[0]]","2","[[1,3,0],[2,0],[0]]","0","0","","","","","","3","",""
"","","","","","single-stim-button","211","502150","0.0-3.0-10.1-1.1","63e50a77fb746e1db8a9e223","B2","batch2","","1529","","","tol_toboard","","","","","","","","","tol_peg_2","1529","1529","0","[[1,2,0],[3,0],[0]]","2","[[1,3,0],[2,0],[0]]","0","0","","","","","","3","",""
"","","","","","single-stim-button","212","502469","0.0-3.0-10.2-0.2","63e50a77fb746e1db8a9e223","B2","batch2","","319","","","tol_tohand","","","","","","","","","tol_peg_1","319","319","0","[[1,0,0],[3,0],[0]]","3","[[1,3,0],[2,0],[0]]","0","0","","","","","","3","",""
"","","","","","single-stim-button","213","502906","0.0-3.0-10.2-1.2","63e50a77fb746e1db8a9e223","B2","batch2","","436","","","tol_toboard","","","","","","","","","tol_peg_3","436","436","0","[[1,0,0],[3,0],[2]]","3","[[1,3,0],[2,0],[0]]","0","0","","","","","","3","",""
"","","","","","single-stim-button","214","503491","0.0-3.0-10.3-0.3","63e50a77fb746e1db8a9e223","B2","batch2","","583","","","tol_tohand","","","","","","","","","tol_peg_2","583","583","0","[[1,0,0],[0,0],[2]]","4","[[1,3,0],[2,0],[0]]","0","0","","","","","","3","",""
"","","","","","single-stim-button","215","504099","0.0-3.0-10.3-1.3","63e50a77fb746e1db8a9e223","B2","batch2","","608","","","tol_toboard","","","","","","","","","tol_peg_1","608","608","0","[[1,3,0],[0,0],[2]]","4","[[1,3,0],[2,0],[0]]","0","0","","","","","","3","",""
"","","","","","single-stim-button","216","505072","0.0-3.0-10.4-0.4","63e50a77fb746e1db8a9e223","B2","batch2","","972","","","tol_tohand","","","","","","","","","tol_peg_3","972","972","0","[[1,3,0],[0,0],[0]]","5","[[1,3,0],[2,0],[0]]","0","0","","","","","","3","",""
"","","","","","single-stim-button","217","505615","0.0-3.0-10.4-1.4","63e50a77fb746e1db8a9e223","B2","batch2","","541","","","tol_toboard","","","","","","","","","tol_peg_2","541","541","0","[[1,3,0],[2,0],[0]]","5","[[1,3,0],[2,0],[0]]","0","0","","","","","","3","",""
"","","","","","poldrack-single-stim","218","506623","0.0-3.0-11.0","63e50a77fb746e1db8a9e223","B2","batch2","","-1","","","tol_feedback","true","","","","","","","","","1000","1000","500","","","","","","-1","none","true","4971","7844","","",""
"","","","","","html-button-response","219","507219","0.0-3.0-12.0","63e50a77fb746e1db8a9e223","B2","batch2","","594.6999999880791","<div class = centerbox><p class = center-block-text>problem <strong>2</strong> out of 25 problems</p></div>","0","tol_trial_num","","","","","","","","","","","","","","","","","","","","","","","","",""
"","","","","","single-stim-button","220","511058","0.0-3.0-13.0-0.0","63e50a77fb746e1db8a9e223","B2","batch2","","3838","","","tol_tohand","","","","","","","","","tol_peg_1","3838","3838","0","[[1,0,0],[3,0],[0]]","1","[[2,1,3],[0,0],[0]]","1","0","","","","","","5","",""
"","","","","","single-stim-button","221","512995","0.0-3.0-13.0-1.0","63e50a77fb746e1db8a9e223","B2","batch2","","1937","","","tol_toboard","","","","","","","","","tol_peg_3","1937","1937","0","[[1,0,0],[3,0],[2]]","1","[[2,1,3],[0,0],[0]]","1","0","","","","","","5","",""
"","","","","","single-stim-button","222","514071","0.0-3.0-13.1-0.1","63e50a77fb746e1db8a9e223","B2","batch2","","1075","","","tol_tohand","","","","","","","","","tol_peg_1","1075","1075","0","[[0,0,0],[3,0],[2]]","2","[[2,1,3],[0,0],[0]]","1","0","","","","","","5","",""
"","","","","","single-stim-button","223","516780","0.0-3.0-13.1-1.1","63e50a77fb746e1db8a9e223","B2","batch2","","2707","","","tol_toboard","","","","","","","","","tol_peg_2","2707","2707","0","[[0,0,0],[3,1],[2]]","2","[[2,1,3],[0,0],[0]]","1","0","","","","","","5","",""
"","","","","","single-stim-button","224","517300","0.0-3.0-13.2-0.2","63e50a77fb746e1db8a9e223","B2","batch2","","519","","","tol_tohand","","","","","","","","","tol_peg_3","519","519","0","[[0,0,0],[3,1],[0]]","3","[[2,1,3],[0,0],[0]]","1","0","","","","","","5","",""
"","","","","","single-stim-button","225","518793","0.0-3.0-13.2-1.2","63e50a77fb746e1db8a9e223","B2","batch2","","1492","","","tol_toboard","","","","","","","","","tol_peg_1","1492","1492","0","[[2,0,0],[3,1],[0]]","3","[[2,1,3],[0,0],[0]]","1","0","","","","","","5","",""
"","","","","","single-stim-button","226","519203","0.0-3.0-13.3-0.3","63e50a77fb746e1db8a9e223","B2","batch2","","410","","","tol_tohand","","","","","","","","","tol_peg_2","410","410","0","[[2,0,0],[3,0],[0]]","4","[[2,1,3],[0,0],[0]]","1","0","","","","","","5","",""
"","","","","","single-stim-button","227","519814","0.0-3.0-13.3-1.3","63e50a77fb746e1db8a9e223","B2","batch2","","610","","","tol_toboard","","","","","","","","","tol_peg_1","610","610","0","[[2,1,0],[3,0],[0]]","4","[[2,1,3],[0,0],[0]]","1","0","","","","","","5","",""
"","","","","","single-stim-button","228","520492","0.0-3.0-13.4-0.4","63e50a77fb746e1db8a9e223","B2","batch2","","678","","","tol_tohand","","","","","","","","","tol_peg_2","678","678","0","[[2,1,0],[0,0],[0]]","5","[[2,1,3],[0,0],[0]]","1","0","","","","","","5","",""
"","","","","","single-stim-button","229","521265","0.0-3.0-13.4-1.4","63e50a77fb746e1db8a9e223","B2","batch2","","773","","","tol_toboard","","","","","","","","","tol_peg_1","773","773","0","[[2,1,3],[0,0],[0]]","5","[[2,1,3],[0,0],[0]]","1","0","","","","","","5","",""
"","","","","","poldrack-single-stim","230","522266","0.0-3.0-14.0","63e50a77fb746e1db8a9e223","B2","batch2","","-1","","","tol_feedback","true","","","","","","","","","1000","1000","500","","","","","","-1","none","true","3838","6520","","",""
"","","","","","html-button-response","231","522943","0.0-3.0-15.0","63e50a77fb746e1db8a9e223","B2","batch2","","675.7999999821186","<div class = centerbox><p class = center-block-text>problem <strong>3</strong> out of 25 problems</p></div>","0","tol_trial_num","","","","","","","","","","","","","","","","","","","","","","","","",""
"","","","","","single-stim-button","232","524585","0.0-3.0-16.0-0.0","63e50a77fb746e1db8a9e223","B2","batch2","","1642","","","tol_tohand","","","","","","","","","tol_peg_1","1642","1642","0","[[2,0,0],[0,0],[1]]","1","[[1,2,0],[3,0],[0]]","2","0","","","","","","4","",""
"","","","","","single-stim-button","233","525990","0.0-3.0-16.0-1.0","63e50a77fb746e1db8a9e223","B2","batch2","","1404","","","tol_toboard","","","","","","","","","tol_peg_2","1404","1404","0","[[2,0,0],[3,0],[1]]","1","[[1,2,0],[3,0],[0]]","2","0","","","","","","4","",""
"","","","","","single-stim-button","234","528050","0.0-3.0-16.1-0.1","63e50a77fb746e1db8a9e223","B2","batch2","","2059","","","tol_tohand","","","","","","","","","tol_peg_3","2059","2059","0","[[2,0,0],[3,0],[0]]","2","[[1,2,0],[3,0],[0]]","2","0","","","","","","4","",""
"","","","","","single-stim-button","235","528539","0.0-3.0-16.1-1.1","63e50a77fb746e1db8a9e223","B2","batch2","","489","","","tol_toboard","","","","","","","","","tol_peg_2","489","489","0","[[2,0,0],[3,1],[0]]","2","[[1,2,0],[3,0],[0]]","2","0","","","","","","4","",""
"","","","","","single-stim-button","236","528875","0.0-3.0-16.2-0.2","63e50a77fb746e1db8a9e223","B2","batch2","","335","","","tol_tohand","","","","","","","","","tol_peg_1","335","335","0","[[0,0,0],[3,1],[0]]","3","[[1,2,0],[3,0],[0]]","2","0","","","","","","4","",""
"","","","","","single-stim-button","237","529320","0.0-3.0-16.2-1.2","63e50a77fb746e1db8a9e223","B2","batch2","","444","","","tol_toboard","","","","","","","","","tol_peg_3","444","444","0","[[0,0,0],[3,1],[2]]","3","[[1,2,0],[3,0],[0]]","2","0","","","","","","4","",""
"","","","","","single-stim-button","238","529947","0.0-3.0-16.3-0.3","63e50a77fb746e1db8a9e223","B2","batch2","","627","","","tol_tohand","","","","","","","","","tol_peg_2","627","627","0","[[0,0,0],[3,0],[2]]","4","[[1,2,0],[3,0],[0]]","2","0","","","","","","4","",""
"","","","","","single-stim-button","239","530437","0.0-3.0-16.3-1.3","63e50a77fb746e1db8a9e223","B2","batch2","","490","","","tol_toboard","","","","","","","","","tol_peg_1","490","490","0","[[1,0,0],[3,0],[2]]","4","[[1,2,0],[3,0],[0]]","2","0","","","","","","4","",""
"","","","","","single-stim-button","240","530811","0.0-3.0-16.4-0.4","63e50a77fb746e1db8a9e223","B2","batch2","","374","","","tol_tohand","","","","","","","","","tol_peg_3","374","374","0","[[1,0,0],[3,0],[0]]","5","[[1,2,0],[3,0],[0]]","2","0","","","","","","4","",""
"","","","","","single-stim-button","241","531367","0.0-3.0-16.4-1.4","63e50a77fb746e1db8a9e223","B2","batch2","","556","","","tol_toboard","","","","","","","","","tol_peg_1","556","556","0","[[1,2,0],[3,0],[0]]","5","[[1,2,0],[3,0],[0]]","2","0","","","","","","4","",""
"","","","","","poldrack-single-stim","242","532368","0.0-3.0-17.0","63e50a77fb746e1db8a9e223","B2","batch2","","-1","","","tol_feedback","true","","","","","","","","","1000","1000","500","","","","","","-1","none","true","1642","5037","","",""
"","","","","","html-button-response","243","533077","0.0-3.0-18.0","63e50a77fb746e1db8a9e223","B2","batch2","","708.2000000178814","<div class = centerbox><p class = center-block-text>problem <strong>4</strong> out of 25 problems</p></div>","0","tol_trial_num","","","","","","","","","","","","","","","","","","","","","","","","",""
"","","","","","single-stim-button","244","535284","0.0-3.0-19.0-0.0","63e50a77fb746e1db8a9e223","B2","batch2","","2207","","","tol_tohand","","","","","","","","","tol_peg_2","2207","2207","0","[[3,0,0],[2,0],[0]]","1","[[3,0,0],[1,0],[2]]","3","0","","","","","","3","",""
"","","","","","single-stim-button","245","536401","0.0-3.0-19.0-1.0","63e50a77fb746e1db8a9e223","B2","batch2","","1117","","","tol_toboard","","","","","","","","","tol_peg_1","1117","1117","0","[[3,1,0],[2,0],[0]]","1","[[3,0,0],[1,0],[2]]","3","0","","","","","","3","",""
"","","","","","single-stim-button","246","536754","0.0-3.0-19.1-0.1","63e50a77fb746e1db8a9e223","B2","batch2","","352","","","tol_tohand","","","","","","","","","tol_peg_2","352","352","0","[[3,1,0],[0,0],[0]]","2","[[3,0,0],[1,0],[2]]","3","0","","","","","","3","",""
"","","","","","single-stim-button","247","537121","0.0-3.0-19.1-1.1","63e50a77fb746e1db8a9e223","B2","batch2","","366","","","tol_toboard","","","","","","","","","tol_peg_3","366","366","0","[[3,1,0],[0,0],[2]]","2","[[3,0,0],[1,0],[2]]","3","0","","","","","","3","",""
"","","","","","single-stim-button","248","537539","0.0-3.0-19.2-0.2","63e50a77fb746e1db8a9e223","B2","batch2","","417","","","tol_tohand","","","","","","","","","tol_peg_1","417","417","0","[[3,0,0],[0,0],[2]]","3","[[3,0,0],[1,0],[2]]","3","0","","","","","","3","",""
"","","","","","single-stim-button","249","537890","0.0-3.0-19.2-1.2","63e50a77fb746e1db8a9e223","B2","batch2","","350","","","tol_toboard","","","","","","","","","tol_peg_2","350","350","0","[[3,0,0],[1,0],[2]]","3","[[3,0,0],[1,0],[2]]","3","0","","","","","","3","",""
"","","","","","poldrack-single-stim","250","538891","0.0-3.0-20.0","63e50a77fb746e1db8a9e223","B2","batch2","","-1","","","tol_feedback","true","","","","","","","","","1000","1000","500","","","","","","-1","none","true","2207","2976","","",""
"","","","","","html-button-response","251","539378","0.0-3.0-21.0","63e50a77fb746e1db8a9e223","B2","batch2","","486.09999999403954","<div class = centerbox><p class = center-block-text>problem <strong>5</strong> out of 25 problems</p></div>","0","tol_trial_num","","","","","","","","","","","","","","","","","","","","","","","","",""
"","","","","","single-stim-button","252","542019","0.0-3.0-22.0-0.0","63e50a77fb746e1db8a9e223","B2","batch2","","2641","","","tol_tohand","","","","","","","","","tol_peg_3","2641","2641","0","[[1,0,0],[2,0],[0]]","1","[[0,0,0],[1,2],[3]]","4","0","","","","","","7","",""
"","","","","","single-stim-button","253","542449","0.0-3.0-22.0-1.0","63e50a77fb746e1db8a9e223","B2","batch2","","430","","","tol_toboard","","","","","","","","","tol_peg_2","430","430","0","[[1,0,0],[2,3],[0]]","1","[[0,0,0],[1,2],[3]]","4","0","","","","","","7","",""
"","","","","","single-stim-button","254","542891","0.0-3.0-22.1-0.1","63e50a77fb746e1db8a9e223","B2","batch2","","442","","","tol_tohand","","","","","","","","","tol_peg_1","442","442","0","[[0,0,0],[2,3],[0]]","2","[[0,0,0],[1,2],[3]]","4","0","","","","","","7","",""
"","","","","","single-stim-button","255","544056","0.0-3.0-22.1-1.1","63e50a77fb746e1db8a9e223","B2","batch2","","1164","","","tol_toboard","","","","","","","","","tol_peg_3","1164","1164","0","[[0,0,0],[2,3],[1]]","2","[[0,0,0],[1,2],[3]]","4","0","","","","","","7","",""
"","","","","","single-stim-button","256","544444","0.0-3.0-22.2-0.2","63e50a77fb746e1db8a9e223","B2","batch2","","388","","","tol_tohand","","","","","","","","","tol_peg_2","388","388","0","[[0,0,0],[2,0],[1]]","3","[[0,0,0],[1,2],[3]]","4","0","","","","","","7","",""
"","","","","","single-stim-button","257","545098","0.0-3.0-22.2-1.2","63e50a77fb746e1db8a9e223","B2","batch2","","653","","","tol_toboard","","","","","","","","","tol_peg_1","653","653","0","[[3,0,0],[2,0],[1]]","3","[[0,0,0],[1,2],[3]]","4","0","","","","","","7","",""
"","","","","","single-stim-button","258","545976","0.0-3.0-22.3-0.3","63e50a77fb746e1db8a9e223","B2","batch2","","878","","","tol_tohand","","","","","","","","","tol_peg_2","878","878","0","[[3,0,0],[0,0],[1]]","4","[[0,0,0],[1,2],[3]]","4","0","","","","","","7","",""
"","","","","","single-stim-button","259","546485","0.0-3.0-22.3-1.3","63e50a77fb746e1db8a9e223","B2","batch2","","509","","","tol_toboard","","","","","","","","","tol_peg_1","509","509","0","[[3,2,0],[0,0],[1]]","4","[[0,0,0],[1,2],[3]]","4","0","","","","","","7","",""
"","","","","","single-stim-button","260","546955","0.0-3.0-22.4-0.4","63e50a77fb746e1db8a9e223","B2","batch2","","470","","","tol_tohand","","","","","","","","","tol_peg_3","470","470","0","[[3,2,0],[0,0],[0]]","5","[[0,0,0],[1,2],[3]]","4","0","","","","","","7","",""
"","","","","","single-stim-button","261","547769","0.0-3.0-22.4-1.4","63e50a77fb746e1db8a9e223","B2","batch2","","814","","","tol_toboard","","","","","","","","","tol_peg_2","814","814","0","[[3,2,0],[1,0],[0]]","5","[[0,0,0],[1,2],[3]]","4","0","","","","","","7","",""
"","","","","","single-stim-button","262","548078","0.0-3.0-22.5-0.5","63e50a77fb746e1db8a9e223","B2","batch2","","309","","","tol_tohand","","","","","","","","","tol_peg_1","309","309","0","[[3,0,0],[1,0],[0]]","6","[[0,0,0],[1,2],[3]]","4","0","","","","","","7","",""
"","","","","","single-stim-button","263","548569","0.0-3.0-22.5-1.5","63e50a77fb746e1db8a9e223","B2","batch2","","491","","","tol_toboard","","","","","","","","","tol_peg_2","491","491","0","[[3,0,0],[1,2],[0]]","6","[[0,0,0],[1,2],[3]]","4","0","","","","","","7","",""
"","","","","","single-stim-button","264","549965","0.0-3.0-22.6-0.6","63e50a77fb746e1db8a9e223","B2","batch2","","1395","","","tol_tohand","","","","","","","","","tol_peg_1","1395","1395","0","[[0,0,0],[1,2],[0]]","7","[[0,0,0],[1,2],[3]]","4","0","","","","","","7","",""
"","","","","","single-stim-button","265","550312","0.0-3.0-22.6-1.6","63e50a77fb746e1db8a9e223","B2","batch2","","346","","","tol_toboard","","","","","","","","","tol_peg_3","346","346","0","[[0,0,0],[1,2],[3]]","7","[[0,0,0],[1,2],[3]]","4","0","","","","","","7","",""
"","","","","","poldrack-single-stim","266","551321","0.0-3.0-23.0","63e50a77fb746e1db8a9e223","B2","batch2","","-1","","","tol_feedback","true","","","","","","","","","1000","1000","500","","","","","","-1","none","true","2641","6523","","",""
"","","","","","html-button-response","267","551896","0.0-3.0-24.0","63e50a77fb746e1db8a9e223","B2","batch2","","574.5","<div class = centerbox><p class = center-block-text>problem <strong>6</strong> out of 25 problems</p></div>","0","tol_trial_num","","","","","","","","","","","","","","","","","","","","","","","","",""
"","","","","","single-stim-button","268","556069","0.0-3.0-25.0-0.0","63e50a77fb746e1db8a9e223","B2","batch2","","4173","","","tol_tohand","","","","","","","","","tol_peg_2","4173","4173","0","[[0,0,0],[1,0],[3]]","1","[[1,0,0],[2,3],[0]]","5","0","","","","","","6","",""
"","","","","","single-stim-button","269","556794","0.0-3.0-25.0-1.0","63e50a77fb746e1db8a9e223","B2","batch2","","725","","","tol_toboard","","","","","","","","","tol_peg_1","725","725","0","[[2,0,0],[1,0],[3]]","1","[[1,0,0],[2,3],[0]]","5","0","","","","","","6","",""
"","","","","","single-stim-button","270","557650","0.0-3.0-25.1-0.1","63e50a77fb746e1db8a9e223","B2","batch2","","856","","","tol_tohand","","","","","","","","","tol_peg_3","856","856","0","[[2,0,0],[1,0],[0]]","2","[[1,0,0],[2,3],[0]]","5","0","","","","","","6","",""
"","","","","","single-stim-button","271","558121","0.0-3.0-25.1-1.1","63e50a77fb746e1db8a9e223","B2","batch2","","471","","","tol_toboard","","","","","","","","","tol_peg_2","471","471","0","[[2,0,0],[1,3],[0]]","2","[[1,0,0],[2,3],[0]]","5","0","","","","","","6","",""
"","","","","","single-stim-button","272","558616","0.0-3.0-25.2-0.2","63e50a77fb746e1db8a9e223","B2","batch2","","495","","","tol_tohand","","","","","","","","","tol_peg_1","495","495","0","[[0,0,0],[1,3],[0]]","3","[[1,0,0],[2,3],[0]]","5","0","","","","","","6","",""
"","","","","","single-stim-button","273","559457","0.0-3.0-25.2-1.2","63e50a77fb746e1db8a9e223","B2","batch2","","840","","","tol_toboard","","","","","","","","","tol_peg_3","840","840","0","[[0,0,0],[1,3],[2]]","3","[[1,0,0],[2,3],[0]]","5","0","","","","","","6","",""
"","","","","","single-stim-button","274","560407","0.0-3.0-25.3-0.3","63e50a77fb746e1db8a9e223","B2","batch2","","950","","","tol_tohand","","","","","","","","","tol_peg_2","950","950","0","[[0,0,0],[1,0],[2]]","4","[[1,0,0],[2,3],[0]]","5","0","","","","","","6","",""
"","","","","","single-stim-button","275","561175","0.0-3.0-25.3-1.3","63e50a77fb746e1db8a9e223","B2","batch2","","768","","","tol_toboard","","","","","","","","","tol_peg_1","768","768","0","[[3,0,0],[1,0],[2]]","4","[[1,0,0],[2,3],[0]]","5","0","","","","","","6","",""
"","","","","","single-stim-button","276","562014","0.0-3.0-25.4-0.4","63e50a77fb746e1db8a9e223","B2","batch2","","839","","","tol_tohand","","","","","","","","","tol_peg_2","839","839","0","[[3,0,0],[0,0],[2]]","5","[[1,0,0],[2,3],[0]]","5","0","","","","","","6","",""
"","","","","","single-stim-button","277","563300","0.0-3.0-25.4-1.4","63e50a77fb746e1db8a9e223","B2","batch2","","1286","","","tol_toboard","","","","","","","","","tol_peg_1","1286","1286","0","[[3,1,0],[0,0],[2]]","5","[[1,0,0],[2,3],[0]]","5","0","","","","","","6","",""
"","","","","","single-stim-button","278","563784","0.0-3.0-25.5-0.5","63e50a77fb746e1db8a9e223","B2","batch2","","483","","","tol_tohand","","","","","","","","","tol_peg_1","483","483","0","[[3,0,0],[0,0],[2]]","6","[[1,0,0],[2,3],[0]]","5","0","","","","","","6","",""
"","","","","","single-stim-button","279","564149","0.0-3.0-25.5-1.5","63e50a77fb746e1db8a9e223","B2","batch2","","364","","","tol_toboard","","","","","","","","","tol_peg_2","364","364","0","[[3,0,0],[1,0],[2]]","6","[[1,0,0],[2,3],[0]]","5","0","","","","","","6","",""
"","","","","","single-stim-button","280","564558","0.0-3.0-25.6-0.6","63e50a77fb746e1db8a9e223","B2","batch2","","409","","","tol_tohand","","","","","","","","","tol_peg_1","409","409","0","[[0,0,0],[1,0],[2]]","7","[[1,0,0],[2,3],[0]]","5","0","","","","","","6","",""
"","","","","","single-stim-button","281","565491","0.0-3.0-25.6-1.6","63e50a77fb746e1db8a9e223","B2","batch2","","933","","","tol_toboard","","","","","","","","","tol_peg_2","933","933","0","[[0,0,0],[1,3],[2]]","7","[[1,0,0],[2,3],[0]]","5","0","","","","","","6","",""
"","","","","","single-stim-button","282","566310","0.0-3.0-25.7-0.7","63e50a77fb746e1db8a9e223","B2","batch2","","818","","","tol_tohand","","","","","","","","","tol_peg_3","818","818","0","[[0,0,0],[1,3],[0]]","8","[[1,0,0],[2,3],[0]]","5","0","","","","","","6","",""
"","","","","","single-stim-button","283","566734","0.0-3.0-25.7-1.7","63e50a77fb746e1db8a9e223","B2","batch2","","423","","","tol_toboard","","","","","","","","","tol_peg_1","423","423","0","[[2,0,0],[1,3],[0]]","8","[[1,0,0],[2,3],[0]]","5","0","","","","","","6","",""
"","","","","","single-stim-button","284","567238","0.0-3.0-25.8-0.8","63e50a77fb746e1db8a9e223","B2","batch2","","503","","","tol_tohand","","","","","","","","","tol_peg_2","503","503","0","[[2,0,0],[1,0],[0]]","9","[[1,0,0],[2,3],[0]]","5","0","","","","","","6","",""
"","","","","","single-stim-button","285","567879","0.0-3.0-25.8-1.8","63e50a77fb746e1db8a9e223","B2","batch2","","640","","","tol_toboard","","","","","","","","","tol_peg_3","640","640","0","[[2,0,0],[1,0],[3]]","9","[[1,0,0],[2,3],[0]]","5","0","","","","","","6","",""
"","","","","","single-stim-button","286","568760","0.0-3.0-25.9-0.9","63e50a77fb746e1db8a9e223","B2","batch2","","881","","","tol_tohand","","","","","","","","","tol_peg_1","881","881","0","[[0,0,0],[1,0],[3]]","10","[[1,0,0],[2,3],[0]]","5","0","","","","","","6","",""
"","","","","","single-stim-button","287","570260","0.0-3.0-25.9-1.9","63e50a77fb746e1db8a9e223","B2","batch2","","1499","","","tol_toboard","","","","","","","","","tol_peg_1","1499","1499","0","[[2,0,0],[1,0],[3]]","10","[[1,0,0],[2,3],[0]]","5","0","","","","","","6","",""
"","","","","","single-stim-button","288","571767","0.0-3.0-25.10-0.10","63e50a77fb746e1db8a9e223","B2","batch2","","1507","","","tol_tohand","","","","","","","","","tol_peg_2","1507","1507","0","[[2,0,0],[0,0],[3]]","11","[[1,0,0],[2,3],[0]]","5","0","","","","","","6","",""
"","","","","","single-stim-button","289","573895","0.0-3.0-25.10-1.10","63e50a77fb746e1db8a9e223","B2","batch2","","2127","","","tol_toboard","","","","","","","","","tol_peg_1","2127","2127","0","[[2,1,0],[0,0],[3]]","11","[[1,0,0],[2,3],[0]]","5","0","","","","","","6","",""
"","","","","","single-stim-button","290","574827","0.0-3.0-25.11-0.11","63e50a77fb746e1db8a9e223","B2","batch2","","931","","","tol_tohand","","","","","","","","","tol_peg_3","931","931","0","[[2,1,0],[0,0],[0]]","12","[[1,0,0],[2,3],[0]]","5","0","","","","","","6","",""
"","","","","","single-stim-button","291","575173","0.0-3.0-25.11-1.11","63e50a77fb746e1db8a9e223","B2","batch2","","345","","","tol_toboard","","","","","","","","","tol_peg_2","345","345","0","[[2,1,0],[3,0],[0]]","12","[[1,0,0],[2,3],[0]]","5","0","","","","","","6","",""
"","","","","","single-stim-button","292","575791","0.0-3.0-25.12-0.12","63e50a77fb746e1db8a9e223","B2","batch2","","617","","","tol_tohand","","","","","","","","","tol_peg_1","617","617","0","[[2,0,0],[3,0],[0]]","13","[[1,0,0],[2,3],[0]]","5","0","","","","","","6","",""
"","","","","","single-stim-button","293","576466","0.0-3.0-25.12-1.12","63e50a77fb746e1db8a9e223","B2","batch2","","675","","","tol_toboard","","","","","","","","","tol_peg_3","675","675","0","[[2,0,0],[3,0],[1]]","13","[[1,0,0],[2,3],[0]]","5","0","","","","","","6","",""
"","","","","","single-stim-button","294","576837","0.0-3.0-25.13-0.13","63e50a77fb746e1db8a9e223","B2","batch2","","370","","","tol_tohand","","","","","","","","","tol_peg_1","370","370","0","[[0,0,0],[3,0],[1]]","14","[[1,0,0],[2,3],[0]]","5","0","","","","","","6","",""
"","","","","","single-stim-button","295","577752","0.0-3.0-25.13-1.13","63e50a77fb746e1db8a9e223","B2","batch2","","914","","","tol_toboard","","","","","","","","","tol_peg_2","914","914","0","[[0,0,0],[3,2],[1]]","14","[[1,0,0],[2,3],[0]]","5","0","","","","","","6","",""
"","","","","","single-stim-button","296","578251","0.0-3.0-25.14-0.14","63e50a77fb746e1db8a9e223","B2","batch2","","499","","","tol_tohand","","","","","","","","","tol_peg_3","499","499","0","[[0,0,0],[3,2],[0]]","15","[[1,0,0],[2,3],[0]]","5","0","","","","","","6","",""
"","","","","","single-stim-button","297","578910","0.0-3.0-25.14-1.14","63e50a77fb746e1db8a9e223","B2","batch2","","658","","","tol_toboard","","","","","","","","","tol_peg_1","658","658","0","[[1,0,0],[3,2],[0]]","15","[[1,0,0],[2,3],[0]]","5","0","","","","","","6","",""
"","","","","","single-stim-button","298","579409","0.0-3.0-25.15-0.15","63e50a77fb746e1db8a9e223","B2","batch2","","498","","","tol_tohand","","","","","","","","","tol_peg_2","498","498","0","[[1,0,0],[3,0],[0]]","16","[[1,0,0],[2,3],[0]]","5","0","","","","","","6","",""
"","","","","","single-stim-button","299","579725","0.0-3.0-25.15-1.15","63e50a77fb746e1db8a9e223","B2","batch2","","315","","","tol_toboard","","","","","","","","","tol_peg_3","315","315","0","[[1,0,0],[3,0],[2]]","16","[[1,0,0],[2,3],[0]]","5","0","","","","","","6","",""
"","","","","","single-stim-button","300","580295","0.0-3.0-25.16-0.16","63e50a77fb746e1db8a9e223","B2","batch2","","569","","","tol_tohand","","","","","","","","","tol_peg_2","569","569","0","[[1,0,0],[0,0],[2]]","17","[[1,0,0],[2,3],[0]]","5","0","","","","","","6","",""
"","","","","","single-stim-button","301","580821","0.0-3.0-25.16-1.16","63e50a77fb746e1db8a9e223","B2","batch2","","526","","","tol_toboard","","","","","","","","","tol_peg_1","526","526","0","[[1,3,0],[0,0],[2]]","17","[[1,0,0],[2,3],[0]]","5","0","","","","","","6","",""
"","","","","","single-stim-button","302","581245","0.0-3.0-25.17-0.17","63e50a77fb746e1db8a9e223","B2","batch2","","423","","","tol_tohand","","","","","","","","","tol_peg_3","423","423","0","[[1,3,0],[0,0],[0]]","18","[[1,0,0],[2,3],[0]]","5","0","","","","","","6","",""
"","","","","","single-stim-button","303","581540","0.0-3.0-25.17-1.17","63e50a77fb746e1db8a9e223","B2","batch2","","295","","","tol_toboard","","","","","","","","","tol_peg_2","295","295","0","[[1,3,0],[2,0],[0]]","18","[[1,0,0],[2,3],[0]]","5","0","","","","","","6","",""
"","","","","","single-stim-button","304","581884","0.0-3.0-25.18-0.18","63e50a77fb746e1db8a9e223","B2","batch2","","343","","","tol_tohand","","","","","","","","","tol_peg_1","343","343","0","[[1,0,0],[2,0],[0]]","19","[[1,0,0],[2,3],[0]]","5","0","","","","","","6","",""
"","","","","","single-stim-button","305","582185","0.0-3.0-25.18-1.18","63e50a77fb746e1db8a9e223","B2","batch2","","299","","","tol_toboard","","","","","","","","","tol_peg_2","299","299","0","[[1,0,0],[2,3],[0]]","19","[[1,0,0],[2,3],[0]]","5","0","","","","","","6","",""
"","","","","","poldrack-single-stim","306","583186","0.0-3.0-26.0","63e50a77fb746e1db8a9e223","B2","batch2","","-1","","","tol_feedback","true","","","","","","","","","1000","1000","500","","","","","","-1","none","true","4173","16164","","",""
"","","","","","html-button-response","307","583780","0.0-3.0-27.0","63e50a77fb746e1db8a9e223","B2","batch2","","593.0999999940395","<div class = centerbox><p class = center-block-text>problem <strong>7</strong> out of 25 problems</p></div>","0","tol_trial_num","","","","","","","","","","","","","","","","","","","","","","","","",""
"","","","","","single-stim-button","308","585695","0.0-3.0-28.0-0.0","63e50a77fb746e1db8a9e223","B2","batch2","","1915","","","tol_tohand","","","","","","","","","tol_peg_3","1915","1915","0","[[2,1,0],[0,0],[0]]","1","[[1,2,0],[3,0],[0]]","6","0","","","","","","5","",""
"","","","","","single-stim-button","309","586217","0.0-3.0-28.0-1.0","63e50a77fb746e1db8a9e223","B2","batch2","","522","","","tol_toboard","","","","","","","","","tol_peg_2","522","522","0","[[2,1,0],[3,0],[0]]","1","[[1,2,0],[3,0],[0]]","6","0","","","","","","5","",""
"","","","","","single-stim-button","310","586630","0.0-3.0-28.1-0.1","63e50a77fb746e1db8a9e223","B2","batch2","","413","","","tol_tohand","","","","","","","","","tol_peg_1","413","413","0","[[2,0,0],[3,0],[0]]","2","[[1,2,0],[3,0],[0]]","6","0","","","","","","5","",""
"","","","","","single-stim-button","311","587333","0.0-3.0-28.1-1.1","63e50a77fb746e1db8a9e223","B2","batch2","","702","","","tol_toboard","","","","","","","","","tol_peg_3","702","702","0","[[2,0,0],[3,0],[1]]","2","[[1,2,0],[3,0],[0]]","6","0","","","","","","5","",""
"","","","","","single-stim-button","312","587763","0.0-3.0-28.2-0.2","63e50a77fb746e1db8a9e223","B2","batch2","","429","","","tol_tohand","","","","","","","","","tol_peg_1","429","429","0","[[0,0,0],[3,0],[1]]","3","[[1,2,0],[3,0],[0]]","6","0","","","","","","5","",""
"","","","","","single-stim-button","313","588153","0.0-3.0-28.2-1.2","63e50a77fb746e1db8a9e223","B2","batch2","","389","","","tol_toboard","","","","","","","","","tol_peg_2","389","389","0","[[0,0,0],[3,2],[1]]","3","[[1,2,0],[3,0],[0]]","6","0","","","","","","5","",""
"","","","","","single-stim-button","314","588446","0.0-3.0-28.3-0.3","63e50a77fb746e1db8a9e223","B2","batch2","","293","","","tol_tohand","","","","","","","","","tol_peg_2","293","293","0","[[0,0,0],[3,0],[1]]","4","[[1,2,0],[3,0],[0]]","6","0","","","","","","5","",""
"","","","","","single-stim-button","315","589226","0.0-3.0-28.3-1.3","63e50a77fb746e1db8a9e223","B2","batch2","","780","","","tol_toboard","","","","","","","","","tol_peg_2","780","780","0","[[0,0,0],[3,2],[1]]","4","[[1,2,0],[3,0],[0]]","6","0","","","","","","5","",""
"","","","","","single-stim-button","316","589638","0.0-3.0-28.4-0.4","63e50a77fb746e1db8a9e223","B2","batch2","","410","","","tol_tohand","","","","","","","","","tol_peg_3","410","410","0","[[0,0,0],[3,2],[0]]","5","[[1,2,0],[3,0],[0]]","6","0","","","","","","5","",""
"","","","","","single-stim-button","317","590038","0.0-3.0-28.4-1.4","63e50a77fb746e1db8a9e223","B2","batch2","","400","","","tol_toboard","","","","","","","","","tol_peg_1","400","400","0","[[1,0,0],[3,2],[0]]","5","[[1,2,0],[3,0],[0]]","6","0","","","","","","5","",""
"","","","","","single-stim-button","318","590549","0.0-3.0-28.5-0.5","63e50a77fb746e1db8a9e223","B2","batch2","","510","","","tol_tohand","","","","","","","","","tol_peg_2","510","510","0","[[1,0,0],[3,0],[0]]","6","[[1,2,0],[3,0],[0]]","6","0","","","","","","5","",""
"","","","","","single-stim-button","319","590871","0.0-3.0-28.5-1.5","63e50a77fb746e1db8a9e223","B2","batch2","","321","","","tol_toboard","","","","","","","","","tol_peg_1","321","321","0","[[1,2,0],[3,0],[0]]","6","[[1,2,0],[3,0],[0]]","6","0","","","","","","5","",""
"","","","","","poldrack-single-stim","320","591872","0.0-3.0-29.0","63e50a77fb746e1db8a9e223","B2","batch2","","-1","","","tol_feedback","true","","","","","","","","","1000","1000","500","","","","","","-1","none","true","1915","3970","","",""
"","","","","","html-button-response","321","592386","0.0-3.0-30.0","63e50a77fb746e1db8a9e223","B2","batch2","","513.5","<div class = centerbox><p class = center-block-text>problem <strong>8</strong> out of 25 problems</p></div>","0","tol_trial_num","","","","","","","","","","","","","","","","","","","","","","","","",""
"","","","","","single-stim-button","322","594031","0.0-3.0-31.0-0.0","63e50a77fb746e1db8a9e223","B2","batch2","","1645","","","tol_tohand","","","","","","","","","tol_peg_2","1645","1645","0","[[0,0,0],[2,0],[1]]","1","[[1,2,0],[3,0],[0]]","7","0","","","","","","4","",""
"","","","","","single-stim-button","323","595335","0.0-3.0-31.0-1.0","63e50a77fb746e1db8a9e223","B2","batch2","","1304","","","tol_toboard","","","","","","","","","tol_peg_2","1304","1304","0","[[0,0,0],[2,3],[1]]","1","[[1,2,0],[3,0],[0]]","7","0","","","","","","4","",""
"","","","","","single-stim-button","324","595762","0.0-3.0-31.1-0.1","63e50a77fb746e1db8a9e223","B2","batch2","","425","","","tol_tohand","","","","","","","","","tol_peg_3","425","425","0","[[0,0,0],[2,3],[0]]","2","[[1,2,0],[3,0],[0]]","7","0","","","","","","4","",""
"","","","","","single-stim-button","325","596440","0.0-3.0-31.1-1.1","63e50a77fb746e1db8a9e223","B2","batch2","","678","","","tol_toboard","","","","","","","","","tol_peg_1","678","678","0","[[1,0,0],[2,3],[0]]","2","[[1,2,0],[3,0],[0]]","7","0","","","","","","4","",""
"","","","","","single-stim-button","326","597135","0.0-3.0-31.2-0.2","63e50a77fb746e1db8a9e223","B2","batch2","","693","","","tol_tohand","","","","","","","","","tol_peg_2","693","693","0","[[1,0,0],[2,0],[0]]","3","[[1,2,0],[3,0],[0]]","7","0","","","","","","4","",""
"","","","","","single-stim-button","327","597515","0.0-3.0-31.2-1.2","63e50a77fb746e1db8a9e223","B2","batch2","","379","","","tol_toboard","","","","","","","","","tol_peg_3","379","379","0","[[1,0,0],[2,0],[3]]","3","[[1,2,0],[3,0],[0]]","7","0","","","","","","4","",""
"","","","","","single-stim-button","328","597856","0.0-3.0-31.3-0.3","63e50a77fb746e1db8a9e223","B2","batch2","","340","","","tol_tohand","","","","","","","","","tol_peg_2","340","340","0","[[1,0,0],[0,0],[3]]","4","[[1,2,0],[3,0],[0]]","7","0","","","","","","4","",""
"","","","","","single-stim-button","329","598240","0.0-3.0-31.3-1.3","63e50a77fb746e1db8a9e223","B2","batch2","","383","","","tol_toboard","","","","","","","","","tol_peg_1","383","383","0","[[1,2,0],[0,0],[3]]","4","[[1,2,0],[3,0],[0]]","7","0","","","","","","4","",""
"","","","","","single-stim-button","330","598649","0.0-3.0-31.4-0.4","63e50a77fb746e1db8a9e223","B2","batch2","","408","","","tol_tohand","","","","","","","","","tol_peg_3","408","408","0","[[1,2,0],[0,0],[0]]","5","[[1,2,0],[3,0],[0]]","7","0","","","","","","4","",""
"","","","","","single-stim-button","331","598981","0.0-3.0-31.4-1.4","63e50a77fb746e1db8a9e223","B2","batch2","","331","","","tol_toboard","","","","","","","","","tol_peg_2","331","331","0","[[1,2,0],[3,0],[0]]","5","[[1,2,0],[3,0],[0]]","7","0","","","","","","4","",""
"","","","","","poldrack-single-stim","332","599986","0.0-3.0-32.0","63e50a77fb746e1db8a9e223","B2","batch2","","-1","","","tol_feedback","true","","","","","","","","","1000","1000","500","","","","","","-1","none","true","1645","3511","","",""
"","","","","","html-button-response","333","600510","0.0-3.0-33.0","63e50a77fb746e1db8a9e223","B2","batch2","","523","<div class = centerbox><p class = center-block-text>problem <strong>9</strong> out of 25 problems</p></div>","0","tol_trial_num","","","","","","","","","","","","","","","","","","","","","","","","",""
"","","","","","single-stim-button","334","602393","0.0-3.0-34.0-0.0","63e50a77fb746e1db8a9e223","B2","batch2","","1882","","","tol_tohand","","","","","","","","","tol_peg_1","1882","1882","0","[[3,0,0],[0,0],[1]]","1","[[2,1,0],[3,0],[0]]","8","0","","","","","","6","",""
"","","","","","single-stim-button","335","602966","0.0-3.0-34.0-1.0","63e50a77fb746e1db8a9e223","B2","batch2","","573","","","tol_toboard","","","","","","","","","tol_peg_2","573","573","0","[[3,0,0],[2,0],[1]]","1","[[2,1,0],[3,0],[0]]","8","0","","","","","","6","",""
"","","","","","single-stim-button","336","605605","0.0-3.0-34.1-0.1","63e50a77fb746e1db8a9e223","B2","batch2","","2638","","","tol_tohand","","","","","","","","","tol_peg_3","2638","2638","0","[[3,0,0],[2,0],[0]]","2","[[2,1,0],[3,0],[0]]","8","0","","","","","","6","",""
"","","","","","single-stim-button","337","606084","0.0-3.0-34.1-1.1","63e50a77fb746e1db8a9e223","B2","batch2","","479","","","tol_toboard","","","","","","","","","tol_peg_2","479","479","0","[[3,0,0],[2,1],[0]]","2","[[2,1,0],[3,0],[0]]","8","0","","","","","","6","",""
"","","","","","single-stim-button","338","606750","0.0-3.0-34.2-0.2","63e50a77fb746e1db8a9e223","B2","batch2","","666","","","tol_tohand","","","","","","","","","tol_peg_1","666","666","0","[[0,0,0],[2,1],[0]]","3","[[2,1,0],[3,0],[0]]","8","0","","","","","","6","",""
"","","","","","single-stim-button","339","607657","0.0-3.0-34.2-1.2","63e50a77fb746e1db8a9e223","B2","batch2","","905","","","tol_toboard","","","","","","","","","tol_peg_3","905","905","0","[[0,0,0],[2,1],[3]]","3","[[2,1,0],[3,0],[0]]","8","0","","","","","","6","",""
"","","","","","single-stim-button","340","608610","0.0-3.0-34.3-0.3","63e50a77fb746e1db8a9e223","B2","batch2","","953","","","tol_tohand","","","","","","","","","tol_peg_2","953","953","0","[[0,0,0],[2,0],[3]]","4","[[2,1,0],[3,0],[0]]","8","0","","","","","","6","",""
"","","","","","single-stim-button","341","609702","0.0-3.0-34.3-1.3","63e50a77fb746e1db8a9e223","B2","batch2","","1091","","","tol_toboard","","","","","","","","","tol_peg_2","1091","1091","0","[[0,0,0],[2,1],[3]]","4","[[2,1,0],[3,0],[0]]","8","0","","","","","","6","",""
"","","","","","single-stim-button","342","610005","0.0-3.0-34.4-0.4","63e50a77fb746e1db8a9e223","B2","batch2","","302","","","tol_tohand","","","","","","","","","tol_peg_3","302","302","0","[[0,0,0],[2,1],[0]]","5","[[2,1,0],[3,0],[0]]","8","0","","","","","","6","",""
"","","","","","single-stim-button","343","610465","0.0-3.0-34.4-1.4","63e50a77fb746e1db8a9e223","B2","batch2","","459","","","tol_toboard","","","","","","","","","tol_peg_1","459","459","0","[[3,0,0],[2,1],[0]]","5","[[2,1,0],[3,0],[0]]","8","0","","","","","","6","",""
"","","","","","single-stim-button","344","610772","0.0-3.0-34.5-0.5","63e50a77fb746e1db8a9e223","B2","batch2","","307","","","tol_tohand","","","","","","","","","tol_peg_2","307","307","0","[[3,0,0],[2,0],[0]]","6","[[2,1,0],[3,0],[0]]","8","0","","","","","","6","",""
"","","","","","single-stim-button","345","611066","0.0-3.0-34.5-1.5","63e50a77fb746e1db8a9e223","B2","batch2","","292","","","tol_toboard","","","","","","","","","tol_peg_3","292","292","0","[[3,0,0],[2,0],[1]]","6","[[2,1,0],[3,0],[0]]","8","0","","","","","","6","",""
"","","","","","single-stim-button","346","611452","0.0-3.0-34.6-0.6","63e50a77fb746e1db8a9e223","B2","batch2","","385","","","tol_tohand","","","","","","","","","tol_peg_1","385","385","0","[[0,0,0],[2,0],[1]]","7","[[2,1,0],[3,0],[0]]","8","0","","","","","","6","",""
"","","","","","single-stim-button","347","613639","0.0-3.0-34.6-1.6","63e50a77fb746e1db8a9e223","B2","batch2","","2186","","","tol_toboard","","","","","","","","","tol_peg_1","2186","2186","0","[[3,0,0],[2,0],[1]]","7","[[2,1,0],[3,0],[0]]","8","0","","","","","","6","",""
