"success","timeout","failed_images","failed_audio","failed_video","trial_type","trial_index","time_elapsed","internal_node_id","subject_id","study_id","session_id","view_history","rt","task","stimulus","response","correct","mouse_click","stim_duration","block_duration","timing_post_trial","current_position","tol_num_moves_made","tol_target","tol_problem_id","tol_rt","key_press","possible_responses","tol_correct","preplanning","tol_rt_per_trial","tol_min_moves","item","answer","spm_correct","spm_rt","fiar_detect_rt","fiar_detect_correct","total_correct_fiar_detect","post_trial_gap","choices"
"true","false","[]","[]","[]","preload","0","6836","0.0-0.0","63e55887d67a5c7e32a678fa","A3","batch1","","","","","","","","","","","","","","","","","","","","","","","","","","","","","",""
"true","","","","","fullscreen","1","15496","0.0-1.0-0.0","63e55887d67a5c7e32a678fa","A3","batch1","","","","","","","","","","","","","","","","","","","","","","","","","","","","","",""
"true","","","","","fullscreen","2","19756","0.0-2.0-0.0","63e55887d67a5c7e32a678fa","A3","batch1","","","","","","","","","","","","","","","","","","","","","","","","","","","","","",""
"","","","","","instructions","3","104563","0.0-2.0-1.0-0.0-0.0","63e55887d67a5c7e32a678fa","A3","batch1","[{""page_index"":0,""viewing_time"":39744.39999961853},{""page_index"":1,""viewing_time"":7772.800000190735},{""page_index"":2,""viewing_time"":7028.89999961853},{""page_index"":3,""viewing_time"":7189.699999809265},{""page_index"":4,""viewing_time"":6928.800000190735},{""page_index"":5,""viewing_time"":10561.800000190735},{""page_index"":6,""viewing_time"":5578}]","84805.19999980927","tol-instructions","","","","","","","","","","","","","","","","","","","","","","","","","","",""
"","","","","","html-button-response","4","105877","0.0-2.0-1.0-1.0-0.0","63e55887d67a5c7e32a678fa","A3","batch1","","1311.0999994277954","tol_enter_quiz","<p class=block-text> Let's answer a few questions <br>","0","","","","","","","","","","","","","","","","","","","","","","","","",""
"","","","","","html-button-response","5","111107","0.0-2.0-1.0-1.0-1.0","63e55887d67a5c7e32a678fa","A3","batch1","","5226.5","tol_quiz","<p class = block-text>True or False: You can only move the ball on top of a peg. <br></p>","0","true","","","","","","","","","","","","","","","","","","","","","","","",""
"","","","","","html-button-response","6","112657","0.0-2.0-1.0-1.0-2.0","63e55887d67a5c7e32a678fa","A3","batch1","","1546","tol_quiz_feedback","<p class = block-text>Correct! You can only move the ball on top of a peg.</p>","0","","","","","","","","","","","","","","","","","","","","","","","","",""
"","","","","","html-button-response","7","116637","0.0-2.0-1.0-1.0-3.0","63e55887d67a5c7e32a678fa","A3","batch1","","3976.699999809265","tol_quiz","<p class = block-text>True or False: You should try to match your board with the target board with fewest moves possible. <br></p>","0","true","","","","","","","","","","","","","","","","","","","","","","","",""
"","","","","","html-button-response","8","117862","0.0-2.0-1.0-1.0-4.0","63e55887d67a5c7e32a678fa","A3","batch1","","1222.5","tol_quiz_feedback","<p class = block-text>Correct! </p>","0","","","","","","","","","","","","","","","","","","","","","","","","",""
"","","","","","html-button-response","9","120205","0.0-2.0-2.0","63e55887d67a5c7e32a678fa","A3","batch1","","2340","","<p class=block-text> Now that you've understood the game, let's practice a few easier examples before we start!<br> <br>","0","","","","","","","","","","","","","","","","","","","","","","","","",""
"","","","","","single-stim-button","10","123444","0.0-2.0-3.0-0.0","63e55887d67a5c7e32a678fa","A3","batch1","","3233","tol_practice","","","","tol_peg_2","3233","3233","0","[[1,2,0],[0,0],[0]]","1","[[1,2,0],[0,0],[3]]","practice","3233","","","","","","","","","","","","","","",""
"","","","","","single-stim-button","11","125003","0.0-2.0-3.0-1.0","63e55887d67a5c7e32a678fa","A3","batch1","","1556","tol_practice","","","","tol_peg_3","1556","1556","0","[[1,2,0],[0,0],[3]]","1","[[1,2,0],[0,0],[3]]","practice","1556","","","","","","","","","","","","","","",""
"","","","","","poldrack-single-stim","12","126023","0.0-2.0-4.0","63e55887d67a5c7e32a678fa","A3","batch1","","-1","tol_feedback","","","true","","1000","1000","500","","","","","","-1","none","true","","0","","","","","","","","","",""
"","","","","","single-stim-button","13","135130","0.0-2.0-5.0-0.0","63e55887d67a5c7e32a678fa","A3","batch1","","9105","tol_practice","","","","tol_peg_1","9105","9105","0","[[1,0,0],[3,0],[0]]","2","[[0,0,0],[3,1],[2]]","practice","9105","","","","","","","","","","","","","","",""
"","","","","","single-stim-button","14","136233","0.0-2.0-5.0-1.0","63e55887d67a5c7e32a678fa","A3","batch1","","1100","tol_practice","","","","tol_peg_3","1100","1100","0","[[1,0,0],[3,0],[2]]","2","[[0,0,0],[3,1],[2]]","practice","1100","","","","","","","","","","","","","","",""
"","","","","","single-stim-button","15","137287","0.0-2.0-5.1-0.1","63e55887d67a5c7e32a678fa","A3","batch1","","1051","tol_practice","","","","tol_peg_1","1051","1051","0","[[0,0,0],[3,0],[2]]","3","[[0,0,0],[3,1],[2]]","practice","1051","","","","","","","","","","","","","","",""
"","","","","","single-stim-button","16","137981","0.0-2.0-5.1-1.1","63e55887d67a5c7e32a678fa","A3","batch1","","692","tol_practice","","","","tol_peg_2","692","692","0","[[0,0,0],[3,1],[2]]","3","[[0,0,0],[3,1],[2]]","practice","692","","","","","","","","","","","","","","",""
"","","","","","poldrack-single-stim","17","138994","0.0-2.0-6.0","63e55887d67a5c7e32a678fa","A3","batch1","","-1","tol_feedback","","","true","","1000","1000","500","","","","","","-1","none","true","","0","","","","","","","","","",""
"","","","","","single-stim-button","18","141827","0.0-2.0-7.0-0.0","63e55887d67a5c7e32a678fa","A3","batch1","","2830","tol_practice","","","","tol_peg_1","2830","2830","0","[[1,0,0],[3,0],[0]]","4","[[1,0,0],[2,0],[3]]","practice","2830","","","","","","","","","","","","","","",""
"","","","","","single-stim-button","19","144550","0.0-2.0-7.0-1.0","63e55887d67a5c7e32a678fa","A3","batch1","","2721","tol_practice","","","","tol_peg_1","2721","2721","0","[[1,2,0],[3,0],[0]]","4","[[1,0,0],[2,0],[3]]","practice","2721","","","","","","","","","","","","","","",""
"","","","","","single-stim-button","20","145555","0.0-2.0-7.1-0.1","63e55887d67a5c7e32a678fa","A3","batch1","","1002","tol_practice","","","","tol_peg_2","1002","1002","0","[[1,2,0],[0,0],[0]]","5","[[1,0,0],[2,0],[3]]","practice","1002","","","","","","","","","","","","","","",""
"","","","","","single-stim-button","21","146459","0.0-2.0-7.1-1.1","63e55887d67a5c7e32a678fa","A3","batch1","","903","tol_practice","","","","tol_peg_3","903","903","0","[[1,2,0],[0,0],[3]]","5","[[1,0,0],[2,0],[3]]","practice","903","","","","","","","","","","","","","","",""
"","","","","","single-stim-button","22","147563","0.0-2.0-7.2-0.2","63e55887d67a5c7e32a678fa","A3","batch1","","1102","tol_practice","","","","tol_peg_1","1102","1102","0","[[1,0,0],[0,0],[3]]","6","[[1,0,0],[2,0],[3]]","practice","1102","","","","","","","","","","","","","","",""
"","","","","","single-stim-button","23","148530","0.0-2.0-7.2-1.2","63e55887d67a5c7e32a678fa","A3","batch1","","965","tol_practice","","","","tol_peg_2","965","965","0","[[1,0,0],[2,0],[3]]","6","[[1,0,0],[2,0],[3]]","practice","965","","","","","","","","","","","","","","",""
"","","","","","poldrack-single-stim","24","149552","0.0-2.0-8.0","63e55887d67a5c7e32a678fa","A3","batch1","","-1","tol_feedback","","","true","","1000","1000","500","","","","","","-1","none","true","","0","","","","","","","","","",""
"","","","","","html-button-response","25","151046","0.0-2.0-9.0","63e55887d67a5c7e32a678fa","A3","batch1","","1491.8000001907349","tol_instruction","<div class = centerbox><p class = center-block-text>Great job! You are done with practice trials<br>You are about to start official trials.<br> <br> Problem <strong>1</strong> out of 25 problems</p></div>","0","","","","","","","","","","","","","","","","","","","","","","","","",""
"","","","","","single-stim-button","26","155062","0.0-2.0-10.0-0.0","63e55887d67a5c7e32a678fa","A3","batch1","","2999","tol_tohand","","","","tol_peg_1","2999","2999","0","[[1,0,0],[3,0],[0]]","1","[[1,3,0],[2,0],[0]]","0","0","","","","","","3","","","","","","","","",""
"","","","","","single-stim-button","27","155917","0.0-2.0-10.0-1.0","63e55887d67a5c7e32a678fa","A3","batch1","","852","tol_toboard","","","","tol_peg_3","852","852","0","[[1,0,0],[3,0],[2]]","1","[[1,3,0],[2,0],[0]]","0","0","","","","","","3","","","","","","","","",""
"","","","","","single-stim-button","28","156611","0.0-2.0-10.1-0.1","63e55887d67a5c7e32a678fa","A3","batch1","","693","tol_tohand","","","","tol_peg_2","693","693","0","[[1,0,0],[0,0],[2]]","2","[[1,3,0],[2,0],[0]]","0","0","","","","","","3","","","","","","","","",""
"","","","","","single-stim-button","29","157269","0.0-2.0-10.1-1.1","63e55887d67a5c7e32a678fa","A3","batch1","","656","tol_toboard","","","","tol_peg_1","656","656","0","[[1,3,0],[0,0],[2]]","2","[[1,3,0],[2,0],[0]]","0","0","","","","","","3","","","","","","","","",""
"","","","","","single-stim-button","30","159660","0.0-2.0-10.2-0.2","63e55887d67a5c7e32a678fa","A3","batch1","","2389","tol_tohand","","","","tol_peg_3","2389","2389","0","[[1,3,0],[0,0],[0]]","3","[[1,3,0],[2,0],[0]]","0","0","","","","","","3","","","","","","","","",""
"","","","","","single-stim-button","31","160702","0.0-2.0-10.2-1.2","63e55887d67a5c7e32a678fa","A3","batch1","","1040","tol_toboard","","","","tol_peg_2","1040","1040","0","[[1,3,0],[2,0],[0]]","3","[[1,3,0],[2,0],[0]]","0","0","","","","","","3","","","","","","","","",""
"","","","","","poldrack-single-stim","32","161716","0.0-2.0-11.0","63e55887d67a5c7e32a678fa","A3","batch1","","-1","tol_feedback","","","true","","1000","1000","500","","","","","","-1","none","true","2999","6081","","","","","","","","","",""
"","","","","","html-button-response","33","163143","0.0-2.0-12.0","63e55887d67a5c7e32a678fa","A3","batch1","","1425","tol_trial_num","<div class = centerbox><p class = center-block-text>problem <strong>2</strong> out of 25 problems</p></div>","0","","","","","","","","","","","","","","","","","","","","","","","","",""
"","","","","","single-stim-button","34","167557","0.0-2.0-13.0-0.0","63e55887d67a5c7e32a678fa","A3","batch1","","4412","tol_tohand","","","","tol_peg_1","4412","4412","0","[[1,0,0],[3,0],[0]]","1","[[2,1,3],[0,0],[0]]","1","0","","","","","","5","","","","","","","","",""
"","","","","","single-stim-button","35","169801","0.0-2.0-13.0-1.0","63e55887d67a5c7e32a678fa","A3","batch1","","2241","tol_toboard","","","","tol_peg_2","2241","2241","0","[[1,0,0],[3,2],[0]]","1","[[2,1,3],[0,0],[0]]","1","0","","","","","","5","","","","","","","","",""
"","","","","","single-stim-button","36","170704","0.0-2.0-13.1-0.1","63e55887d67a5c7e32a678fa","A3","batch1","","903","tol_tohand","","","","tol_peg_1","903","903","0","[[0,0,0],[3,2],[0]]","2","[[2,1,3],[0,0],[0]]","1","0","","","","","","5","","","","","","","","",""
"","","","","","single-stim-button","37","171709","0.0-2.0-13.1-1.1","63e55887d67a5c7e32a678fa","A3","batch1","","1003","tol_toboard","","","","tol_peg_3","1003","1003","0","[[0,0,0],[3,2],[1]]","2","[[2,1,3],[0,0],[0]]","1","0","","","","","","5","","","","","","","","",""
"","","","","","single-stim-button","38","172576","0.0-2.0-13.2-0.2","63e55887d67a5c7e32a678fa","A3","batch1","","865","tol_tohand","","","","tol_peg_2","865","865","0","[[0,0,0],[3,0],[1]]","3","[[2,1,3],[0,0],[0]]","1","0","","","","","","5","","","","","","","","",""
"","","","","","single-stim-button","39","173456","0.0-2.0-13.2-1.2","63e55887d67a5c7e32a678fa","A3","batch1","","878","tol_toboard","","","","tol_peg_1","878","878","0","[[2,0,0],[3,0],[1]]","3","[[2,1,3],[0,0],[0]]","1","0","","","","","","5","","","","","","","","",""
"","","","","","single-stim-button","40","174361","0.0-2.0-13.3-0.3","63e55887d67a5c7e32a678fa","A3","batch1","","904","tol_tohand","","","","tol_peg_3","904","904","0","[[2,0,0],[3,0],[0]]","4","[[2,1,3],[0,0],[0]]","1","0","","","","","","5","","","","","","","","",""
"","","","","","single-stim-button","41","175216","0.0-2.0-13.3-1.3","63e55887d67a5c7e32a678fa","A3","batch1","","854","tol_toboard","","","","tol_peg_1","854","854","0","[[2,1,0],[3,0],[0]]","4","[[2,1,3],[0,0],[0]]","1","0","","","","","","5","","","","","","","","",""
"","","","","","single-stim-button","42","176060","0.0-2.0-13.4-0.4","63e55887d67a5c7e32a678fa","A3","batch1","","842","tol_tohand","","","","tol_peg_2","842","842","0","[[2,1,0],[0,0],[0]]","5","[[2,1,3],[0,0],[0]]","1","0","","","","","","5","","","","","","","","",""
"","","","","","single-stim-button","43","177126","0.0-2.0-13.4-1.4","63e55887d67a5c7e32a678fa","A3","batch1","","1065","tol_toboard","","","","tol_peg_1","1065","1065","0","[[2,1,3],[0,0],[0]]","5","[[2,1,3],[0,0],[0]]","1","0","","","","","","5","","","","","","","","",""
"","","","","","poldrack-single-stim","44","178143","0.0-2.0-14.0","63e55887d67a5c7e32a678fa","A3","batch1","","-1","tol_feedback","","","true","","1000","1000","500","","","","","","-1","none","true","4412","7926","","","","","","","","","",""
"","","","","","html-button-response","45","179494","0.0-2.0-15.0","63e55887d67a5c7e32a678fa","A3","batch1","","1348.6999998092651","tol_trial_num","<div class = centerbox><p class = center-block-text>problem <strong>3</strong> out of 25 problems</p></div>","0","","","","","","","","","","","","","","","","","","","","","","","","",""
"","","","","","single-stim-button","46","183373","0.0-2.0-16.0-0.0","63e55887d67a5c7e32a678fa","A3","batch1","","3877","tol_tohand","","","","tol_peg_1","3877","3877","0","[[2,0,0],[0,0],[1]]","1","[[1,2,0],[3,0],[0]]","2","0","","","","","","4","","","","","","","","",""
"","","","","","single-stim-button","47","184848","0.0-2.0-16.0-1.0","63e55887d67a5c7e32a678fa","A3","batch1","","1473","tol_toboard","","","","tol_peg_2","1473","1473","0","[[2,0,0],[3,0],[1]]","1","[[1,2,0],[3,0],[0]]","2","0","","","","","","4","","","","","","","","",""
"","","","","","single-stim-button","48","185641","0.0-2.0-16.1-0.1","63e55887d67a5c7e32a678fa","A3","batch1","","792","tol_tohand","","","","tol_peg_1","792","792","0","[[0,0,0],[3,0],[1]]","2","[[1,2,0],[3,0],[0]]","2","0","","","","","","4","","","","","","","","",""
"","","","","","single-stim-button","49","186422","0.0-2.0-16.1-1.1","63e55887d67a5c7e32a678fa","A3","batch1","","779","tol_toboard","","","","tol_peg_2","779","779","0","[[0,0,0],[3,2],[1]]","2","[[1,2,0],[3,0],[0]]","2","0","","","","","","4","","","","","","","","",""
"","","","","","single-stim-button","50","187156","0.0-2.0-16.2-0.2","63e55887d67a5c7e32a678fa","A3","batch1","","731","tol_tohand","","","","tol_peg_3","731","731","0","[[0,0,0],[3,2],[0]]","3","[[1,2,0],[3,0],[0]]","2","0","","","","","","4","","","","","","","","",""
"","","","","","single-stim-button","51","188691","0.0-2.0-16.2-1.2","63e55887d67a5c7e32a678fa","A3","batch1","","1533","tol_toboard","","","","tol_peg_1","1533","1533","0","[[1,0,0],[3,2],[0]]","3","[[1,2,0],[3,0],[0]]","2","0","","","","","","4","","","","","","","","",""
"","","","","","single-stim-button","52","190054","0.0-2.0-16.3-0.3","63e55887d67a5c7e32a678fa","A3","batch1","","1362","tol_tohand","","","","tol_peg_2","1362","1362","0","[[1,0,0],[3,0],[0]]","4","[[1,2,0],[3,0],[0]]","2","0","","","","","","4","","","","","","","","",""
"","","","","","single-stim-button","53","191034","0.0-2.0-16.3-1.3","63e55887d67a5c7e32a678fa","A3","batch1","","978","tol_toboard","","","","tol_peg_1","978","978","0","[[1,2,0],[3,0],[0]]","4","[[1,2,0],[3,0],[0]]","2","0","","","","","","4","","","","","","","","",""
"","","","","","poldrack-single-stim","54","192047","0.0-2.0-17.0","63e55887d67a5c7e32a678fa","A3","batch1","","-1","tol_feedback","","","true","","1000","1000","500","","","","","","-1","none","true","3877","6762","","","","","","","","","",""
"","","","","","html-button-response","55","193414","0.0-2.0-18.0","63e55887d67a5c7e32a678fa","A3","batch1","","1362.1999998092651","tol_trial_num","<div class = centerbox><p class = center-block-text>problem <strong>4</strong> out of 25 problems</p></div>","0","","","","","","","","","","","","","","","","","","","","","","","","",""
"","","","","","single-stim-button","56","196017","0.0-2.0-19.0-0.0","63e55887d67a5c7e32a678fa","A3","batch1","","2600","tol_tohand","","","","tol_peg_2","2600","2600","0","[[3,0,0],[2,0],[0]]","1","[[3,0,0],[1,0],[2]]","3","0","","","","","","3","","","","","","","","",""
"","","","","","single-stim-button","57","197492","0.0-2.0-19.0-1.0","63e55887d67a5c7e32a678fa","A3","batch1","","1473","tol_toboard","","","","tol_peg_1","1473","1473","0","[[3,1,0],[2,0],[0]]","1","[[3,0,0],[1,0],[2]]","3","0","","","","","","3","","","","","","","","",""
"","","","","","single-stim-button","58","198247","0.0-2.0-19.1-0.1","63e55887d67a5c7e32a678fa","A3","batch1","","753","tol_tohand","","","","tol_peg_2","753","753","0","[[3,1,0],[0,0],[0]]","2","[[3,0,0],[1,0],[2]]","3","0","","","","","","3","","","","","","","","",""
"","","","","","single-stim-button","59","199388","0.0-2.0-19.1-1.1","63e55887d67a5c7e32a678fa","A3","batch1","","1139","tol_toboard","","","","tol_peg_3","1139","1139","0","[[3,1,0],[0,0],[2]]","2","[[3,0,0],[1,0],[2]]","3","0","","","","","","3","","","","","","","","",""
"","","","","","single-stim-button","60","200429","0.0-2.0-19.2-0.2","63e55887d67a5c7e32a678fa","A3","batch1","","1040","tol_tohand","","","","tol_peg_1","1040","1040","0","[[3,0,0],[0,0],[2]]","3","[[3,0,0],[1,0],[2]]","3","0","","","","","","3","","","","","","","","",""
"","","","","","single-stim-button","61","201582","0.0-2.0-19.2-1.2","63e55887d67a5c7e32a678fa","A3","batch1","","1151","tol_toboard","","","","tol_peg_2","1151","1151","0","[[3,0,0],[1,0],[2]]","3","[[3,0,0],[1,0],[2]]","3","0","","","","","","3","","","","","","","","",""
"","","","","","poldrack-single-stim","62","202595","0.0-2.0-20.0","63e55887d67a5c7e32a678fa","A3","batch1","","-1","tol_feedback","","","true","","1000","1000","500","","","","","","-1","none","true","2600","4393","","","","","","","","","",""
"","","","","","html-button-response","63","203900","0.0-2.0-21.0","63e55887d67a5c7e32a678fa","A3","batch1","","1302.8999996185303","tol_trial_num","<div class = centerbox><p class = center-block-text>problem <strong>5</strong> out of 25 problems</p></div>","0","","","","","","","","","","","","","","","","","","","","","","","","",""
"","","","","","single-stim-button","64","206133","0.0-2.0-22.0-0.0","63e55887d67a5c7e32a678fa","A3","batch1","","2230","tol_tohand","","","","tol_peg_2","2230","2230","0","[[1,0,0],[0,0],[3]]","1","[[0,0,0],[1,2],[3]]","4","0","","","","","","7","","","","","","","","",""
"","","","","","single-stim-button","65","211015","0.0-2.0-22.0-1.0","63e55887d67a5c7e32a678fa","A3","batch1","","4881","tol_toboard","","","","tol_peg_1","4881","4881","0","[[1,2,0],[0,0],[3]]","1","[[0,0,0],[1,2],[3]]","4","0","","","","","","7","","","","","","","","",""
"","","","","","single-stim-button","66","212030","0.0-2.0-22.1-0.1","63e55887d67a5c7e32a678fa","A3","batch1","","1013","tol_tohand","","","","tol_peg_3","1013","1013","0","[[1,2,0],[0,0],[0]]","2","[[0,0,0],[1,2],[3]]","4","0","","","","","","7","","","","","","","","",""
"","","","","","single-stim-button","67","213146","0.0-2.0-22.1-1.1","63e55887d67a5c7e32a678fa","A3","batch1","","1114","tol_toboard","","","","tol_peg_2","1114","1114","0","[[1,2,0],[3,0],[0]]","2","[[0,0,0],[1,2],[3]]","4","0","","","","","","7","","","","","","","","",""
"","","","","","single-stim-button","68","216877","0.0-2.0-22.2-0.2","63e55887d67a5c7e32a678fa","A3","batch1","","3729","tol_tohand","","","","tol_peg_1","3729","3729","0","[[1,0,0],[3,0],[0]]","3","[[0,0,0],[1,2],[3]]","4","0","","","","","","7","","","","","","","","",""
"","","","","","single-stim-button","69","218204","0.0-2.0-22.2-1.2","63e55887d67a5c7e32a678fa","A3","batch1","","1325","tol_toboard","","","","tol_peg_3","1325","1325","0","[[1,0,0],[3,0],[2]]","3","[[0,0,0],[1,2],[3]]","4","0","","","","","","7","","","","","","","","",""
"","","","","","single-stim-button","70","220336","0.0-2.0-22.3-0.3","63e55887d67a5c7e32a678fa","A3","batch1","","2130","tol_tohand","","","","tol_peg_1","2130","2130","0","[[0,0,0],[3,0],[2]]","4","[[0,0,0],[1,2],[3]]","4","0","","","","","","7","","","","","","","","",""
"","","","","","single-stim-button","71","221525","0.0-2.0-22.3-1.3","63e55887d67a5c7e32a678fa","A3","batch1","","1187","tol_toboard","","","","tol_peg_1","1187","1187","0","[[1,0,0],[3,0],[2]]","4","[[0,0,0],[1,2],[3]]","4","0","","","","","","7","","","","","","","","",""
"","","","","","single-stim-button","72","222827","0.0-2.0-22.4-0.4","63e55887d67a5c7e32a678fa","A3","batch1","","1299","tol_tohand","","","","tol_peg_2","1299","1299","0","[[1,0,0],[0,0],[2]]","5","[[0,0,0],[1,2],[3]]","4","0","","","","","","7","","","","","","","","",""
"","","","","","single-stim-button","73","223980","0.0-2.0-22.4-1.4","63e55887d67a5c7e32a678fa","A3","batch1","","1151","tol_toboard","","","","tol_peg_1","1151","1151","0","[[1,3,0],[0,0],[2]]","5","[[0,0,0],[1,2],[3]]","4","0","","","","","","7","","","","","","","","",""
"","","","","","single-stim-button","74","226856","0.0-2.0-22.5-0.5","63e55887d67a5c7e32a678fa","A3","batch1","","2875","tol_tohand","","","","tol_peg_1","2875","2875","0","[[1,0,0],[0,0],[2]]","6","[[0,0,0],[1,2],[3]]","4","0","","","","","","7","","","","","","","","",""
"","","","","","single-stim-button","75","227970","0.0-2.0-22.5-1.5","63e55887d67a5c7e32a678fa","A3","batch1","","1112","tol_toboard","","","","tol_peg_2","1112","1112","0","[[1,0,0],[3,0],[2]]","6","[[0,0,0],[1,2],[3]]","4","0","","","","","","7","","","","","","","","",""
"","","","","","single-stim-button","76","228802","0.0-2.0-22.6-0.6","63e55887d67a5c7e32a678fa","A3","batch1","","830","tol_tohand","","","","tol_peg_1","830","830","0","[[0,0,0],[3,0],[2]]","7","[[0,0,0],[1,2],[3]]","4","0","","","","","","7","","","","","","","","",""
"","","","","","single-stim-button","77","229793","0.0-2.0-22.6-1.6","63e55887d67a5c7e32a678fa","A3","batch1","","989","tol_toboard","","","","tol_peg_2","989","989","0","[[0,0,0],[3,1],[2]]","7","[[0,0,0],[1,2],[3]]","4","0","","","","","","7","","","","","","","","",""
"","","","","","single-stim-button","78","230512","0.0-2.0-22.7-0.7","63e55887d67a5c7e32a678fa","A3","batch1","","717","tol_tohand","","","","tol_peg_3","717","717","0","[[0,0,0],[3,1],[0]]","8","[[0,0,0],[1,2],[3]]","4","0","","","","","","7","","","","","","","","",""
"","","","","","single-stim-button","79","231553","0.0-2.0-22.7-1.7","63e55887d67a5c7e32a678fa","A3","batch1","","1039","tol_toboard","","","","tol_peg_1","1039","1039","0","[[2,0,0],[3,1],[0]]","8","[[0,0,0],[1,2],[3]]","4","0","","","","","","7","","","","","","","","",""
"","","","","","single-stim-button","80","232457","0.0-2.0-22.8-0.8","63e55887d67a5c7e32a678fa","A3","batch1","","902","tol_tohand","","","","tol_peg_2","902","902","0","[[2,0,0],[3,0],[0]]","9","[[0,0,0],[1,2],[3]]","4","0","","","","","","7","","","","","","","","",""
"","","","","","single-stim-button","81","233362","0.0-2.0-22.8-1.8","63e55887d67a5c7e32a678fa","A3","batch1","","903","tol_toboard","","","","tol_peg_3","903","903","0","[[2,0,0],[3,0],[1]]","9","[[0,0,0],[1,2],[3]]","4","0","","","","","","7","","","","","","","","",""
"","","","","","single-stim-button","82","234155","0.0-2.0-22.9-0.9","63e55887d67a5c7e32a678fa","A3","batch1","","791","tol_tohand","","","","tol_peg_2","791","791","0","[[2,0,0],[0,0],[1]]","10","[[0,0,0],[1,2],[3]]","4","0","","","","","","7","","","","","","","","",""
"","","","","","single-stim-button","83","235197","0.0-2.0-22.9-1.9","63e55887d67a5c7e32a678fa","A3","batch1","","1040","tol_toboard","","","","tol_peg_1","1040","1040","0","[[2,3,0],[0,0],[1]]","10","[[0,0,0],[1,2],[3]]","4","0","","","","","","7","","","","","","","","",""
"","","","","","single-stim-button","84","236089","0.0-2.0-22.10-0.10","63e55887d67a5c7e32a678fa","A3","batch1","","892","tol_tohand","","","","tol_peg_3","892","892","0","[[2,3,0],[0,0],[0]]","11","[[0,0,0],[1,2],[3]]","4","0","","","","","","7","","","","","","","","",""
"","","","","","single-stim-button","85","236994","0.0-2.0-22.10-1.10","63e55887d67a5c7e32a678fa","A3","batch1","","903","tol_toboard","","","","tol_peg_2","903","903","0","[[2,3,0],[1,0],[0]]","11","[[0,0,0],[1,2],[3]]","4","0","","","","","","7","","","","","","","","",""
"","","","","","single-stim-button","86","237675","0.0-2.0-22.11-0.11","63e55887d67a5c7e32a678fa","A3","batch1","","680","tol_tohand","","","","tol_peg_1","680","680","0","[[2,0,0],[1,0],[0]]","12","[[0,0,0],[1,2],[3]]","4","0","","","","","","7","","","","","","","","",""
"","","","","","single-stim-button","87","238618","0.0-2.0-22.11-1.11","63e55887d67a5c7e32a678fa","A3","batch1","","941","tol_toboard","","","","tol_peg_3","941","941","0","[[2,0,0],[1,0],[3]]","12","[[0,0,0],[1,2],[3]]","4","0","","","","","","7","","","","","","","","",""
"","","","","","single-stim-button","88","239708","0.0-2.0-22.12-0.12","63e55887d67a5c7e32a678fa","A3","batch1","","1089","tol_tohand","","","","tol_peg_1","1089","1089","0","[[0,0,0],[1,0],[3]]","13","[[0,0,0],[1,2],[3]]","4","0","","","","","","7","","","","","","","","",""
"","","","","","single-stim-button","89","240749","0.0-2.0-22.12-1.12","63e55887d67a5c7e32a678fa","A3","batch1","","1039","tol_toboard","","","","tol_peg_2","1039","1039","0","[[0,0,0],[1,2],[3]]","13","[[0,0,0],[1,2],[3]]","4","0","","","","","","7","","","","","","","","",""
"","","","","","poldrack-single-stim","90","241771","0.0-2.0-23.0","63e55887d67a5c7e32a678fa","A3","batch1","","-1","tol_feedback","","","true","","1000","1000","500","","","","","","-1","none","true","2230","19177","","","","","","","","","",""
"","","","","","html-button-response","91","243278","0.0-2.0-24.0","63e55887d67a5c7e32a678fa","A3","batch1","","1505.9000005722046","tol_trial_num","<div class = centerbox><p class = center-block-text>problem <strong>6</strong> out of 25 problems</p></div>","0","","","","","","","","","","","","","","","","","","","","","","","","",""
"","","","","","single-stim-button","92","246563","0.0-2.0-25.0-0.0","63e55887d67a5c7e32a678fa","A3","batch1","","3282","tol_tohand","","","","tol_peg_2","3282","3282","0","[[0,0,0],[1,0],[3]]","1","[[1,0,0],[2,3],[0]]","5","0","","","","","","6","","","","","","","","",""
"","","","","","single-stim-button","93","248298","0.0-2.0-25.0-1.0","63e55887d67a5c7e32a678fa","A3","batch1","","1733","tol_toboard","","","","tol_peg_1","1733","1733","0","[[2,0,0],[1,0],[3]]","1","[[1,0,0],[2,3],[0]]","5","0","","","","","","6","","","","","","","","",""
"","","","","","single-stim-button","94","249637","0.0-2.0-25.1-0.1","63e55887d67a5c7e32a678fa","A3","batch1","","1337","tol_tohand","","","","tol_peg_3","1337","1337","0","[[2,0,0],[1,0],[0]]","2","[[1,0,0],[2,3],[0]]","5","0","","","","","","6","","","","","","","","",""
"","","","","","single-stim-button","95","250467","0.0-2.0-25.1-1.1","63e55887d67a5c7e32a678fa","A3","batch1","","828","tol_toboard","","","","tol_peg_2","828","828","0","[[2,0,0],[1,3],[0]]","2","[[1,0,0],[2,3],[0]]","5","0","","","","","","6","","","","","","","","",""
"","","","","","single-stim-button","96","251186","0.0-2.0-25.2-0.2","63e55887d67a5c7e32a678fa","A3","batch1","","717","tol_tohand","","","","tol_peg_1","717","717","0","[[0,0,0],[1,3],[0]]","3","[[1,0,0],[2,3],[0]]","5","0","","","","","","6","","","","","","","","",""
"","","","","","single-stim-button","97","254608","0.0-2.0-25.2-1.2","63e55887d67a5c7e32a678fa","A3","batch1","","3419","tol_toboard","","","","tol_peg_3","3419","3419","0","[[0,0,0],[1,3],[2]]","3","[[1,0,0],[2,3],[0]]","5","0","","","","","","6","","","","","","","","",""
"","","","","","single-stim-button","98","255264","0.0-2.0-25.3-0.3","63e55887d67a5c7e32a678fa","A3","batch1","","654","tol_tohand","","","","tol_peg_2","654","654","0","[[0,0,0],[1,0],[2]]","4","[[1,0,0],[2,3],[0]]","5","0","","","","","","6","","","","","","","","",""
"","","","","","single-stim-button","99","256169","0.0-2.0-25.3-1.3","63e55887d67a5c7e32a678fa","A3","batch1","","904","tol_toboard","","","","tol_peg_1","904","904","0","[[3,0,0],[1,0],[2]]","4","[[1,0,0],[2,3],[0]]","5","0","","","","","","6","","","","","","","","",""
"","","","","","single-stim-button","100","257124","0.0-2.0-25.4-0.4","63e55887d67a5c7e32a678fa","A3","batch1","","954","tol_tohand","","","","tol_peg_3","954","954","0","[[3,0,0],[1,0],[0]]","5","[[1,0,0],[2,3],[0]]","5","0","","","","","","6","","","","","","","","",""
"","","","","","single-stim-button","101","258177","0.0-2.0-25.4-1.4","63e55887d67a5c7e32a678fa","A3","batch1","","1051","tol_toboard","","","","tol_peg_1","1051","1051","0","[[3,2,0],[1,0],[0]]","5","[[1,0,0],[2,3],[0]]","5","0","","","","","","6","","","","","","","","",""
"","","","","","single-stim-button","102","258883","0.0-2.0-25.5-0.5","63e55887d67a5c7e32a678fa","A3","batch1","","705","tol_tohand","","","","tol_peg_2","705","705","0","[[3,2,0],[0,0],[0]]","6","[[1,0,0],[2,3],[0]]","5","0","","","","","","6","","","","","","","","",""
"","","","","","single-stim-button","103","259714","0.0-2.0-25.5-1.5","63e55887d67a5c7e32a678fa","A3","batch1","","829","tol_toboard","","","","tol_peg_3","829","829","0","[[3,2,0],[0,0],[1]]","6","[[1,0,0],[2,3],[0]]","5","0","","","","","","6","","","","","","","","",""
"","","","","","single-stim-button","104","260693","0.0-2.0-25.6-0.6","63e55887d67a5c7e32a678fa","A3","batch1","","977","tol_tohand","","","","tol_peg_1","977","977","0","[[3,0,0],[0,0],[1]]","7","[[1,0,0],[2,3],[0]]","5","0","","","","","","6","","","","","","","","",""
"","","","","","single-stim-button","105","261462","0.0-2.0-25.6-1.6","63e55887d67a5c7e32a678fa","A3","batch1","","767","tol_toboard","","","","tol_peg_2","767","767","0","[[3,0,0],[2,0],[1]]","7","[[1,0,0],[2,3],[0]]","5","0","","","","","","6","","","","","","","","",""
"","","","","","single-stim-button","106","262118","0.0-2.0-25.7-0.7","63e55887d67a5c7e32a678fa","A3","batch1","","654","tol_tohand","","","","tol_peg_1","654","654","0","[[0,0,0],[2,0],[1]]","8","[[1,0,0],[2,3],[0]]","5","0","","","","","","6","","","","","","","","",""
"","","","","","single-stim-button","107","262763","0.0-2.0-25.7-1.7","63e55887d67a5c7e32a678fa","A3","batch1","","643","tol_toboard","","","","tol_peg_2","643","643","0","[[0,0,0],[2,3],[1]]","8","[[1,0,0],[2,3],[0]]","5","0","","","","","","6","","","","","","","","",""
"","","","","","single-stim-button","108","263433","0.0-2.0-25.8-0.8","63e55887d67a5c7e32a678fa","A3","batch1","","668","tol_tohand","","","","tol_peg_3","668","668","0","[[0,0,0],[2,3],[0]]","9","[[1,0,0],[2,3],[0]]","5","0","","","","","","6","","","","","","","","",""
"","","","","","single-stim-button","109","264535","0.0-2.0-25.8-1.8","63e55887d67a5c7e32a678fa","A3","batch1","","1101","tol_toboard","","","","tol_peg_1","1101","1101","0","[[1,0,0],[2,3],[0]]","9","[[1,0,0],[2,3],[0]]","5","0","","","","","","6","","","","","","","","",""
"","","","","","poldrack-single-stim","110","265554","0.0-2.0-26.0","63e55887d67a5c7e32a678fa","A3","batch1","","-1","tol_feedback","","","true","","1000","1000","500","","","","","","-1","none","true","3282","9948","","","","","","","","","",""
"","","","","","html-button-response","111","266812","0.0-2.0-27.0","63e55887d67a5c7e32a678fa","A3","batch1","","1254.6999998092651","tol_trial_num","<div class = centerbox><p class = center-block-text>problem <strong>7</strong> out of 25 problems</p></div>","0","","","","","","","","","","","","","","","","","","","","","","","","",""
"","","","","","single-stim-button","112","270472","0.0-2.0-28.0-0.0","63e55887d67a5c7e32a678fa","A3","batch1","","3657","tol_tohand","","","","tol_peg_3","3657","3657","0","[[2,1,0],[0,0],[0]]","1","[[1,2,0],[3,0],[0]]","6","0","","","","","","5","","","","","","","","",""
"","","","","","single-stim-button","113","271291","0.0-2.0-28.0-1.0","63e55887d67a5c7e32a678fa","A3","batch1","","817","tol_toboard","","","","tol_peg_2","817","817","0","[[2,1,0],[3,0],[0]]","1","[[1,2,0],[3,0],[0]]","6","0","","","","","","5","","","","","","","","",""
"","","","","","single-stim-button","114","271923","0.0-2.0-28.1-0.1","63e55887d67a5c7e32a678fa","A3","batch1","","630","tol_tohand","","","","tol_peg_1","630","630","0","[[2,0,0],[3,0],[0]]","2","[[1,2,0],[3,0],[0]]","6","0","","","","","","5","","","","","","","","",""
"","","","","","single-stim-button","115","272704","0.0-2.0-28.1-1.1","63e55887d67a5c7e32a678fa","A3","batch1","","779","tol_toboard","","","","tol_peg_2","779","779","0","[[2,0,0],[3,1],[0]]","2","[[1,2,0],[3,0],[0]]","6","0","","","","","","5","","","","","","","","",""
"","","","","","single-stim-button","116","273373","0.0-2.0-28.2-0.2","63e55887d67a5c7e32a678fa","A3","batch1","","668","tol_tohand","","","","tol_peg_1","668","668","0","[[0,0,0],[3,1],[0]]","3","[[1,2,0],[3,0],[0]]","6","0","","","","","","5","","","","","","","","",""
"","","","","","single-stim-button","117","274290","0.0-2.0-28.2-1.2","63e55887d67a5c7e32a678fa","A3","batch1","","916","tol_toboard","","","","tol_peg_3","916","916","0","[[0,0,0],[3,1],[2]]","3","[[1,2,0],[3,0],[0]]","6","0","","","","","","5","","","","","","","","",""
"","","","","","single-stim-button","118","275455","0.0-2.0-28.3-0.3","63e55887d67a5c7e32a678fa","A3","batch1","","1163","tol_tohand","","","","tol_peg_2","1163","1163","0","[[0,0,0],[3,0],[2]]","4","[[1,2,0],[3,0],[0]]","6","0","","","","","","5","","","","","","","","",""
"","","","","","single-stim-button","119","276584","0.0-2.0-28.3-1.3","63e55887d67a5c7e32a678fa","A3","batch1","","1128","tol_toboard","","","","tol_peg_1","1128","1128","0","[[1,0,0],[3,0],[2]]","4","[[1,2,0],[3,0],[0]]","6","0","","","","","","5","","","","","","","","",""
"","","","","","single-stim-button","120","277364","0.0-2.0-28.4-0.4","63e55887d67a5c7e32a678fa","A3","batch1","","779","tol_tohand","","","","tol_peg_3","779","779","0","[[1,0,0],[3,0],[0]]","5","[[1,2,0],[3,0],[0]]","6","0","","","","","","5","","","","","","","","",""
"","","","","","single-stim-button","121","278467","0.0-2.0-28.4-1.4","63e55887d67a5c7e32a678fa","A3","batch1","","1101","tol_toboard","","","","tol_peg_1","1101","1101","0","[[1,2,0],[3,0],[0]]","5","[[1,2,0],[3,0],[0]]","6","0","","","","","","5","","","","","","","","",""
"","","","","","poldrack-single-stim","122","279489","0.0-2.0-29.0","63e55887d67a5c7e32a678fa","A3","batch1","","-1","tol_feedback","","","true","","1000","1000","500","","","","","","-1","none","true","3657","6897","","","","","","","","","",""
"","","","","","html-button-response","123","281230","0.0-2.0-30.0","63e55887d67a5c7e32a678fa","A3","batch1","","1739.1999998092651","tol_trial_num","<div class = centerbox><p class = center-block-text>problem <strong>8</strong> out of 25 problems</p></div>","0","","","","","","","","","","","","","","","","","","","","","","","","",""
"","","","","","single-stim-button","124","286746","0.0-2.0-31.0-0.0","63e55887d67a5c7e32a678fa","A3","batch1","","5513","tol_tohand","","","","tol_peg_3","5513","5513","0","[[0,0,0],[2,3],[0]]","1","[[1,2,0],[3,0],[0]]","7","0","","","","","","4","","","","","","","","",""
"","","","","","single-stim-button","125","287788","0.0-2.0-31.0-1.0","63e55887d67a5c7e32a678fa","A3","batch1","","1040","tol_toboard","","","","tol_peg_1","1040","1040","0","[[1,0,0],[2,3],[0]]","1","[[1,2,0],[3,0],[0]]","7","0","","","","","","4","","","","","","","","",""
"","","","","","single-stim-button","126","288607","0.0-2.0-31.1-0.1","63e55887d67a5c7e32a678fa","A3","batch1","","817","tol_tohand","","","","tol_peg_2","817","817","0","[[1,0,0],[2,0],[0]]","2","[[1,2,0],[3,0],[0]]","7","0","","","","","","4","","","","","","","","",""
"","","","","","single-stim-button","127","289586","0.0-2.0-31.1-1.1","63e55887d67a5c7e32a678fa","A3","batch1","","977","tol_toboard","","","","tol_peg_3","977","977","0","[[1,0,0],[2,0],[3]]","2","[[1,2,0],[3,0],[0]]","7","0","","","","","","4","","","","","","","","",""
"","","","","","single-stim-button","128","290490","0.0-2.0-31.2-0.2","63e55887d67a5c7e32a678fa","A3","batch1","","902","tol_tohand","","","","tol_peg_2","902","902","0","[[1,0,0],[0,0],[3]]","3","[[1,2,0],[3,0],[0]]","7","0","","","","","","4","","","","","","","","",""
"","","","","","single-stim-button","129","291321","0.0-2.0-31.2-1.2","63e55887d67a5c7e32a678fa","A3","batch1","","830","tol_toboard","","","","tol_peg_1","830","830","0","[[1,2,0],[0,0],[3]]","3","[[1,2,0],[3,0],[0]]","7","0","","","","","","4","","","","","","","","",""
"","","","","","single-stim-button","130","292138","0.0-2.0-31.3-0.3","63e55887d67a5c7e32a678fa","A3","batch1","","816","tol_tohand","","","","tol_peg_3","816","816","0","[[1,2,0],[0,0],[0]]","4","[[1,2,0],[3,0],[0]]","7","0","","","","","","4","","","","","","","","",""
"","","","","","single-stim-button","131","293056","0.0-2.0-31.3-1.3","63e55887d67a5c7e32a678fa","A3","batch1","","916","tol_toboard","","","","tol_peg_2","916","916","0","[[1,2,0],[3,0],[0]]","4","[[1,2,0],[3,0],[0]]","7","0","","","","","","4","","","","","","","","",""
"","","","","","poldrack-single-stim","132","294076","0.0-2.0-32.0","63e55887d67a5c7e32a678fa","A3","batch1","","-1","tol_feedback","","","true","","1000","1000","500","","","","","","-1","none","true","5513","8048","","","","","","","","","",""
"","","","","","html-button-response","133","295522","0.0-2.0-33.0","63e55887d67a5c7e32a678fa","A3","batch1","","1444.5","tol_trial_num","<div class = centerbox><p class = center-block-text>problem <strong>9</strong> out of 25 problems</p></div>","0","","","","","","","","","","","","","","","","","","","","","","","","",""
"","","","","","single-stim-button","134","299711","0.0-2.0-34.0-0.0","63e55887d67a5c7e32a678fa","A3","batch1","","4187","tol_tohand","","","","tol_peg_1","4187","4187","0","[[3,0,0],[0,0],[1]]","1","[[2,1,0],[3,0],[0]]","8","0","","","","","","6","","","","","","","","",""
"","","","","","single-stim-button","135","301335","0.0-2.0-34.0-1.0","63e55887d67a5c7e32a678fa","A3","batch1","","1622","tol_toboard","","","","tol_peg_2","1622","1622","0","[[3,0,0],[2,0],[1]]","1","[[2,1,0],[3,0],[0]]","8","0","","","","","","6","","","","","","","","",""
"","","","","","single-stim-button","136","302637","0.0-2.0-34.1-0.1","63e55887d67a5c7e32a678fa","A3","batch1","","1300","tol_tohand","","","","tol_peg_1","1300","1300","0","[[0,0,0],[2,0],[1]]","2","[[2,1,0],[3,0],[0]]","8","0","","","","","","6","","","","","","","","",""
"","","","","","single-stim-button","137","303368","0.0-2.0-34.1-1.1","63e55887d67a5c7e32a678fa","A3","batch1","","729","tol_toboard","","","","tol_peg_2","729","729","0","[[0,0,0],[2,3],[1]]","2","[[2,1,0],[3,0],[0]]","8","0","","","","","","6","","","","","","","","",""
"","","","","","single-stim-button","138","304000","0.0-2.0-34.2-0.2","63e55887d67a5c7e32a678fa","A3","batch1","","630","tol_tohand","","","","tol_peg_3","630","630","0","[[0,0,0],[2,3],[0]]","3","[[2,1,0],[3,0],[0]]","8","0","","","","","","6","","","","","","","","",""
"","","","","","single-stim-button","139","304730","0.0-2.0-34.2-1.2","63e55887d67a5c7e32a678fa","A3","batch1","","728","tol_toboard","","","","tol_peg_1","728","728","0","[[1,0,0],[2,3],[0]]","3","[[2,1,0],[3,0],[0]]","8","0","","","","","","6","","","","","","","","",""
"","","","","","single-stim-button","140","305697","0.0-2.0-34.3-0.3","63e55887d67a5c7e32a678fa","A3","batch1","","965","tol_tohand","","","","tol_peg_2","965","965","0","[[1,0,0],[2,0],[0]]","4","[[2,1,0],[3,0],[0]]","8","0","","","","","","6","","","","","","","","",""
"","","","","","single-stim-button","141","307346","0.0-2.0-34.3-1.3","63e55887d67a5c7e32a678fa","A3","batch1","","1647","tol_toboard","","","","tol_peg_2","1647","1647","0","[[1,0,0],[2,3],[0]]","4","[[2,1,0],[3,0],[0]]","8","0","","","","","","6","","","","","","","","",""
"","","","","","single-stim-button","142","308783","0.0-2.0-34.4-0.4","63e55887d67a5c7e32a678fa","A3","batch1","","1435","tol_tohand","","","","tol_peg_1","1435","1435","0","[[0,0,0],[2,3],[0]]","5","[[2,1,0],[3,0],[0]]","8","0","","","","","","6","","","","","","","","",""
"","","","","","single-stim-button","143","312514","0.0-2.0-34.4-1.4","63e55887d67a5c7e32a678fa","A3","batch1","","3729","tol_toboard","","","","tol_peg_1","3729","3729","0","[[1,0,0],[2,3],[0]]","5","[[2,1,0],[3,0],[0]]","8","0","","","","","","6","","","","","","","","",""
"","","","","","single-stim-button","144","313221","0.0-2.0-34.5-0.5","63e55887d67a5c7e32a678fa","A3","batch1","","705","tol_tohand","","","","tol_peg_2","705","705","0","[[1,0,0],[2,0],[0]]","6","[[2,1,0],[3,0],[0]]","8","0","","","","","","6","","","","","","","","",""
"","","","","","single-stim-button","145","313890","0.0-2.0-34.5-1.5","63e55887d67a5c7e32a678fa","A3","batch1","","667","tol_toboard","","","","tol_peg_3","667","667","0","[[1,0,0],[2,0],[3]]","6","[[2,1,0],[3,0],[0]]","8","0","","","","","","6","","","","","","","","",""
"","","","","","single-stim-button","146","315303","0.0-2.0-34.6-0.6","63e55887d67a5c7e32a678fa","A3","batch1","","1411","tol_tohand","","","","tol_peg_2","1411","1411","0","[[1,0,0],[0,0],[3]]","7","[[2,1,0],[3,0],[0]]","8","0","","","","","","6","","","","","","","","",""
"","","","","","single-stim-button","147","315948","0.0-2.0-34.6-1.6","63e55887d67a5c7e32a678fa","A3","batch1","","643","tol_toboard","","","","tol_peg_1","643","643","0","[[1,2,0],[0,0],[3]]","7","[[2,1,0],[3,0],[0]]","8","0","","","","","","6","","","","","","","","",""
"","","","","","single-stim-button","148","316704","0.0-2.0-34.7-0.7","63e55887d67a5c7e32a678fa","A3","batch1","","755","tol_tohand","","","","tol_peg_3","755","755","0","[[1,2,0],[0,0],[0]]","8","[[2,1,0],[3,0],[0]]","8","0","","","","","","6","","","","","","","","",""
"","","","","","single-stim-button","149","317373","0.0-2.0-34.7-1.7","63e55887d67a5c7e32a678fa","A3","batch1","","667","tol_toboard","","","","tol_peg_2","667","667","0","[[1,2,0],[3,0],[0]]","8","[[2,1,0],[3,0],[0]]","8","0","","","","","","6","","","","","","","","",""
"","","","","","single-stim-button","150","318228","0.0-2.0-34.8-0.8","63e55887d67a5c7e32a678fa","A3","batch1","","853","tol_tohand","","","","tol_peg_1","853","853","0","[[1,0,0],[3,0],[0]]","9","[[2,1,0],[3,0],[0]]","8","0","","","","","","6","","","","","","","","",""
"","","","","","single-stim-button","151","319059","0.0-2.0-34.8-1.8","63e55887d67a5c7e32a678fa","A3","batch1","","829","tol_toboard","","","","tol_peg_3","829","829","0","[[1,0,0],[3,0],[2]]","9","[[2,1,0],[3,0],[0]]","8","0","","","","","","6","","","","","","","","",""
"","","","","","single-stim-button","152","320212","0.0-2.0-34.9-0.9","63e55887d67a5c7e32a678fa","A3","batch1","","1151","tol_tohand","","","","tol_peg_1","1151","1151","0","[[0,0,0],[3,0],[2]]","10","[[2,1,0],[3,0],[0]]","8","0","","","","","","6","","","","","","","","",""
"","","","","","single-stim-button","153","321240","0.0-2.0-34.9-1.9","63e55887d67a5c7e32a678fa","A3","batch1","","1026","tol_toboard","","","","tol_peg_2","1026","1026","0","[[0,0,0],[3,1],[2]]","10","[[2,1,0],[3,0],[0]]","8","0","","","","","","6","","","","","","","","",""
"","","","","","single-stim-button","154","321984","0.0-2.0-34.10-0.10","63e55887d67a5c7e32a678fa","A3","batch1","","741","tol_tohand","","","","tol_peg_3","741","741","0","[[0,0,0],[3,1],[0]]","11","[[2,1,0],[3,0],[0]]","8","0","","","","","","6","","","","","","","","",""
"","","","","","single-stim-button","155","323112","0.0-2.0-34.10-1.10","63e55887d67a5c7e32a678fa","A3","batch1","","1126","tol_toboard","","","","tol_peg_1","1126","1126","0","[[2,0,0],[3,1],[0]]","11","[[2,1,0],[3,0],[0]]","8","0","","","","","","6","","","","","","","","",""
"","","","","","single-stim-button","156","323979","0.0-2.0-34.11-0.11","63e55887d67a5c7e32a678fa","A3","batch1","","865","tol_tohand","","","","tol_peg_2","865","865","0","[[2,0,0],[3,0],[0]]","12","[[2,1,0],[3,0],[0]]","8","0","","","","","","6","","","","","","","","",""
"","","","","","single-stim-button","157","324995","0.0-2.0-34.11-1.11","63e55887d67a5c7e32a678fa","A3","batch1","","1014","tol_toboard","","","","tol_peg_1","1014","1014","0","[[2,1,0],[3,0],[0]]","12","[[2,1,0],[3,0],[0]]","8","0","","","","","","6","","","","","","","","",""
"","","","","","poldrack-single-stim","158","326016","0.0-2.0-35.0","63e55887d67a5c7e32a678fa","A3","batch1","","-1","tol_feedback","","","true","","1000","1000","500","","","","","","-1","none","true","4187","14998","","","","","","","","","",""
"","","","","","html-button-response","159","327276","0.0-2.0-36.0","63e55887d67a5c7e32a678fa","A3","batch1","","1258","tol_trial_num","<div class = centerbox><p class = center-block-text>problem <strong>10</strong> out of 25 problems</p></div>","0","","","","","","","","","","","","","","","","","","","","","","","","",""
"","","","","","single-stim-button","160","332283","0.0-2.0-37.0-0.0","63e55887d67a5c7e32a678fa","A3","batch1","","5005","tol_tohand","","","","tol_peg_2","5005","5005","0","[[3,0,0],[0,0],[2]]","1","[[3,0,0],[2,1],[0]]","9","0","","","","","","3","","","","","","","","",""
"","","","","","single-stim-button","161","332978","0.0-2.0-37.0-1.0","63e55887d67a5c7e32a678fa","A3","batch1","","693","tol_toboard","","","","tol_peg_1","693","693","0","[[3,1,0],[0,0],[2]]","1","[[3,0,0],[2,1],[0]]","9","0","","","","","","3","","","","","","","","",""
"","","","","","single-stim-button","162","334700","0.0-2.0-37.1-0.1","63e55887d67a5c7e32a678fa","A3","batch1","","1721","tol_tohand","","","","tol_peg_3","1721","1721","0","[[3,1,0],[0,0],[0]]","2","[[3,0,0],[2,1],[0]]","9","0","","","","","","3","","","","","","","","",""
"","","","","","single-stim-button","163","335704","0.0-2.0-37.1-1.1","63e55887d67a5c7e32a678fa","A3","batch1","","1002","tol_toboard","","","","tol_peg_2","1002","1002","0","[[3,1,0],[2,0],[0]]","2","[[3,0,0],[2,1],[0]]","9","0","","","","","","3","","","","","","","","",""
"","","","","","single-stim-button","164","336361","0.0-2.0-37.2-0.2","63e55887d67a5c7e32a678fa","A3","batch1","","656","tol_tohand","","","","tol_peg_1","656","656","0","[[3,0,0],[2,0],[0]]","3","[[3,0,0],[2,1],[0]]","9","0","","","","","","3","","","","","","","","",""
"","","","","","single-stim-button","165","336956","0.0-2.0-37.2-1.2","63e55887d67a5c7e32a678fa","A3","batch1","","593","tol_toboard","","","","tol_peg_2","593","593","0","[[3,0,0],[2,1],[0]]","3","[[3,0,0],[2,1],[0]]","9","0","","","","","","3","","","","","","","","",""
"","","","","","poldrack-single-stim","166","337979","0.0-2.0-38.0","63e55887d67a5c7e32a678fa","A3","batch1","","-1","tol_feedback","","","true","","1000","1000","500","","","","","","-1","none","true","5005","7382","","","","","","","","","",""
"","","","","","html-button-response","167","339038","0.0-2.0-39.0","63e55887d67a5c7e32a678fa","A3","batch1","","1057.4000005722046","tol_trial_num","<div class = centerbox><p class = center-block-text>problem <strong>11</strong> out of 25 problems</p></div>","0","","","","","","","","","","","","","","","","","","","","","","","","",""
"","","","","","single-stim-button","168","341653","0.0-2.0-40.0-0.0","63e55887d67a5c7e32a678fa","A3","batch1","","2614","tol_tohand","","","","tol_peg_2","2614","2614","0","[[1,2,0],[0,0],[0]]","1","[[2,0,0],[1,3],[0]]","10","0","","","","","","6","","","","","","","","",""
"","","","","","single-stim-button","169","344343","0.0-2.0-40.0-1.0","63e55887d67a5c7e32a678fa","A3","batch1","","2688","tol_toboard","","","","tol_peg_2","2688","2688","0","[[1,2,0],[3,0],[0]]","1","[[2,0,0],[1,3],[0]]","10","0","","","","","","6","","","","","","","","",""
"","","","","","single-stim-button","170","347690","0.0-2.0-40.1-0.1","63e55887d67a5c7e32a678fa","A3","batch1","","3345","tol_tohand","","","","tol_peg_1","3345","3345","0","[[1,0,0],[3,0],[0]]","2","[[2,0,0],[1,3],[0]]","10","0","","","","","","6","","","","","","","","",""
"","","","","","single-stim-button","171","349127","0.0-2.0-40.1-1.1","63e55887d67a5c7e32a678fa","A3","batch1","","1436","tol_toboard","","","","tol_peg_3","1436","1436","0","[[1,0,0],[3,0],[2]]","2","[[2,0,0],[1,3],[0]]","10","0","","","","","","6","","","","","","","","",""
"","","","","","single-stim-button","172","350180","0.0-2.0-40.2-0.2","63e55887d67a5c7e32a678fa","A3","batch1","","1051","tol_tohand","","","","tol_peg_1","1051","1051","0","[[0,0,0],[3,0],[2]]","3","[[2,0,0],[1,3],[0]]","10","0","","","","","","6","","","","","","","","",""
"","","","","","single-stim-button","173","351345","0.0-2.0-40.2-1.2","63e55887d67a5c7e32a678fa","A3","batch1","","1164","tol_toboard","","","","tol_peg_2","1164","1164","0","[[0,0,0],[3,1],[2]]","3","[[2,0,0],[1,3],[0]]","10","0","","","","","","6","","","","","","","","",""
"","","","","","single-stim-button","174","352015","0.0-2.0-40.3-0.3","63e55887d67a5c7e32a678fa","A3","batch1","","668","tol_tohand","","","","tol_peg_3","668","668","0","[[0,0,0],[3,1],[0]]","4","[[2,0,0],[1,3],[0]]","10","0","","","","","","6","","","","","","","","",""
"","","","","","single-stim-button","175","353280","0.0-2.0-40.3-1.3","63e55887d67a5c7e32a678fa","A3","batch1","","1263","tol_toboard","","","","tol_peg_1","1263","1263","0","[[2,0,0],[3,1],[0]]","4","[[2,0,0],[1,3],[0]]","10","0","","","","","","6","","","","","","","","",""
"","","","","","single-stim-button","176","354283","0.0-2.0-40.4-0.4","63e55887d67a5c7e32a678fa","A3","batch1","","1001","tol_tohand","","","","tol_peg_2","1001","1001","0","[[2,0,0],[3,0],[0]]","5","[[2,0,0],[1,3],[0]]","10","0","","","","","","6","","","","","","","","",""
"","","","","","single-stim-button","177","355423","0.0-2.0-40.4-1.4","63e55887d67a5c7e32a678fa","A3","batch1","","1138","tol_toboard","","","","tol_peg_1","1138","1138","0","[[2,1,0],[3,0],[0]]","5","[[2,0,0],[1,3],[0]]","10","0","","","","","","6","","","","","","","","",""
"","","","","","single-stim-button","178","356154","0.0-2.0-40.5-0.5","63e55887d67a5c7e32a678fa","A3","batch1","","730","tol_tohand","","","","tol_peg_2","730","730","0","[[2,1,0],[0,0],[0]]","6","[[2,0,0],[1,3],[0]]","10","0","","","","","","6","","","","","","","","",""
"","","","","","single-stim-button","179","357134","0.0-2.0-40.5-1.5","63e55887d67a5c7e32a678fa","A3","batch1","","978","tol_toboard","","","","tol_peg_3","978","978","0","[[2,1,0],[0,0],[3]]","6","[[2,0,0],[1,3],[0]]","10","0","","","","","","6","","","","","","","","",""
"","","","","","single-stim-button","180","357803","0.0-2.0-40.6-0.6","63e55887d67a5c7e32a678fa","A3","batch1","","667","tol_tohand","","","","tol_peg_1","667","667","0","[[2,0,0],[0,0],[3]]","7","[[2,0,0],[1,3],[0]]","10","0","","","","","","6","","","","","","","","",""
"","","","","","single-stim-button","181","358881","0.0-2.0-40.6-1.6","63e55887d67a5c7e32a678fa","A3","batch1","","1076","tol_toboard","","","","tol_peg_2","1076","1076","0","[[2,0,0],[1,0],[3]]","7","[[2,0,0],[1,3],[0]]","10","0","","","","","","6","","","","","","","","",""
"","","","","","single-stim-button","182","359798","0.0-2.0-40.7-0.7","63e55887d67a5c7e32a678fa","A3","batch1","","915","tol_tohand","","","","tol_peg_3","915","915","0","[[2,0,0],[1,0],[0]]","8","[[2,0,0],[1,3],[0]]","10","0","","","","","","6","","","","","","","","",""
"","","","","","single-stim-button","183","360778","0.0-2.0-40.7-1.7","63e55887d67a5c7e32a678fa","A3","batch1","","978","tol_toboard","","","","tol_peg_2","978","978","0","[[2,0,0],[1,3],[0]]","8","[[2,0,0],[1,3],[0]]","10","0","","","","","","6","","","","","","","","",""
"","","","","","poldrack-single-stim","184","361784","0.0-2.0-41.0","63e55887d67a5c7e32a678fa","A3","batch1","","-1","tol_feedback","","","true","","1000","1000","500","","","","","","-1","none","true","2614","10991","","","","","","","","","",""
"","","","","","html-button-response","185","363157","0.0-2.0-42.0","63e55887d67a5c7e32a678fa","A3","batch1","","1371.2999992370605","tol_trial_num","<div class = centerbox><p class = center-block-text>problem <strong>12</strong> out of 25 problems</p></div>","0","","","","","","","","","","","","","","","","","","","","","","","","",""
"","","","","","single-stim-button","186","365698","0.0-2.0-43.0-0.0","63e55887d67a5c7e32a678fa","A3","batch1","","2539","tol_tohand","","","","tol_peg_1","2539","2539","0","[[1,0,0],[3,0],[0]]","1","[[2,3,0],[0,0],[1]]","11","0","","","","","","4","","","","","","","","",""
"","","","","","single-stim-button","187","366863","0.0-2.0-43.0-1.0","63e55887d67a5c7e32a678fa","A3","batch1","","1163","tol_toboard","","","","tol_peg_2","1163","1163","0","[[1,0,0],[3,2],[0]]","1","[[2,3,0],[0,0],[1]]","11","0","","","","","","4","","","","","","","","",""
"","","","","","single-stim-button","188","367533","0.0-2.0-43.1-0.1","63e55887d67a5c7e32a678fa","A3","batch1","","668","tol_tohand","","","","tol_peg_1","668","668","0","[[0,0,0],[3,2],[0]]","2","[[2,3,0],[0,0],[1]]","11","0","","","","","","4","","","","","","","","",""
"","","","","","single-stim-button","189","368487","0.0-2.0-43.1-1.1","63e55887d67a5c7e32a678fa","A3","batch1","","952","tol_toboard","","","","tol_peg_3","952","952","0","[[0,0,0],[3,2],[1]]","2","[[2,3,0],[0,0],[1]]","11","0","","","","","","4","","","","","","","","",""
"","","","","","single-stim-button","190","369218","0.0-2.0-43.2-0.2","63e55887d67a5c7e32a678fa","A3","batch1","","729","tol_tohand","","","","tol_peg_2","729","729","0","[[0,0,0],[3,0],[1]]","3","[[2,3,0],[0,0],[1]]","11","0","","","","","","4","","","","","","","","",""
"","","","","","single-stim-button","191","370371","0.0-2.0-43.2-1.2","63e55887d67a5c7e32a678fa","A3","batch1","","1151","tol_toboard","","","","tol_peg_1","1151","1151","0","[[2,0,0],[3,0],[1]]","3","[[2,3,0],[0,0],[1]]","11","0","","","","","","4","","","","","","","","",""
"","","","","","single-stim-button","192","371077","0.0-2.0-43.3-0.3","63e55887d67a5c7e32a678fa","A3","batch1","","704","tol_tohand","","","","tol_peg_2","704","704","0","[[2,0,0],[0,0],[1]]","4","[[2,3,0],[0,0],[1]]","11","0","","","","","","4","","","","","","","","",""
"","","","","","single-stim-button","193","372069","0.0-2.0-43.3-1.3","63e55887d67a5c7e32a678fa","A3","batch1","","990","tol_toboard","","","","tol_peg_1","990","990","0","[[2,3,0],[0,0],[1]]","4","[[2,3,0],[0,0],[1]]","11","0","","","","","","4","","","","","","","","",""
"","","","","","poldrack-single-stim","194","373088","0.0-2.0-44.0","63e55887d67a5c7e32a678fa","A3","batch1","","-1","tol_feedback","","","true","","1000","1000","500","","","","","","-1","none","true","2539","4640","","","","","","","","","",""
"","","","","","html-button-response","195","374324","0.0-2.0-45.0","63e55887d67a5c7e32a678fa","A3","batch1","","1234.1999998092651","tol_trial_num","<div class = centerbox><p class = center-block-text>problem <strong>13</strong> out of 25 problems</p></div>","0","","","","","","","","","","","","","","","","","","","","","","","","",""
"","","","","","single-stim-button","196","378514","0.0-2.0-46.0-0.0","63e55887d67a5c7e32a678fa","A3","batch1","","4188","tol_tohand","","","","tol_peg_2","4188","4188","0","[[1,2,0],[0,0],[0]]","1","[[0,0,0],[2,3],[1]]","12","0","","","","","","4","","","","","","","","",""
"","","","","","single-stim-button","197","379406","0.0-2.0-46.0-1.0","63e55887d67a5c7e32a678fa","A3","batch1","","889","tol_toboard","","","","tol_peg_3","889","889","0","[[1,2,0],[0,0],[3]]","1","[[0,0,0],[2,3],[1]]","12","0","","","","","","4","","","","","","","","",""
"","","","","","single-stim-button","198","380286","0.0-2.0-46.1-0.1","63e55887d67a5c7e32a678fa","A3","batch1","","878","tol_tohand","","","","tol_peg_1","878","878","0","[[1,0,0],[0,0],[3]]","2","[[0,0,0],[2,3],[1]]","12","0","","","","","","4","","","","","","","","",""
"","","","","","single-stim-button","199","381227","0.0-2.0-46.1-1.1","63e55887d67a5c7e32a678fa","A3","batch1","","939","tol_toboard","","","","tol_peg_2","939","939","0","[[1,0,0],[2,0],[3]]","2","[[0,0,0],[2,3],[1]]","12","0","","","","","","4","","","","","","","","",""
"","","","","","single-stim-button","200","382021","0.0-2.0-46.2-0.2","63e55887d67a5c7e32a678fa","A3","batch1","","792","tol_tohand","","","","tol_peg_3","792","792","0","[[1,0,0],[2,0],[0]]","3","[[0,0,0],[2,3],[1]]","12","0","","","","","","4","","","","","","","","",""
"","","","","","single-stim-button","201","383050","0.0-2.0-46.2-1.2","63e55887d67a5c7e32a678fa","A3","batch1","","1027","tol_toboard","","","","tol_peg_2","1027","1027","0","[[1,0,0],[2,3],[0]]","3","[[0,0,0],[2,3],[1]]","12","0","","","","","","4","","","","","","","","",""
"","","","","","single-stim-button","202","383731","0.0-2.0-46.3-0.3","63e55887d67a5c7e32a678fa","A3","batch1","","679","tol_tohand","","","","tol_peg_1","679","679","0","[[0,0,0],[2,3],[0]]","4","[[0,0,0],[2,3],[1]]","12","0","","","","","","4","","","","","","","","",""
"","","","","","single-stim-button","203","384772","0.0-2.0-46.3-1.3","63e55887d67a5c7e32a678fa","A3","batch1","","1039","tol_toboard","","","","tol_peg_3","1039","1039","0","[[0,0,0],[2,3],[1]]","4","[[0,0,0],[2,3],[1]]","12","0","","","","","","4","","","","","","","","",""
"","","","","","poldrack-single-stim","204","385784","0.0-2.0-47.0","63e55887d67a5c7e32a678fa","A3","batch1","","-1","tol_feedback","","","true","","1000","1000","500","","","","","","-1","none","true","4188","6537","","","","","","","","","",""
"","","","","","html-button-response","205","393833","0.0-2.0-48.0","63e55887d67a5c7e32a678fa","A3","batch1","","8046.799999237061","attention_check","<p class = block-text>How many balls are in your board<br></p>","1","true","","","","","","","","","","","","","","","","","","","","","","","",""
"","","","","","html-button-response","206","397564","0.0-2.0-49.0","63e55887d67a5c7e32a678fa","A3","batch1","","3727.199999809265","tol_trial_num","<div class = centerbox><p class = center-block-text>problem <strong>14</strong> out of 25 problems</p></div>","0","","","","","","","","","","","","","","","","","","","","","","","","",""
"","","","","","single-stim-button","207","410614","0.0-2.0-50.0-0.0","63e55887d67a5c7e32a678fa","A3","batch1","","13048","tol_tohand","","","","tol_peg_1","13048","13048","0","[[2,0,0],[3,0],[0]]","1","[[1,2,0],[3,0],[0]]","13","0","","","","","","4","","","","","","","","",""
"","","","","","single-stim-button","208","411433","0.0-2.0-50.0-1.0","63e55887d67a5c7e32a678fa","A3","batch1","","816","tol_toboard","","","","tol_peg_2","816","816","0","[[2,0,0],[3,1],[0]]","1","[[1,2,0],[3,0],[0]]","13","0","","","","","","4","","","","","","","","",""
"","","","","","single-stim-button","209","412337","0.0-2.0-50.1-0.1","63e55887d67a5c7e32a678fa","A3","batch1","","903","tol_tohand","","","","tol_peg_1","903","903","0","[[0,0,0],[3,1],[0]]","2","[[1,2,0],[3,0],[0]]","13","0","","","","","","4","","","","","","","","",""
"","","","","","single-stim-button","210","413304","0.0-2.0-50.1-1.1","63e55887d67a5c7e32a678fa","A3","batch1","","965","tol_toboard","","","","tol_peg_3","965","965","0","[[0,0,0],[3,1],[2]]","2","[[1,2,0],[3,0],[0]]","13","0","","","","","","4","","","","","","","","",""
"","","","","","single-stim-button","211","414048","0.0-2.0-50.2-0.2","63e55887d67a5c7e32a678fa","A3","batch1","","742","tol_tohand","","","","tol_peg_2","742","742","0","[[0,0,0],[3,0],[2]]","3","[[1,2,0],[3,0],[0]]","13","0","","","","","","4","","","","","","","","",""
"","","","","","single-stim-button","212","414927","0.0-2.0-50.2-1.2","63e55887d67a5c7e32a678fa","A3","batch1","","878","tol_toboard","","","","tol_peg_1","878","878","0","[[1,0,0],[3,0],[2]]","3","[[1,2,0],[3,0],[0]]","13","0","","","","","","4","","","","","","","","",""
"","","","","","single-stim-button","213","415857","0.0-2.0-50.3-0.3","63e55887d67a5c7e32a678fa","A3","batch1","","928","tol_tohand","","","","tol_peg_3","928","928","0","[[1,0,0],[3,0],[0]]","4","[[1,2,0],[3,0],[0]]","13","0","","","","","","4","","","","","","","","",""
"","","","","","single-stim-button","214","416812","0.0-2.0-50.3-1.3","63e55887d67a5c7e32a678fa","A3","batch1","","954","tol_toboard","","","","tol_peg_1","954","954","0","[[1,2,0],[3,0],[0]]","4","[[1,2,0],[3,0],[0]]","13","0","","","","","","4","","","","","","","","",""
"","","","","","poldrack-single-stim","215","417815","0.0-2.0-51.0","63e55887d67a5c7e32a678fa","A3","batch1","","-1","tol_feedback","","","true","","1000","1000","500","","","","","","-1","none","true","13048","15621","","","","","","","","","",""
"","","","","","html-button-response","216","419105","0.0-2.0-52.0","63e55887d67a5c7e32a678fa","A3","batch1","","1288.2000007629395","tol_trial_num","<div class = centerbox><p class = center-block-text>problem <strong>15</strong> out of 25 problems</p></div>","0","","","","","","","","","","","","","","","","","","","","","","","","",""
"","","","","","single-stim-button","217","423566","0.0-2.0-53.0-0.0","63e55887d67a5c7e32a678fa","A3","batch1","","4460","tol_tohand","","","","tol_peg_1","4460","4460","0","[[1,0,0],[3,0],[0]]","1","[[2,0,0],[3,0],[1]]","14","0","","","","","","3","","","","","","","","",""
"","","","","","single-stim-button","218","424397","0.0-2.0-53.0-1.0","63e55887d67a5c7e32a678fa","A3","batch1","","829","tol_toboard","","","","tol_peg_2","829","829","0","[[1,0,0],[3,2],[0]]","1","[[2,0,0],[3,0],[1]]","14","0","","","","","","3","","","","","","","","",""
"","","","","","single-stim-button","219","425364","0.0-2.0-53.1-0.1","63e55887d67a5c7e32a678fa","A3","batch1","","965","tol_tohand","","","","tol_peg_1","965","965","0","[[0,0,0],[3,2],[0]]","2","[[2,0,0],[3,0],[1]]","14","0","","","","","","3","","","","","","","","",""
"","","","","","single-stim-button","220","426219","0.0-2.0-53.1-1.1","63e55887d67a5c7e32a678fa","A3","batch1","","853","tol_toboard","","","","tol_peg_3","853","853","0","[[0,0,0],[3,2],[1]]","2","[[2,0,0],[3,0],[1]]","14","0","","","","","","3","","","","","","","","",""
"","","","","","single-stim-button","221","427099","0.0-2.0-53.2-0.2","63e55887d67a5c7e32a678fa","A3","batch1","","878","tol_tohand","","","","tol_peg_2","878","878","0","[[0,0,0],[3,0],[1]]","3","[[2,0,0],[3,0],[1]]","14","0","","","","","","3","","","","","","","","",""
"","","","","","single-stim-button","222","428128","0.0-2.0-53.2-1.2","63e55887d67a5c7e32a678fa","A3","batch1","","1027","tol_toboard","","","","tol_peg_1","1027","1027","0","[[2,0,0],[3,0],[1]]","3","[[2,0,0],[3,0],[1]]","14","0","","","","","","3","","","","","","","","",""
"","","","","","poldrack-single-stim","223","429144","0.0-2.0-54.0","63e55887d67a5c7e32a678fa","A3","batch1","","-1","tol_feedback","","","true","","1000","1000","500","","","","","","-1","none","true","4460","6303","","","","","","","","","",""
"","","","","","html-button-response","224","430482","0.0-2.0-55.0","63e55887d67a5c7e32a678fa","A3","batch1","","1335.8000001907349","tol_trial_num","<div class = centerbox><p class = center-block-text>problem <strong>16</strong> out of 25 problems</p></div>","0","","","","","","","","","","","","","","","","","","","","","","","","",""
"","","","","","single-stim-button","225","436146","0.0-2.0-56.0-0.0","63e55887d67a5c7e32a678fa","A3","batch1","","5662","tol_tohand","","","","tol_peg_2","5662","5662","0","[[0,0,0],[2,0],[1]]","1","[[2,3,0],[1,0],[0]]","15","0","","","","","","7","","","","","","","","",""
"","","","","","single-stim-button","226","437150","0.0-2.0-56.0-1.0","63e55887d67a5c7e32a678fa","A3","batch1","","1002","tol_toboard","","","","tol_peg_1","1002","1002","0","[[3,0,0],[2,0],[1]]","1","[[2,3,0],[1,0],[0]]","15","0","","","","","","7","","","","","","","","",""
"","","","","","single-stim-button","227","437882","0.0-2.0-56.1-0.1","63e55887d67a5c7e32a678fa","A3","batch1","","730","tol_tohand","","","","tol_peg_2","730","730","0","[[3,0,0],[0,0],[1]]","2","[[2,3,0],[1,0],[0]]","15","0","","","","","","7","","","","","","","","",""
"","","","","","single-stim-button","228","438625","0.0-2.0-56.1-1.1","63e55887d67a5c7e32a678fa","A3","batch1","","741","tol_toboard","","","","tol_peg_1","741","741","0","[[3,2,0],[0,0],[1]]","2","[[2,3,0],[1,0],[0]]","15","0","","","","","","7","","","","","","","","",""
"","","","","","single-stim-button","229","439964","0.0-2.0-56.2-0.2","63e55887d67a5c7e32a678fa","A3","batch1","","1337","tol_tohand","","","","tol_peg_3","1337","1337","0","[[3,2,0],[0,0],[0]]","3","[[2,3,0],[1,0],[0]]","15","0","","","","","","7","","","","","","","","",""
"","","","","","single-stim-button","230","440981","0.0-2.0-56.2-1.2","63e55887d67a5c7e32a678fa","A3","batch1","","1015","tol_toboard","","","","tol_peg_2","1015","1015","0","[[3,2,0],[1,0],[0]]","3","[[2,3,0],[1,0],[0]]","15","0","","","","","","7","","","","","","","","",""
"","","","","","single-stim-button","231","441761","0.0-2.0-56.3-0.3","63e55887d67a5c7e32a678fa","A3","batch1","","778","tol_tohand","","","","tol_peg_1","778","778","0","[[3,0,0],[1,0],[0]]","4","[[2,3,0],[1,0],[0]]","15","0","","","","","","7","","","","","","","","",""
"","","","","","single-stim-button","232","442728","0.0-2.0-56.3-1.3","63e55887d67a5c7e32a678fa","A3","batch1","","965","tol_toboard","","","","tol_peg_2","965","965","0","[[3,0,0],[1,2],[0]]","4","[[2,3,0],[1,0],[0]]","15","0","","","","","","7","","","","","","","","",""
"","","","","","single-stim-button","233","443348","0.0-2.0-56.4-0.4","63e55887d67a5c7e32a678fa","A3","batch1","","618","tol_tohand","","","","tol_peg_1","618","618","0","[[0,0,0],[1,2],[0]]","5","[[2,3,0],[1,0],[0]]","15","0","","","","","","7","","","","","","","","",""
"","","","","","single-stim-button","234","444425","0.0-2.0-56.4-1.4","63e55887d67a5c7e32a678fa","A3","batch1","","1075","tol_toboard","","","","tol_peg_3","1075","1075","0","[[0,0,0],[1,2],[3]]","5","[[2,3,0],[1,0],[0]]","15","0","","","","","","7","","","","","","","","",""
"","","","","","single-stim-button","235","445206","0.0-2.0-56.5-0.5","63e55887d67a5c7e32a678fa","A3","batch1","","780","tol_tohand","","","","tol_peg_2","780","780","0","[[0,0,0],[1,0],[3]]","6","[[2,3,0],[1,0],[0]]","15","0","","","","","","7","","","","","","","","",""
"","","","","","single-stim-button","236","446211","0.0-2.0-56.5-1.5","63e55887d67a5c7e32a678fa","A3","batch1","","1003","tol_toboard","","","","tol_peg_1","1003","1003","0","[[2,0,0],[1,0],[3]]","6","[[2,3,0],[1,0],[0]]","15","0","","","","","","7","","","","","","","","",""
"","","","","","single-stim-button","237","446892","0.0-2.0-56.6-0.6","63e55887d67a5c7e32a678fa","A3","batch1","","679","tol_tohand","","","","tol_peg_3","679","679","0","[[2,0,0],[1,0],[0]]","7","[[2,3,0],[1,0],[0]]","15","0","","","","","","7","","","","","","","","",""
"","","","","","single-stim-button","238","447835","0.0-2.0-56.6-1.6","63e55887d67a5c7e32a678fa","A3","batch1","","941","tol_toboard","","","","tol_peg_1","941","941","0","[[2,3,0],[1,0],[0]]","7","[[2,3,0],[1,0],[0]]","15","0","","","","","","7","","","","","","","","",""
"","","","","","poldrack-single-stim","239","448844","0.0-2.0-57.0","63e55887d67a5c7e32a678fa","A3","batch1","","-1","tol_feedback","","","true","","1000","1000","500","","","","","","-1","none","true","5662","10584","","","","","","","","","",""
"","","","","","html-button-response","240","450289","0.0-2.0-58.0","63e55887d67a5c7e32a678fa","A3","batch1","","1443.4000005722046","tol_trial_num","<div class = centerbox><p class = center-block-text>problem <strong>17</strong> out of 25 problems</p></div>","0","","","","","","","","","","","","","","","","","","","","","","","","",""
"","","","","","single-stim-button","241","452817","0.0-2.0-59.0-0.0","63e55887d67a5c7e32a678fa","A3","batch1","","2526","tol_tohand","","","","tol_peg_1","2526","2526","0","[[1,0,0],[3,0],[0]]","1","[[3,1,0],[2,0],[0]]","16","0","","","","","","5","","","","","","","","",""
"","","","","","single-stim-button","242","453896","0.0-2.0-59.0-1.0","63e55887d67a5c7e32a678fa","A3","batch1","","1077","tol_toboard","","","","tol_peg_1","1077","1077","0","[[1,2,0],[3,0],[0]]","1","[[3,1,0],[2,0],[0]]","16","0","","","","","","5","","","","","","","","",""
"","","","","","single-stim-button","243","454589","0.0-2.0-59.1-0.1","63e55887d67a5c7e32a678fa","A3","batch1","","691","tol_tohand","","","","tol_peg_2","691","691","0","[[1,2,0],[0,0],[0]]","2","[[3,1,0],[2,0],[0]]","16","0","","","","","","5","","","","","","","","",""
"","","","","","single-stim-button","244","455259","0.0-2.0-59.1-1.1","63e55887d67a5c7e32a678fa","A3","batch1","","668","tol_toboard","","","","tol_peg_3","668","668","0","[[1,2,0],[0,0],[3]]","2","[[3,1,0],[2,0],[0]]","16","0","","","","","","5","","","","","","","","",""
"","","","","","single-stim-button","245","457019","0.0-2.0-59.2-0.2","63e55887d67a5c7e32a678fa","A3","batch1","","1758","tol_tohand","","","","tol_peg_1","1758","1758","0","[[1,0,0],[0,0],[3]]","3","[[3,1,0],[2,0],[0]]","16","0","","","","","","5","","","","","","","","",""
"","","","","","single-stim-button","246","457850","0.0-2.0-59.2-1.2","63e55887d67a5c7e32a678fa","A3","batch1","","829","tol_toboard","","","","tol_peg_2","829","829","0","[[1,0,0],[2,0],[3]]","3","[[3,1,0],[2,0],[0]]","16","0","","","","","","5","","","","","","","","",""
"","","","","","single-stim-button","247","458456","0.0-2.0-59.3-0.3","63e55887d67a5c7e32a678fa","A3","batch1","","604","tol_tohand","","","","tol_peg_1","604","604","0","[[0,0,0],[2,0],[3]]","4","[[3,1,0],[2,0],[0]]","16","0","","","","","","5","","","","","","","","",""
"","","","","","single-stim-button","248","459138","0.0-2.0-59.3-1.3","63e55887d67a5c7e32a678fa","A3","batch1","","680","tol_toboard","","","","tol_peg_2","680","680","0","[[0,0,0],[2,1],[3]]","4","[[3,1,0],[2,0],[0]]","16","0","","","","","","5","","","","","","","","",""
"","","","","","single-stim-button","249","459771","0.0-2.0-59.4-0.4","63e55887d67a5c7e32a678fa","A3","batch1","","631","tol_tohand","","","","tol_peg_3","631","631","0","[[0,0,0],[2,1],[0]]","5","[[3,1,0],[2,0],[0]]","16","0","","","","","","5","","","","","","","","",""
"","","","","","single-stim-button","250","460737","0.0-2.0-59.4-1.4","63e55887d67a5c7e32a678fa","A3","batch1","","965","tol_toboard","","","","tol_peg_1","965","965","0","[[3,0,0],[2,1],[0]]","5","[[3,1,0],[2,0],[0]]","16","0","","","","","","5","","","","","","","","",""
"","","","","","single-stim-button","251","461505","0.0-2.0-59.5-0.5","63e55887d67a5c7e32a678fa","A3","batch1","","766","tol_tohand","","","","tol_peg_2","766","766","0","[[3,0,0],[2,0],[0]]","6","[[3,1,0],[2,0],[0]]","16","0","","","","","","5","","","","","","","","",""
"","","","","","single-stim-button","252","462585","0.0-2.0-59.5-1.5","63e55887d67a5c7e32a678fa","A3","batch1","","1078","tol_toboard","","","","tol_peg_1","1078","1078","0","[[3,1,0],[2,0],[0]]","6","[[3,1,0],[2,0],[0]]","16","0","","","","","","5","","","","","","","","",""
"","","","","","poldrack-single-stim","253","463603","0.0-2.0-60.0","63e55887d67a5c7e32a678fa","A3","batch1","","-1","tol_feedback","","","true","","1000","1000","500","","","","","","-1","none","true","2526","6976","","","","","","","","","",""
"","","","","","html-button-response","254","464976","0.0-2.0-61.0","63e55887d67a5c7e32a678fa","A3","batch1","","1371.1999998092651","tol_trial_num","<div class = centerbox><p class = center-block-text>problem <strong>18</strong> out of 25 problems</p></div>","0","","","","","","","","","","","","","","","","","","","","","","","","",""
"","","","","","single-stim-button","255","467691","0.0-2.0-62.0-0.0","63e55887d67a5c7e32a678fa","A3","batch1","","2712","tol_tohand","","","","tol_peg_1","2712","2712","0","[[1,0,0],[3,0],[0]]","1","[[3,0,0],[2,0],[1]]","17","0","","","","","","5","","","","","","","","",""
"","","","","","single-stim-button","256","469142","0.0-2.0-62.0-1.0","63e55887d67a5c7e32a678fa","A3","batch1","","1450","tol_toboard","","","","tol_peg_3","1450","1450","0","[[1,0,0],[3,0],[2]]","1","[[3,0,0],[2,0],[1]]","17","0","","","","","","5","","","","","","","","",""
"","","","","","single-stim-button","257","474222","0.0-2.0-62.1-0.1","63e55887d67a5c7e32a678fa","A3","batch1","","5078","tol_tohand","","","","tol_peg_3","5078","5078","0","[[1,0,0],[3,0],[0]]","2","[[3,0,0],[2,0],[1]]","17","0","","","","","","5","","","","","","","","",""
"","","","","","single-stim-button","258","475201","0.0-2.0-62.1-1.1","63e55887d67a5c7e32a678fa","A3","batch1","","978","tol_toboard","","","","tol_peg_1","978","978","0","[[1,2,0],[3,0],[0]]","2","[[3,0,0],[2,0],[1]]","17","0","","","","","","5","","","","","","","","",""
"","","","","","single-stim-button","259","475834","0.0-2.0-62.2-0.2","63e55887d67a5c7e32a678fa","A3","batch1","","632","tol_tohand","","","","tol_peg_2","632","632","0","[[1,2,0],[0,0],[0]]","3","[[3,0,0],[2,0],[1]]","17","0","","","","","","5","","","","","","","","",""
"","","","","","single-stim-button","260","476739","0.0-2.0-62.2-1.2","63e55887d67a5c7e32a678fa","A3","batch1","","903","tol_toboard","","","","tol_peg_3","903","903","0","[[1,2,0],[0,0],[3]]","3","[[3,0,0],[2,0],[1]]","17","0","","","","","","5","","","","","","","","",""
"","","","","","single-stim-button","261","477619","0.0-2.0-62.3-0.3","63e55887d67a5c7e32a678fa","A3","batch1","","878","tol_tohand","","","","tol_peg_1","878","878","0","[[1,0,0],[0,0],[3]]","4","[[3,0,0],[2,0],[1]]","17","0","","","","","","5","","","","","","","","",""
"","","","","","single-stim-button","262","478473","0.0-2.0-62.3-1.3","63e55887d67a5c7e32a678fa","A3","batch1","","853","tol_toboard","","","","tol_peg_2","853","853","0","[[1,0,0],[2,0],[3]]","4","[[3,0,0],[2,0],[1]]","17","0","","","","","","5","","","","","","","","",""
"","","","","","single-stim-button","263","479155","0.0-2.0-62.4-0.4","63e55887d67a5c7e32a678fa","A3","batch1","","680","tol_tohand","","","","tol_peg_1","680","680","0","[[0,0,0],[2,0],[3]]","5","[[3,0,0],[2,0],[1]]","17","0","","","","","","5","","","","","","","","",""
"","","","","","single-stim-button","264","479998","0.0-2.0-62.4-1.4","63e55887d67a5c7e32a678fa","A3","batch1","","841","tol_toboard","","","","tol_peg_2","841","841","0","[[0,0,0],[2,1],[3]]","5","[[3,0,0],[2,0],[1]]","17","0","","","","","","5","","","","","","","","",""
"","","","","","single-stim-button","265","480631","0.0-2.0-62.5-0.5","63e55887d67a5c7e32a678fa","A3","batch1","","631","tol_tohand","","","","tol_peg_3","631","631","0","[[0,0,0],[2,1],[0]]","6","[[3,0,0],[2,0],[1]]","17","0","","","","","","5","","","","","","","","",""
"","","","","","single-stim-button","266","481671","0.0-2.0-62.5-1.5","63e55887d67a5c7e32a678fa","A3","batch1","","1038","tol_toboard","","","","tol_peg_1","1038","1038","0","[[3,0,0],[2,1],[0]]","6","[[3,0,0],[2,0],[1]]","17","0","","","","","","5","","","","","","","","",""
"","","","","","single-stim-button","267","482304","0.0-2.0-62.6-0.6","63e55887d67a5c7e32a678fa","A3","batch1","","631","tol_tohand","","","","tol_peg_2","631","631","0","[[3,0,0],[2,0],[0]]","7","[[3,0,0],[2,0],[1]]","17","0","","","","","","5","","","","","","","","",""
"","","","","","single-stim-button","268","483234","0.0-2.0-62.6-1.6","63e55887d67a5c7e32a678fa","A3","batch1","","928","tol_toboard","","","","tol_peg_3","928","928","0","[[3,0,0],[2,0],[1]]","7","[[3,0,0],[2,0],[1]]","17","0","","","","","","5","","","","","","","","",""
"","","","","","poldrack-single-stim","269","484240","0.0-2.0-63.0","63e55887d67a5c7e32a678fa","A3","batch1","","-1","tol_feedback","","","true","","1000","1000","500","","","","","","-1","none","true","2712","11242","","","","","","","","","",""
"","","","","","html-button-response","270","485489","0.0-2.0-64.0","63e55887d67a5c7e32a678fa","A3","batch1","","1247.5","tol_trial_num","<div class = centerbox><p class = center-block-text>problem <strong>19</strong> out of 25 problems</p></div>","0","","","","","","","","","","","","","","","","","","","","","","","","",""
"","","","","","single-stim-button","271","487720","0.0-2.0-65.0-0.0","63e55887d67a5c7e32a678fa","A3","batch1","","2229","tol_tohand","","","","tol_peg_2","2229","2229","0","[[1,2,0],[0,0],[0]]","1","[[0,0,0],[1,2],[3]]","18","0","","","","","","7","","","","","","","","",""
"","","","","","single-stim-button","272","488998","0.0-2.0-65.0-1.0","63e55887d67a5c7e32a678fa","A3","batch1","","1276","tol_toboard","","","","tol_peg_3","1276","1276","0","[[1,2,0],[0,0],[3]]","1","[[0,0,0],[1,2],[3]]","18","0","","","","","","7","","","","","","","","",""
"","","","","","single-stim-button","273","494178","0.0-2.0-65.1-0.1","63e55887d67a5c7e32a678fa","A3","batch1","","5178","tol_tohand","","","","tol_peg_3","5178","5178","0","[[1,2,0],[0,0],[0]]","2","[[0,0,0],[1,2],[3]]","18","0","","","","","","7","","","","","","","","",""
"","","","","","single-stim-button","274","494836","0.0-2.0-65.1-1.1","63e55887d67a5c7e32a678fa","A3","batch1","","656","tol_toboard","","","","tol_peg_2","656","656","0","[[1,2,0],[3,0],[0]]","2","[[0,0,0],[1,2],[3]]","18","0","","","","","","7","","","","","","","","",""
"","","","","","single-stim-button","275","496991","0.0-2.0-65.2-0.2","63e55887d67a5c7e32a678fa","A3","batch1","","2153","tol_tohand","","","","tol_peg_1","2153","2153","0","[[1,0,0],[3,0],[0]]","3","[[0,0,0],[1,2],[3]]","18","0","","","","","","7","","","","","","","","",""
"","","","","","single-stim-button","276","498678","0.0-2.0-65.2-1.2","63e55887d67a5c7e32a678fa","A3","batch1","","1685","tol_toboard","","","","tol_peg_2","1685","1685","0","[[1,0,0],[3,2],[0]]","3","[[0,0,0],[1,2],[3]]","18","0","","","","","","7","","","","","","","","",""
"","","","","","single-stim-button","277","499458","0.0-2.0-65.3-0.3","63e55887d67a5c7e32a678fa","A3","batch1","","778","tol_tohand","","","","tol_peg_1","778","778","0","[[0,0,0],[3,2],[0]]","4","[[0,0,0],[1,2],[3]]","18","0","","","","","","7","","","","","","","","",""
"","","","","","single-stim-button","278","500388","0.0-2.0-65.3-1.3","63e55887d67a5c7e32a678fa","A3","batch1","","928","tol_toboard","","","","tol_peg_3","928","928","0","[[0,0,0],[3,2],[1]]","4","[[0,0,0],[1,2],[3]]","18","0","","","","","","7","","","","","","","","",""
"","","","","","single-stim-button","279","500970","0.0-2.0-65.4-0.4","63e55887d67a5c7e32a678fa","A3","batch1","","580","tol_tohand","","","","tol_peg_2","580","580","0","[[0,0,0],[3,0],[1]]","5","[[0,0,0],[1,2],[3]]","18","0","","","","","","7","","","","","","","","",""
"","","","","","single-stim-button","280","501813","0.0-2.0-65.4-1.4","63e55887d67a5c7e32a678fa","A3","batch1","","841","tol_toboard","","","","tol_peg_1","841","841","0","[[2,0,0],[3,0],[1]]","5","[[0,0,0],[1,2],[3]]","18","0","","","","","","7","","","","","","","","",""
"","","","","","single-stim-button","281","502544","0.0-2.0-65.5-0.5","63e55887d67a5c7e32a678fa","A3","batch1","","729","tol_tohand","","","","tol_peg_2","729","729","0","[[2,0,0],[0,0],[1]]","6","[[0,0,0],[1,2],[3]]","18","0","","","","","","7","","","","","","","","",""
"","","","","","single-stim-button","282","503312","0.0-2.0-65.5-1.5","63e55887d67a5c7e32a678fa","A3","batch1","","766","tol_toboard","","","","tol_peg_1","766","766","0","[[2,3,0],[0,0],[1]]","6","[[0,0,0],[1,2],[3]]","18","0","","","","","","7","","","","","","","","",""
"","","","","","single-stim-button","283","504825","0.0-2.0-65.6-0.6","63e55887d67a5c7e32a678fa","A3","batch1","","1511","tol_tohand","","","","tol_peg_3","1511","1511","0","[[2,3,0],[0,0],[0]]","7","[[0,0,0],[1,2],[3]]","18","0","","","","","","7","","","","","","","","",""
"","","","","","single-stim-button","284","506027","0.0-2.0-65.6-1.6","63e55887d67a5c7e32a678fa","A3","batch1","","1201","tol_toboard","","","","tol_peg_2","1201","1201","0","[[2,3,0],[1,0],[0]]","7","[[0,0,0],[1,2],[3]]","18","0","","","","","","7","","","","","","","","",""
"","","","","","single-stim-button","285","506956","0.0-2.0-65.7-0.7","63e55887d67a5c7e32a678fa","A3","batch1","","927","tol_tohand","","","","tol_peg_1","927","927","0","[[2,0,0],[1,0],[0]]","8","[[0,0,0],[1,2],[3]]","18","0","","","","","","7","","","","","","","","",""
"","","","","","single-stim-button","286","507998","0.0-2.0-65.7-1.7","63e55887d67a5c7e32a678fa","A3","batch1","","1039","tol_toboard","","","","tol_peg_3","1039","1039","0","[[2,0,0],[1,0],[3]]","8","[[0,0,0],[1,2],[3]]","18","0","","","","","","7","","","","","","","","",""
"","","","","","single-stim-button","287","508791","0.0-2.0-65.8-0.8","63e55887d67a5c7e32a678fa","A3","batch1","","791","tol_tohand","","","","tol_peg_1","791","791","0","[[0,0,0],[1,0],[3]]","9","[[0,0,0],[1,2],[3]]","18","0","","","","","","7","","","","","","","","",""
"","","","","","single-stim-button","288","509584","0.0-2.0-65.8-1.8","63e55887d67a5c7e32a678fa","A3","batch1","","791","tol_toboard","","","","tol_peg_2","791","791","0","[[0,0,0],[1,2],[3]]","9","[[0,0,0],[1,2],[3]]","18","0","","","","","","7","","","","","","","","",""
"","","","","","poldrack-single-stim","289","510599","0.0-2.0-66.0","63e55887d67a5c7e32a678fa","A3","batch1","","-1","tol_feedback","","","true","","1000","1000","500","","","","","","-1","none","true","2229","14876","","","","","","","","","",""
"","","","","","html-button-response","290","514331","0.0-2.0-67.0","63e55887d67a5c7e32a678fa","A3","batch1","","3730","tol_trial_num","<div class = centerbox><p class = center-block-text>problem <strong>20</strong> out of 25 problems</p></div>","0","","","","","","","","","","","","","","","","","","","","","","","","",""
"","","","","","single-stim-button","291","517553","0.0-2.0-68.0-0.0","63e55887d67a5c7e32a678fa","A3","batch1","","3219","tol_tohand","","","","tol_peg_1","3219","3219","0","[[1,0,0],[3,0],[0]]","1","[[2,1,0],[0,0],[3]]","19","0","","","","","","5","","","","","","","","",""
"","","","","","single-stim-button","292","519710","0.0-2.0-68.0-1.0","63e55887d67a5c7e32a678fa","A3","batch1","","2155","tol_toboard","","","","tol_peg_2","2155","2155","0","[[1,0,0],[3,2],[0]]","1","[[2,1,0],[0,0],[3]]","19","0","","","","","","5","","","","","","","","",""
"","","","","","single-stim-button","293","520515","0.0-2.0-68.1-0.1","63e55887d67a5c7e32a678fa","A3","batch1","","803","tol_tohand","","","","tol_peg_1","803","803","0","[[0,0,0],[3,2],[0]]","2","[[2,1,0],[0,0],[3]]","19","0","","","","","","5","","","","","","","","",""
"","","","","","single-stim-button","294","522660","0.0-2.0-68.1-1.1","63e55887d67a5c7e32a678fa","A3","batch1","","2143","tol_toboard","","","","tol_peg_3","2143","2143","0","[[0,0,0],[3,2],[1]]","2","[[2,1,0],[0,0],[3]]","19","0","","","","","","5","","","","","","","","",""
"","","","","","single-stim-button","295","523293","0.0-2.0-68.2-0.2","63e55887d67a5c7e32a678fa","A3","batch1","","631","tol_tohand","","","","tol_peg_2","631","631","0","[[0,0,0],[3,0],[1]]","3","[[2,1,0],[0,0],[3]]","19","0","","","","","","5","","","","","","","","",""
"","","","","","single-stim-button","296","524370","0.0-2.0-68.2-1.2","63e55887d67a5c7e32a678fa","A3","batch1","","1076","tol_toboard","","","","tol_peg_1","1076","1076","0","[[2,0,0],[3,0],[1]]","3","[[2,1,0],[0,0],[3]]","19","0","","","","","","5","","","","","","","","",""
"","","","","","single-stim-button","297","525547","0.0-2.0-68.3-0.3","63e55887d67a5c7e32a678fa","A3","batch1","","1175","tol_tohand","","","","tol_peg_3","1175","1175","0","[[2,0,0],[3,0],[0]]","4","[[2,1,0],[0,0],[3]]","19","0","","","","","","5","","","","","","","","",""
"","","","","","single-stim-button","298","526465","0.0-2.0-68.3-1.3","63e55887d67a5c7e32a678fa","A3","batch1","","916","tol_toboard","","","","tol_peg_1","916","916","0","[[2,1,0],[3,0],[0]]","4","[[2,1,0],[0,0],[3]]","19","0","","","","","","5","","","","","","","","",""
"","","","","","single-stim-button","299","527444","0.0-2.0-68.4-0.4","63e55887d67a5c7e32a678fa","A3","batch1","","977","tol_tohand","","","","tol_peg_2","977","977","0","[[2,1,0],[0,0],[0]]","5","[[2,1,0],[0,0],[3]]","19","0","","","","","","5","","","","","","","","",""
"","","","","","single-stim-button","300","528386","0.0-2.0-68.4-1.4","63e55887d67a5c7e32a678fa","A3","batch1","","941","tol_toboard","","","","tol_peg_3","941","941","0","[[2,1,0],[0,0],[3]]","5","[[2,1,0],[0,0],[3]]","19","0","","","","","","5","","","","","","","","",""
"","","","","","poldrack-single-stim","301","529403","0.0-2.0-69.0","63e55887d67a5c7e32a678fa","A3","batch1","","-1","tol_feedback","","","true","","1000","1000","500","","","","","","-1","none","true","3219","6805","","","","","","","","","",""
"","","","","","html-button-response","302","530742","0.0-2.0-70.0","63e55887d67a5c7e32a678fa","A3","batch1","","1336.9000005722046","tol_trial_num","<div class = centerbox><p class = center-block-text>problem <strong>21</strong> out of 25 problems</p></div>","0","","","","","","","","","","","","","","","","","","","","","","","","",""
"","","","","","single-stim-button","303","533294","0.0-2.0-71.0-0.0","63e55887d67a5c7e32a678fa","A3","batch1","","2550","tol_tohand","","","","tol_peg_1","2550","2550","0","[[1,0,0],[3,0],[0]]","1","[[3,2,0],[0,0],[1]]","20","0","","","","","","6","","","","","","","","",""
"","","","","","single-stim-button","304","535501","0.0-2.0-71.0-1.0","63e55887d67a5c7e32a678fa","A3","batch1","","2205","tol_toboard","","","","tol_peg_3","2205","2205","0","[[1,0,0],[3,0],[2]]","1","[[3,2,0],[0,0],[1]]","20","0","","","","","","6","","","","","","","","",""
"","","","","","single-stim-button","305","537818","0.0-2.0-71.1-0.1","63e55887d67a5c7e32a678fa","A3","batch1","","2316","tol_tohand","","","","tol_peg_3","2316","2316","0","[[1,0,0],[3,0],[0]]","2","[[3,2,0],[0,0],[1]]","20","0","","","","","","6","","","","","","","","",""
"","","","","","single-stim-button","306","538821","0.0-2.0-71.1-1.1","63e55887d67a5c7e32a678fa","A3","batch1","","1002","tol_toboard","","","","tol_peg_1","1002","1002","0","[[1,2,0],[3,0],[0]]","2","[[3,2,0],[0,0],[1]]","20","0","","","","","","6","","","","","","","","",""
"","","","","","single-stim-button","307","539428","0.0-2.0-71.2-0.2","63e55887d67a5c7e32a678fa","A3","batch1","","606","tol_tohand","","","","tol_peg_2","606","606","0","[[1,2,0],[0,0],[0]]","3","[[3,2,0],[0,0],[1]]","20","0","","","","","","6","","","","","","","","",""
"","","","","","single-stim-button","308","540384","0.0-2.0-71.2-1.2","63e55887d67a5c7e32a678fa","A3","batch1","","954","tol_toboard","","","","tol_peg_3","954","954","0","[[1,2,0],[0,0],[3]]","3","[[3,2,0],[0,0],[1]]","20","0","","","","","","6","","","","","","","","",""
"","","","","","single-stim-button","309","542453","0.0-2.0-71.3-0.3","63e55887d67a5c7e32a678fa","A3","batch1","","2067","tol_tohand","","","","tol_peg_1","2067","2067","0","[[1,0,0],[0,0],[3]]","4","[[3,2,0],[0,0],[1]]","20","0","","","","","","6","","","","","","","","",""
"","","","","","single-stim-button","310","543419","0.0-2.0-71.3-1.3","63e55887d67a5c7e32a678fa","A3","batch1","","965","tol_toboard","","","","tol_peg_2","965","965","0","[[1,0,0],[2,0],[3]]","4","[[3,2,0],[0,0],[1]]","20","0","","","","","","6","","","","","","","","",""
"","","","","","single-stim-button","311","544225","0.0-2.0-71.4-0.4","63e55887d67a5c7e32a678fa","A3","batch1","","804","tol_tohand","","","","tol_peg_1","804","804","0","[[0,0,0],[2,0],[3]]","5","[[3,2,0],[0,0],[1]]","20","0","","","","","","6","","","","","","","","",""
"","","","","","single-stim-button","312","545242","0.0-2.0-71.4-1.4","63e55887d67a5c7e32a678fa","A3","batch1","","1016","tol_toboard","","","","tol_peg_2","1016","1016","0","[[0,0,0],[2,1],[3]]","5","[[3,2,0],[0,0],[1]]","20","0","","","","","","6","","","","","","","","",""
"","","","","","single-stim-button","313","545986","0.0-2.0-71.5-0.5","63e55887d67a5c7e32a678fa","A3","batch1","","742","tol_tohand","","","","tol_peg_3","742","742","0","[[0,0,0],[2,1],[0]]","6","[[3,2,0],[0,0],[1]]","20","0","","","","","","6","","","","","","","","",""
"","","","","","single-stim-button","314","547187","0.0-2.0-71.5-1.5","63e55887d67a5c7e32a678fa","A3","batch1","","1200","tol_toboard","","","","tol_peg_1","1200","1200","0","[[3,0,0],[2,1],[0]]","6","[[3,2,0],[0,0],[1]]","20","0","","","","","","6","","","","","","","","",""
"","","","","","single-stim-button","315","547993","0.0-2.0-71.6-0.6","63e55887d67a5c7e32a678fa","A3","batch1","","804","tol_tohand","","","","tol_peg_2","804","804","0","[[3,0,0],[2,0],[0]]","7","[[3,2,0],[0,0],[1]]","20","0","","","","","","6","","","","","","","","",""
"","","","","","single-stim-button","316","549233","0.0-2.0-71.6-1.6","63e55887d67a5c7e32a678fa","A3","batch1","","1238","tol_toboard","","","","tol_peg_3","1238","1238","0","[[3,0,0],[2,0],[1]]","7","[[3,2,0],[0,0],[1]]","20","0","","","","","","6","","","","","","","","",""
"","","","","","single-stim-button","317","550484","0.0-2.0-71.7-0.7","63e55887d67a5c7e32a678fa","A3","batch1","","1249","tol_tohand","","","","tol_peg_2","1249","1249","0","[[3,0,0],[0,0],[1]]","8","[[3,2,0],[0,0],[1]]","20","0","","","","","","6","","","","","","","","",""
"","","","","","single-stim-button","318","551923","0.0-2.0-71.7-1.7","63e55887d67a5c7e32a678fa","A3","batch1","","1437","tol_toboard","","","","tol_peg_1","1437","1437","0","[[3,2,0],[0,0],[1]]","8","[[3,2,0],[0,0],[1]]","20","0","","","","","","6","","","","","","","","",""
"","","","","","poldrack-single-stim","319","552940","0.0-2.0-72.0","63e55887d67a5c7e32a678fa","A3","batch1","","-1","tol_feedback","","","true","","1000","1000","500","","","","","","-1","none","true","2550","11138","","","","","","","","","",""
"","","","","","html-button-response","320","554315","0.0-2.0-73.0","63e55887d67a5c7e32a678fa","A3","batch1","","1372.5999994277954","tol_trial_num","<div class = centerbox><p class = center-block-text>problem <strong>22</strong> out of 25 problems</p></div>","0","","","","","","","","","","","","","","","","","","","","","","","","",""
"","","","","","single-stim-button","321","556892","0.0-2.0-74.0-0.0","63e55887d67a5c7e32a678fa","A3","batch1","","2576","tol_tohand","","","","tol_peg_2","2576","2576","0","[[1,0,0],[2,0],[0]]","1","[[0,0,0],[1,2],[3]]","21","0","","","","","","6","","","","","","","","",""
"","","","","","single-stim-button","322","560623","0.0-2.0-74.0-1.0","63e55887d67a5c7e32a678fa","A3","batch1","","3729","tol_toboard","","","","tol_peg_2","3729","3729","0","[[1,0,0],[2,3],[0]]","1","[[0,0,0],[1,2],[3]]","21","0","","","","","","6","","","","","","","","",""
"","","","","","single-stim-button","323","563201","0.0-2.0-74.1-0.1","63e55887d67a5c7e32a678fa","A3","batch1","","2576","tol_tohand","","","","tol_peg_1","2576","2576","0","[[0,0,0],[2,3],[0]]","2","[[0,0,0],[1,2],[3]]","21","0","","","","","","6","","","","","","","","",""
"","","","","","single-stim-button","324","565110","0.0-2.0-74.1-1.1","63e55887d67a5c7e32a678fa","A3","batch1","","1907","tol_toboard","","","","tol_peg_3","1907","1907","0","[[0,0,0],[2,3],[1]]","2","[[0,0,0],[1,2],[3]]","21","0","","","","","","6","","","","","","","","",""
"","","","","","single-stim-button","325","565780","0.0-2.0-74.2-0.2","63e55887d67a5c7e32a678fa","A3","batch1","","668","tol_tohand","","","","tol_peg_2","668","668","0","[[0,0,0],[2,0],[1]]","3","[[0,0,0],[1,2],[3]]","21","0","","","","","","6","","","","","","","","",""
"","","","","","single-stim-button","326","566919","0.0-2.0-74.2-1.2","63e55887d67a5c7e32a678fa","A3","batch1","","1137","tol_toboard","","","","tol_peg_1","1137","1137","0","[[3,0,0],[2,0],[1]]","3","[[0,0,0],[1,2],[3]]","21","0","","","","","","6","","","","","","","","",""
"","","","","","single-stim-button","327","567726","0.0-2.0-74.3-0.3","63e55887d67a5c7e32a678fa","A3","batch1","","803","tol_tohand","","","","tol_peg_2","803","803","0","[[3,0,0],[0,0],[1]]","4","[[0,0,0],[1,2],[3]]","21","0","","","","","","6","","","","","","","","",""
"","","","","","single-stim-button","328","569857","0.0-2.0-74.3-1.3","63e55887d67a5c7e32a678fa","A3","batch1","","2130","tol_toboard","","","","tol_peg_1","2130","2130","0","[[3,2,0],[0,0],[1]]","4","[[0,0,0],[1,2],[3]]","21","0","","","","","","6","","","","","","","","",""
"","","","","","single-stim-button","329","570824","0.0-2.0-74.4-0.4","63e55887d67a5c7e32a678fa","A3","batch1","","965","tol_tohand","","","","tol_peg_3","965","965","0","[[3,2,0],[0,0],[0]]","5","[[0,0,0],[1,2],[3]]","21","0","","","","","","6","","","","","","","","",""
"","","","","","single-stim-button","330","572460","0.0-2.0-74.4-1.4","63e55887d67a5c7e32a678fa","A3","batch1","","1634","tol_toboard","","","","tol_peg_2","1634","1634","0","[[3,2,0],[1,0],[0]]","5","[[0,0,0],[1,2],[3]]","21","0","","","","","","6","","","","","","","","",""
"","","","","","single-stim-button","331","573228","0.0-2.0-74.5-0.5","63e55887d67a5c7e32a678fa","A3","batch1","","766","tol_tohand","","","","tol_peg_1","766","766","0","[[3,0,0],[1,0],[0]]","6","[[0,0,0],[1,2],[3]]","21","0","","","","","","6","","","","","","","","",""
"","","","","","single-stim-button","332","574332","0.0-2.0-74.5-1.5","63e55887d67a5c7e32a678fa","A3","batch1","","1102","tol_toboard","","","","tol_peg_2","1102","1102","0","[[3,0,0],[1,2],[0]]","6","[[0,0,0],[1,2],[3]]","21","0","","","","","","6","","","","","","","","",""
"","","","","","single-stim-button","333","574976","0.0-2.0-74.6-0.6","63e55887d67a5c7e32a678fa","A3","batch1","","642","tol_tohand","","","","tol_peg_1","642","642","0","[[0,0,0],[1,2],[0]]","7","[[0,0,0],[1,2],[3]]","21","0","","","","","","6","","","","","","","","",""
"","","","","","single-stim-button","334","575881","0.0-2.0-74.6-1.6","63e55887d67a5c7e32a678fa","A3","batch1","","903","tol_toboard","","","","tol_peg_3","903","903","0","[[0,0,0],[1,2],[3]]","7","[[0,0,0],[1,2],[3]]","21","0","","","","","","6","","","","","","","","",""
"","","","","","poldrack-single-stim","335","576891","0.0-2.0-75.0","63e55887d67a5c7e32a678fa","A3","batch1","","-1","tol_feedback","","","true","","1000","1000","500","","","","","","-1","none","true","2576","8996","","","","","","","","","",""
"","","","","","html-button-response","336","578199","0.0-2.0-76.0","63e55887d67a5c7e32a678fa","A3","batch1","","1305.5999994277954","tol_trial_num","<div class = centerbox><p class = center-block-text>problem <strong>23</strong> out of 25 problems</p></div>","0","","","","","","","","","","","","","","","","","","","","","","","","",""
"","","","","","single-stim-button","337","582723","0.0-2.0-77.0-0.0","63e55887d67a5c7e32a678fa","A3","batch1","","4522","tol_tohand","","","","tol_peg_1","4522","4522","0","[[1,0,0],[3,0],[0]]","1","[[1,3,2],[0,0],[0]]","22","0","","","","","","3","","","","","","","","",""
"","","","","","single-stim-button","338","583863","0.0-2.0-77.0-1.0","63e55887d67a5c7e32a678fa","A3","batch1","","1138","tol_toboard","","","","tol_peg_3","1138","1138","0","[[1,0,0],[3,0],[2]]","1","[[1,3,2],[0,0],[0]]","22","0","","","","","","3","","","","","","","","",""
"","","","","","single-stim-button","339","584520","0.0-2.0-77.1-0.1","63e55887d67a5c7e32a678fa","A3","batch1","","655","tol_tohand","","","","tol_peg_2","655","655","0","[[1,0,0],[0,0],[2]]","2","[[1,3,2],[0,0],[0]]","22","0","","","","","","3","","","","","","","","",""
"","","","","","single-stim-button","340","585449","0.0-2.0-77.1-1.1","63e55887d67a5c7e32a678fa","A3","batch1","","927","tol_toboard","","","","tol_peg_1","927","927","0","[[1,3,0],[0,0],[2]]","2","[[1,3,2],[0,0],[0]]","22","0","","","","","","3","","","","","","","","",""
"","","","","","single-stim-button","341","586478","0.0-2.0-77.2-0.2","63e55887d67a5c7e32a678fa","A3","batch1","","1027","tol_tohand","","","","tol_peg_3","1027","1027","0","[[1,3,0],[0,0],[0]]","3","[[1,3,2],[0,0],[0]]","22","0","","","","","","3","","","","","","","","",""
"","","","","","single-stim-button","342","587420","0.0-2.0-77.2-1.2","63e55887d67a5c7e32a678fa","A3","batch1","","940","tol_toboard","","","","tol_peg_1","940","940","0","[[1,3,2],[0,0],[0]]","3","[[1,3,2],[0,0],[0]]","22","0","","","","","","3","","","","","","","","",""
"","","","","","poldrack-single-stim","343","588432","0.0-2.0-78.0","63e55887d67a5c7e32a678fa","A3","batch1","","-1","tol_feedback","","","true","","1000","1000","500","","","","","","-1","none","true","4522","6204","","","","","","","","","",""
"","","","","","html-button-response","344","589762","0.0-2.0-79.0","63e55887d67a5c7e32a678fa","A3","batch1","","1328.1000003814697","tol_trial_num","<div class = centerbox><p class = center-block-text>problem <strong>24</strong> out of 25 problems</p></div>","0","","","","","","","","","","","","","","","","","","","","","","","","",""
"","","","","","single-stim-button","345","593754","0.0-2.0-80.0-0.0","63e55887d67a5c7e32a678fa","A3","batch1","","3989","tol_tohand","","","","tol_peg_2","3989","3989","0","[[0,0,0],[2,0],[1]]","1","[[2,0,0],[3,0],[1]]","23","0","","","","","","7","","","","","","","","",""
"","","","","","single-stim-button","346","595154","0.0-2.0-80.0-1.0","63e55887d67a5c7e32a678fa","A3","batch1","","1397","tol_toboard","","","","tol_peg_1","1397","1397","0","[[3,0,0],[2,0],[1]]","1","[[2,0,0],[3,0],[1]]","23","0","","","","","","7","","","","","","","","",""
"","","","","","single-stim-button","347","597521","0.0-2.0-80.1-0.1","63e55887d67a5c7e32a678fa","A3","batch1","","2366","tol_tohand","","","","tol_peg_3","2366","2366","0","[[3,0,0],[2,0],[0]]","2","[[2,0,0],[3,0],[1]]","23","0","","","","","","7","","","","","","","","",""
"","","","","","single-stim-button","348","598526","0.0-2.0-80.1-1.1","63e55887d67a5c7e32a678fa","A3","batch1","","1002","tol_toboard","","","","tol_peg_1","1002","1002","0","[[3,1,0],[2,0],[0]]","2","[[2,0,0],[3,0],[1]]","23","0","","","","","","7","","","","","","","","",""
"","","","","","single-stim-button","349","599145","0.0-2.0-80.2-0.2","63e55887d67a5c7e32a678fa","A3","batch1","","618","tol_tohand","","","","tol_peg_2","618","618","0","[[3,1,0],[0,0],[0]]","3","[[2,0,0],[3,0],[1]]","23","0","","","","","","7","","","","","","","","",""
"","","","","","single-stim-button","350","600161","0.0-2.0-80.2-1.2","63e55887d67a5c7e32a678fa","A3","batch1","","1015","tol_toboard","","","","tol_peg_3","1015","1015","0","[[3,1,0],[0,0],[2]]","3","[[2,0,0],[3,0],[1]]","23","0","","","","","","7","","","","","","","","",""
"","","","","","single-stim-button","351","603075","0.0-2.0-80.3-0.3","63e55887d67a5c7e32a678fa","A3","batch1","","2912","tol_tohand","","","","tol_peg_1","2912","2912","0","[[3,0,0],[0,0],[2]]","4","[[2,0,0],[3,0],[1]]","23","0","","","","","","7","","","","","","","","",""
"","","","","","single-stim-button","352","605107","0.0-2.0-80.3-1.3","63e55887d67a5c7e32a678fa","A3","batch1","","2032","tol_toboard","","","","tol_peg_2","2032","2032","0","[[3,0,0],[1,0],[2]]","4","[[2,0,0],[3,0],[1]]","23","0","","","","","","7","","","","","","","","",""
"","","","","","single-stim-button","353","606049","0.0-2.0-80.4-0.4","63e55887d67a5c7e32a678fa","A3","batch1","","940","tol_tohand","","","","tol_peg_1","940","940","0","[[0,0,0],[1,0],[2]]","5","[[2,0,0],[3,0],[1]]","23","0","","","","","","7","","","","","","","","",""
"","","","","","single-stim-button","354","607114","0.0-2.0-80.4-1.4","63e55887d67a5c7e32a678fa","A3","batch1","","1063","tol_toboard","","","","tol_peg_2","1063","1063","0","[[0,0,0],[1,3],[2]]","5","[[2,0,0],[3,0],[1]]","23","0","","","","","","7","","","","","","","","",""
"","","","","","single-stim-button","355","607809","0.0-2.0-80.5-0.5","63e55887d67a5c7e32a678fa","A3","batch1","","693","tol_tohand","","","","tol_peg_3","693","693","0","[[0,0,0],[1,3],[0]]","6","[[2,0,0],[3,0],[1]]","23","0","","","","","","7","","","","","","","","",""
