"success","timeout","failed_images","failed_audio","failed_video","trial_type","trial_index","time_elapsed","internal_node_id","subject_id","study_id","session_id","view_history","rt","stimulus","response","task","correct","answer","item","fiar_detect_rt","fiar_detect_correct","total_correct_fiar_detect","post_trial_gap","choices","spm_correct","spm_rt","mouse_click","stim_duration","block_duration","timing_post_trial","current_position","tol_num_moves_made","tol_target","tol_problem_id","tol_rt","key_press","possible_responses","tol_correct","preplanning","tol_rt_per_trial","tol_min_moves"
"true","false","[]","[]","[]","preload","0","1590","0.0-0.0","63e52a02b954da8b899fa1a7","F1","batch6","","","","","","","","","","","","","","","","","","","","","","","","","","","","","",""
"true","","","","","fullscreen","1","7660","0.0-1.0-0.0","63e52a02b954da8b899fa1a7","F1","batch6","","","","","","","","","","","","","","","","","","","","","","","","","","","","","",""
"true","","","","","fullscreen","2","16371","0.0-2.0-0.0","63e52a02b954da8b899fa1a7","F1","batch6","","","","","","","","","","","","","","","","","","","","","","","","","","","","","",""
"","","","","","instructions","3","29015","0.0-2.0-1.0-0.0","63e52a02b954da8b899fa1a7","F1","batch6","[{""page_index"":0,""viewing_time"":7781.5},{""page_index"":1,""viewing_time"":4860.29999999702}]","12642.40000000596","","","","","","","","","","","","","","","","","","","","","","","","","","","",""
"","","","","","html-button-response","4","30113","0.0-2.0-1.0-1.0-0.0","63e52a02b954da8b899fa1a7","F1","batch6","","1095.9000000059605","<p class=block-text> Let's answer a few questions <br>","0","pattern_enter_quiz","","","","","","","","","","","","","","","","","","","","","","","","",""
"","","","","","html-button-response","5","32891","0.0-2.0-1.0-1.0-1.0","63e52a02b954da8b899fa1a7","F1","batch6","","2776.4000000059605","<p class = block-text>True or False: You will have as much time as you want to make each choice. <br></p>","1","pattern_quiz","true","","","","","","","","","","","","","","","","","","","","","","","",""
"","","","","","html-button-response","6","33832","0.0-2.0-1.0-1.0-2.0","63e52a02b954da8b899fa1a7","F1","batch6","","939.5","<p class = block-text>Correct! You should make your choice <strong> as fast as you can</strong>.</p>","0","pattern_quiz_feedback","","","","","","","","","","","","","","","","","","","","","","","","",""
"","","","","","html-button-response","7","36931","0.0-2.0-1.0-1.0-3.0","63e52a02b954da8b899fa1a7","F1","batch6","","3097.3999999910593","<p class = block-text>True or False: You will look for 4 pieces in black or white color connected in a row either horizontally, vertically or diagonally. <br></p>","0","pattern_quiz","true","","","","","","","","","","","","","","","","","","","","","","","",""
"","","","","","html-button-response","8","37640","0.0-2.0-1.0-1.0-4.0","63e52a02b954da8b899fa1a7","F1","batch6","","707.1999999880791","<p class = block-text>Correct! </p>","0","pattern_quiz_feedback","","","","","","","","","","","","","","","","","","","","","","","","",""
"","","","","","html-button-response","9","38778","0.0-2.0-2.0","63e52a02b954da8b899fa1a7","F1","batch6","","1135.7999999970198","<p class=block-text> Now that you've understood the game, let's do a few practice trials before we start!<br> <br>","0","pattern_enter_practice","","","","","","","","","","","","","","","","","","","","","","","","",""
"","","","","","image-keyboard-response","10","40028","0.0-2.0-3.0-0.0","63e52a02b954da8b899fa1a7","F1","batch6","","1233.5","stim/prac_yes_18_hor_w1.png","f","pattern_practice","true","f","","","","","","","","","","","","","","","","","","","","","","",""
"","","","","","html-keyboard-response","11","41039","0.0-2.0-3.0-1.0","63e52a02b954da8b899fa1a7","F1","batch6","","null","<p style=""font-size:30px;color:green;"">Correct!</p>","null","pattern_feedback","","","","","","","","","","","","","","","","","","","","","","","","",""
"","","","","","image-keyboard-response","12","42203","0.0-2.0-3.0-0.1","63e52a02b954da8b899fa1a7","F1","batch6","","1162.3999999910593","stim/prac_yes_20_dia_b1.png","f","pattern_practice","true","f","","","","","","","","","","","","","","","","","","","","","","",""
"","","","","","html-keyboard-response","13","43217","0.0-2.0-3.0-1.1","63e52a02b954da8b899fa1a7","F1","batch6","","null","<p style=""font-size:30px;color:green;"">Correct!</p>","null","pattern_feedback","","","","","","","","","","","","","","","","","","","","","","","","",""
"","","","","","image-keyboard-response","14","44454","0.0-2.0-3.0-0.2","63e52a02b954da8b899fa1a7","F1","batch6","","1235.7999999970198","stim/prac_no_16_1.png","j","pattern_practice","true","j","","","","","","","","","","","","","","","","","","","","","","",""
"","","","","","html-keyboard-response","15","45466","0.0-2.0-3.0-1.2","63e52a02b954da8b899fa1a7","F1","batch6","","null","<p style=""font-size:30px;color:green;"">Correct!</p>","null","pattern_feedback","","","","","","","","","","","","","","","","","","","","","","","","",""
"","","","","","image-keyboard-response","16","46447","0.0-2.0-3.0-0.3","63e52a02b954da8b899fa1a7","F1","batch6","","979.7999999970198","stim/prac_no_18_1.png","j","pattern_practice","true","j","","","","","","","","","","","","","","","","","","","","","","",""
"","","","","","html-keyboard-response","17","47456","0.0-2.0-3.0-1.3","63e52a02b954da8b899fa1a7","F1","batch6","","null","<p style=""font-size:30px;color:green;"">Correct!</p>","null","pattern_feedback","","","","","","","","","","","","","","","","","","","","","","","","",""
"","","","","","image-keyboard-response","18","48201","0.0-2.0-3.0-0.4","63e52a02b954da8b899fa1a7","F1","batch6","","742.8999999910593","stim/prac_yes_16_ver_w1.png","f","pattern_practice","true","f","","","","","","","","","","","","","","","","","","","","","","",""
"","","","","","html-keyboard-response","19","49207","0.0-2.0-3.0-1.4","63e52a02b954da8b899fa1a7","F1","batch6","","null","<p style=""font-size:30px;color:green;"">Correct!</p>","null","pattern_feedback","","","","","","","","","","","","","","","","","","","","","","","","",""
"","","","","","html-button-response","20","55011","0.0-2.0-4.0","63e52a02b954da8b899fa1a7","F1","batch6","","5801.70000000298","<p class=block-text> Good job! You are done with practice trials!<br>
        You responded correctly on 100% of the trials.<br>
        Press the button below to start official trials. Now you won't see any feedback about your response</p>","0","pattern_enter_official_trials","","","","","","","","","","","","","","","","","","","","","","","","",""
"","","","","","html-keyboard-response","21","55818","0.0-2.0-5.0-0.0","63e52a02b954da8b899fa1a7","F1","batch6","","null","<p class=block-text>Trial 1 out of 78</p>","null","pattern_show_trial_num","","","","","","","","","","","","","","","","","","","","","","","","",""
"","","","","","image-keyboard-response","22","60865","0.0-2.0-5.0-1.0","63e52a02b954da8b899fa1a7","F1","batch6","","5045","stim/yes_58_dia_w1_w.png","j","pattern_response","false","f","pattern_76","5045","false","0","","","","","","","","","","","","","","","","","","",""
"","","","","","html-keyboard-response","23","62177","0.0-2.0-5.0-0.1","63e52a02b954da8b899fa1a7","F1","batch6","","null","<p class=block-text>Trial 2 out of 78</p>","null","pattern_show_trial_num","","","","","","","","","","","","","","","","","","","","","","","","",""
"","","","","","image-keyboard-response","24","63807","0.0-2.0-5.0-1.1","63e52a02b954da8b899fa1a7","F1","batch6","","1627.6000000089407","stim/no_28_2.png","j","pattern_response","true","j","pattern_11","1627.6000000089407","true","1","","","","","","","","","","","","","","","","","","",""
"","","","","","html-keyboard-response","25","65124","0.0-2.0-5.0-0.2","63e52a02b954da8b899fa1a7","F1","batch6","","null","<p class=block-text>Trial 3 out of 78</p>","null","pattern_show_trial_num","","","","","","","","","","","","","","","","","","","","","","","","",""
"","","","","","image-keyboard-response","26","67611","0.0-2.0-5.0-1.2","63e52a02b954da8b899fa1a7","F1","batch6","","2486","stim/no_15_1_w.png","j","pattern_response","true","j","pattern_03","2486","true","2","","","","","","","","","","","","","","","","","","",""
"","","","","","html-keyboard-response","27","68928","0.0-2.0-5.0-0.3","63e52a02b954da8b899fa1a7","F1","batch6","","null","<p class=block-text>Trial 4 out of 78</p>","null","pattern_show_trial_num","","","","","","","","","","","","","","","","","","","","","","","","",""
"","","","","","image-keyboard-response","28","69897","0.0-2.0-5.0-1.3","63e52a02b954da8b899fa1a7","F1","batch6","","967.2000000029802","stim/yes_23_ver_b1.png","f","pattern_response","true","f","pattern_48","967.2000000029802","true","3","","","","","","","","","","","","","","","","","","",""
"","","","","","html-keyboard-response","29","71208","0.0-2.0-5.0-0.4","63e52a02b954da8b899fa1a7","F1","batch6","","null","<p class=block-text>Trial 5 out of 78</p>","null","pattern_show_trial_num","","","","","","","","","","","","","","","","","","","","","","","","",""
"","","","","","image-keyboard-response","30","72059","0.0-2.0-5.0-1.4","63e52a02b954da8b899fa1a7","F1","batch6","","848.8999999910593","stim/yes_37_hor_w1_w.png","f","pattern_response","true","f","pattern_60","848.8999999910593","true","4","","","","","","","","","","","","","","","","","","",""
"","","","","","html-keyboard-response","31","73380","0.0-2.0-5.0-0.5","63e52a02b954da8b899fa1a7","F1","batch6","","null","<p class=block-text>Trial 6 out of 78</p>","null","pattern_show_trial_num","","","","","","","","","","","","","","","","","","","","","","","","",""
"","","","","","image-keyboard-response","32","75726","0.0-2.0-5.0-1.5","63e52a02b954da8b899fa1a7","F1","batch6","","2344.6000000089407","stim/no_30_1_b.png","j","pattern_response","true","j","pattern_13","2344.6000000089407","true","5","","","","","","","","","","","","","","","","","","",""
"","","","","","html-keyboard-response","33","77040","0.0-2.0-5.0-0.6","63e52a02b954da8b899fa1a7","F1","batch6","","null","<p class=block-text>Trial 7 out of 78</p>","null","pattern_show_trial_num","","","","","","","","","","","","","","","","","","","","","","","","",""
"","","","","","image-keyboard-response","34","78253","0.0-2.0-5.0-1.6","63e52a02b954da8b899fa1a7","F1","batch6","","1210.4000000059605","stim/yes_33_dia_w1_w.png","f","pattern_response","true","f","pattern_56","1210.4000000059605","true","6","","","","","","","","","","","","","","","","","","",""
"","","","","","html-keyboard-response","35","79569","0.0-2.0-5.0-0.7","63e52a02b954da8b899fa1a7","F1","batch6","","null","<p class=block-text>Trial 8 out of 78</p>","null","pattern_show_trial_num","","","","","","","","","","","","","","","","","","","","","","","","",""
"","","","","","image-keyboard-response","36","81155","0.0-2.0-5.0-1.7","63e52a02b954da8b899fa1a7","F1","batch6","","1584.2999999970198","stim/yes_53_ver_b1_b.png","f","pattern_response","true","f","pattern_74","1584.2999999970198","true","7","","","","","","","","","","","","","","","","","","",""
"","","","","","html-keyboard-response","37","82475","0.0-2.0-5.0-0.8","63e52a02b954da8b899fa1a7","F1","batch6","","null","<p class=block-text>Trial 9 out of 78</p>","null","pattern_show_trial_num","","","","","","","","","","","","","","","","","","","","","","","","",""
"","","","","","image-keyboard-response","38","85889","0.0-2.0-5.0-1.8","63e52a02b954da8b899fa1a7","F1","batch6","","3411.8999999910593","stim/no_49_2_b.png","j","pattern_response","true","j","pattern_29","3411.8999999910593","true","8","","","","","","","","","","","","","","","","","","",""
"","","","","","html-keyboard-response","39","87200","0.0-2.0-5.0-0.9","63e52a02b954da8b899fa1a7","F1","batch6","","null","<p class=block-text>Trial 10 out of 78</p>","null","pattern_show_trial_num","","","","","","","","","","","","","","","","","","","","","","","","",""
"","","","","","image-keyboard-response","40","94293","0.0-2.0-5.0-1.9","63e52a02b954da8b899fa1a7","F1","batch6","","7089.4000000059605","stim/yes_12_hor_w1_w.png","f","pattern_response","true","f","pattern_42","7089.4000000059605","true","9","","","","","","","","","","","","","","","","","","",""
"","","","","","html-keyboard-response","41","95612","0.0-2.0-5.0-0.10","63e52a02b954da8b899fa1a7","F1","batch6","","null","<p class=block-text>Trial 11 out of 78</p>","null","pattern_show_trial_num","","","","","","","","","","","","","","","","","","","","","","","","",""
"","","","","","image-keyboard-response","42","98002","0.0-2.0-5.0-1.10","63e52a02b954da8b899fa1a7","F1","batch6","","2388.1000000089407","stim/yes_51_dia_b1.png","f","pattern_response","true","f","pattern_72","2388.1000000089407","true","10","","","","","","","","","","","","","","","","","","",""
"","","","","","html-keyboard-response","43","99316","0.0-2.0-5.0-0.11","63e52a02b954da8b899fa1a7","F1","batch6","","null","<p class=block-text>Trial 12 out of 78</p>","null","pattern_show_trial_num","","","","","","","","","","","","","","","","","","","","","","","","",""
"","","","","","image-keyboard-response","44","100347","0.0-2.0-5.0-1.11","63e52a02b954da8b899fa1a7","F1","batch6","","1028.800000011921","stim/yes_49_hor_w1_b.png","f","pattern_response","true","f","pattern_70","1028.800000011921","true","11","","","","","","","","","","","","","","","","","","",""
"","","","","","html-keyboard-response","45","101668","0.0-2.0-5.0-0.12","63e52a02b954da8b899fa1a7","F1","batch6","","null","<p class=block-text>Trial 13 out of 78</p>","null","pattern_show_trial_num","","","","","","","","","","","","","","","","","","","","","","","","",""
"","","","","","image-keyboard-response","46","107590","0.0-2.0-5.0-1.12","63e52a02b954da8b899fa1a7","F1","batch6","","5919.79999999702","stim/no_53_1_b.png","j","pattern_response","true","j","pattern_33","5919.79999999702","true","12","","","","","","","","","","","","","","","","","","",""
"","","","","","html-keyboard-response","47","108906","0.0-2.0-5.0-0.13","63e52a02b954da8b899fa1a7","F1","batch6","","null","<p class=block-text>Trial 14 out of 78</p>","null","pattern_show_trial_num","","","","","","","","","","","","","","","","","","","","","","","","",""
"","","","","","image-keyboard-response","48","118060","0.0-2.0-5.0-1.13","63e52a02b954da8b899fa1a7","F1","batch6","","9150.79999999702","stim/yes_46_ver_b1_b.png","j","pattern_response","false","f","pattern_68","9150.79999999702","false","12","","","","","","","","","","","","","","","","","","",""
"","","","","","html-keyboard-response","49","119380","0.0-2.0-5.0-0.14","63e52a02b954da8b899fa1a7","F1","batch6","","null","<p class=block-text>Trial 15 out of 78</p>","null","pattern_show_trial_num","","","","","","","","","","","","","","","","","","","","","","","","",""
"","","","","","image-keyboard-response","50","124057","0.0-2.0-5.0-1.14","63e52a02b954da8b899fa1a7","F1","batch6","","4675.399999991059","stim/yes_44_ver_w1_w.png","j","pattern_response","false","f","pattern_66","4675.399999991059","false","12","","","","","","","","","","","","","","","","","","",""
"","","","","","html-keyboard-response","51","125369","0.0-2.0-5.0-0.15","63e52a02b954da8b899fa1a7","F1","batch6","","null","<p class=block-text>Trial 16 out of 78</p>","null","pattern_show_trial_num","","","","","","","","","","","","","","","","","","","","","","","","",""
"","","","","","image-keyboard-response","52","126130","0.0-2.0-5.0-1.15","63e52a02b954da8b899fa1a7","F1","batch6","","758","stim/yes_36_ver_w1_w.png","f","pattern_response","true","f","pattern_58","758","true","13","","","","","","","","","","","","","","","","","","",""
"","","","","","html-keyboard-response","53","127439","0.0-2.0-5.0-0.16","63e52a02b954da8b899fa1a7","F1","batch6","","null","<p class=block-text>Trial 17 out of 78</p>","null","pattern_show_trial_num","","","","","","","","","","","","","","","","","","","","","","","","",""
"","","","","","image-keyboard-response","54","130433","0.0-2.0-5.0-1.16","63e52a02b954da8b899fa1a7","F1","batch6","","2992","stim/no_39_1_w.png","j","pattern_response","true","j","pattern_21","2992","true","14","","","","","","","","","","","","","","","","","","",""
"","","","","","html-keyboard-response","55","131744","0.0-2.0-5.0-0.17","63e52a02b954da8b899fa1a7","F1","batch6","","null","<p class=block-text>Trial 18 out of 78</p>","null","pattern_show_trial_num","","","","","","","","","","","","","","","","","","","","","","","","",""
"","","","","","image-keyboard-response","56","132704","0.0-2.0-5.0-1.17","63e52a02b954da8b899fa1a7","F1","batch6","","957.4000000059605","stim/yes_30_ver_b1_b.png","f","pattern_response","true","f","pattern_54","957.4000000059605","true","15","","","","","","","","","","","","","","","","","","",""
"","","","","","html-keyboard-response","57","134017","0.0-2.0-5.0-0.18","63e52a02b954da8b899fa1a7","F1","batch6","","null","<p class=block-text>Trial 19 out of 78</p>","null","pattern_show_trial_num","","","","","","","","","","","","","","","","","","","","","","","","",""
"","","","","","image-keyboard-response","58","138649","0.0-2.0-5.0-1.18","63e52a02b954da8b899fa1a7","F1","batch6","","4629.5","stim/yes_63_dia_b1.png","f","pattern_response","true","f","pattern_78","4629.5","true","16","","","","","","","","","","","","","","","","","","",""
"","","","","","html-keyboard-response","59","139959","0.0-2.0-5.0-0.19","63e52a02b954da8b899fa1a7","F1","batch6","","null","<p class=block-text>Trial 20 out of 78</p>","null","pattern_show_trial_num","","","","","","","","","","","","","","","","","","","","","","","","",""
"","","","","","image-keyboard-response","60","141042","0.0-2.0-5.0-1.19","63e52a02b954da8b899fa1a7","F1","batch6","","1080.7999999970198","stim/yes_26_dia_w2_w.png","f","pattern_response","true","f","pattern_50","1080.7999999970198","true","17","","","","","","","","","","","","","","","","","","",""
"","","","","","html-keyboard-response","61","142355","0.0-2.0-5.0-0.20","63e52a02b954da8b899fa1a7","F1","batch6","","null","<p class=block-text>Trial 21 out of 78</p>","null","pattern_show_trial_num","","","","","","","","","","","","","","","","","","","","","","","","",""
"","","","","","image-keyboard-response","62","143908","0.0-2.0-5.0-1.20","63e52a02b954da8b899fa1a7","F1","batch6","","1551.0999999940395","stim/no_22_1_b.png","j","pattern_response","true","j","pattern_07","1551.0999999940395","true","18","","","","","","","","","","","","","","","","","","",""
"","","","","","html-keyboard-response","63","145225","0.0-2.0-5.0-0.21","63e52a02b954da8b899fa1a7","F1","batch6","","null","<p class=block-text>Trial 22 out of 78</p>","null","pattern_show_trial_num","","","","","","","","","","","","","","","","","","","","","","","","",""
"","","","","","image-keyboard-response","64","153268","0.0-2.0-5.0-1.21","63e52a02b954da8b899fa1a7","F1","batch6","","8041.20000000298","stim/no_47_1_b.png","j","pattern_response","true","j","pattern_27","8041.20000000298","true","19","","","","","","","","","","","","","","","","","","",""
"","","","","","html-keyboard-response","65","154584","0.0-2.0-5.0-0.22","63e52a02b954da8b899fa1a7","F1","batch6","","null","<p class=block-text>Trial 23 out of 78</p>","null","pattern_show_trial_num","","","","","","","","","","","","","","","","","","","","","","","","",""
"","","","","","image-keyboard-response","66","161810","0.0-2.0-5.0-1.22","63e52a02b954da8b899fa1a7","F1","batch6","","7223.4000000059605","stim/no_67_1.png","j","pattern_response","true","j","pattern_39","7223.4000000059605","true","20","","","","","","","","","","","","","","","","","","",""
"","","","","","html-keyboard-response","67","163118","0.0-2.0-5.0-0.23","63e52a02b954da8b899fa1a7","F1","batch6","","null","<p class=block-text>Trial 24 out of 78</p>","null","pattern_show_trial_num","","","","","","","","","","","","","","","","","","","","","","","","",""
"","","","","","image-keyboard-response","68","165789","0.0-2.0-5.0-1.23","63e52a02b954da8b899fa1a7","F1","batch6","","2668.7999999970198","stim/no_12_1.png","j","pattern_response","true","j","pattern_01","2668.7999999970198","true","21","","","","","","","","","","","","","","","","","","",""
"","","","","","html-keyboard-response","69","167105","0.0-2.0-5.0-0.24","63e52a02b954da8b899fa1a7","F1","batch6","","null","<p class=block-text>Trial 25 out of 78</p>","null","pattern_show_trial_num","","","","","","","","","","","","","","","","","","","","","","","","",""
"","","","","","image-keyboard-response","70","170432","0.0-2.0-5.0-1.24","63e52a02b954da8b899fa1a7","F1","batch6","","3324.2999999970198","stim/yes_39_hor_w1_w.png","f","pattern_response","true","f","pattern_62","3324.2999999970198","true","22","","","","","","","","","","","","","","","","","","",""
"","","","","","html-keyboard-response","71","171744","0.0-2.0-5.0-0.25","63e52a02b954da8b899fa1a7","F1","batch6","","null","<p class=block-text>Trial 26 out of 78</p>","null","pattern_show_trial_num","","","","","","","","","","","","","","","","","","","","","","","","",""
"","","","","","image-keyboard-response","72","176028","0.0-2.0-5.0-1.25","63e52a02b954da8b899fa1a7","F1","batch6","","4281.70000000298","stim/yes_42_dia_w1_w.png","j","pattern_response","false","f","pattern_64","4281.70000000298","false","22","","","","","","","","","","","","","","","","","","",""
"","","","","","html-keyboard-response","73","177344","0.0-2.0-5.0-0.26","63e52a02b954da8b899fa1a7","F1","batch6","","null","<p class=block-text>Trial 27 out of 78</p>","null","pattern_show_trial_num","","","","","","","","","","","","","","","","","","","","","","","","",""
"","","","","","image-keyboard-response","74","183574","0.0-2.0-5.0-1.26","63e52a02b954da8b899fa1a7","F1","batch6","","6227.5999999940395","stim/no_58_1_w.png","j","pattern_response","true","j","pattern_35","6227.5999999940395","true","23","","","","","","","","","","","","","","","","","","",""
"","","","","","html-keyboard-response","75","184887","0.0-2.0-5.0-0.27","63e52a02b954da8b899fa1a7","F1","batch6","","null","<p class=block-text>Trial 28 out of 78</p>","null","pattern_show_trial_num","","","","","","","","","","","","","","","","","","","","","","","","",""
"","","","","","image-keyboard-response","76","189590","0.0-2.0-5.0-1.27","63e52a02b954da8b899fa1a7","F1","batch6","","4701.4000000059605","stim/no_51_1.png","j","pattern_response","true","j","pattern_31","4701.4000000059605","true","24","","","","","","","","","","","","","","","","","","",""
"","","","","","html-keyboard-response","77","190908","0.0-2.0-5.0-0.28","63e52a02b954da8b899fa1a7","F1","batch6","","null","<p class=block-text>Trial 29 out of 78</p>","null","pattern_show_trial_num","","","","","","","","","","","","","","","","","","","","","","","","",""
"","","","","","image-keyboard-response","78","198167","0.0-2.0-5.0-1.28","63e52a02b954da8b899fa1a7","F1","batch6","","7257","stim/no_45_1_w.png","j","pattern_response","true","j","pattern_25","7257","true","25","","","","","","","","","","","","","","","","","","",""
"","","","","","html-keyboard-response","79","199479","0.0-2.0-5.0-0.29","63e52a02b954da8b899fa1a7","F1","batch6","","null","<p class=block-text>Trial 30 out of 78</p>","null","pattern_show_trial_num","","","","","","","","","","","","","","","","","","","","","","","","",""
"","","","","","image-keyboard-response","80","201916","0.0-2.0-5.0-1.29","63e52a02b954da8b899fa1a7","F1","batch6","","2434.7999999970198","stim/no_36_1_b.png","j","pattern_response","true","j","pattern_17","2434.7999999970198","true","26","","","","","","","","","","","","","","","","","","",""
"","","","","","html-keyboard-response","81","203232","0.0-2.0-5.0-0.30","63e52a02b954da8b899fa1a7","F1","batch6","","null","<p class=block-text>Trial 31 out of 78</p>","null","pattern_show_trial_num","","","","","","","","","","","","","","","","","","","","","","","","",""
"","","","","","image-keyboard-response","82","213240","0.0-2.0-5.0-1.30","63e52a02b954da8b899fa1a7","F1","batch6","","10005","stim/no_18_1_b.png","j","pattern_response","true","j","pattern_05","10005","true","27","","","","","","","","","","","","","","","","","","",""
"","","","","","html-keyboard-response","83","214551","0.0-2.0-5.0-0.31","63e52a02b954da8b899fa1a7","F1","batch6","","null","<p class=block-text>Trial 32 out of 78</p>","null","pattern_show_trial_num","","","","","","","","","","","","","","","","","","","","","","","","",""
"","","","","","image-keyboard-response","84","215474","0.0-2.0-5.0-1.31","63e52a02b954da8b899fa1a7","F1","batch6","","921.4000000059605","stim/yes_15_dia_b1u_b.png","f","pattern_response","true","f","pattern_44","921.4000000059605","true","28","","","","","","","","","","","","","","","","","","",""
"","","","","","html-keyboard-response","85","216783","0.0-2.0-5.0-0.32","63e52a02b954da8b899fa1a7","F1","batch6","","null","<p class=block-text>Trial 33 out of 78</p>","null","pattern_show_trial_num","","","","","","","","","","","","","","","","","","","","","","","","",""
"","","","","","image-keyboard-response","86","221429","0.0-2.0-5.0-1.32","63e52a02b954da8b899fa1a7","F1","batch6","","4644.5999999940395","stim/no_25_1_b.png","j","pattern_response","true","j","pattern_09","4644.5999999940395","true","29","","","","","","","","","","","","","","","","","","",""
"","","","","","html-keyboard-response","87","222745","0.0-2.0-5.0-0.33","63e52a02b954da8b899fa1a7","F1","batch6","","null","<p class=block-text>Trial 34 out of 78</p>","null","pattern_show_trial_num","","","","","","","","","","","","","","","","","","","","","","","","",""
"","","","","","image-keyboard-response","88","225684","0.0-2.0-5.0-1.33","63e52a02b954da8b899fa1a7","F1","batch6","","2937.2000000029802","stim/no_37_2_w.png","j","pattern_response","true","j","pattern_19","2937.2000000029802","true","30","","","","","","","","","","","","","","","","","","",""
"","","","","","html-keyboard-response","89","227002","0.0-2.0-5.0-0.34","63e52a02b954da8b899fa1a7","F1","batch6","","null","<p class=block-text>Trial 35 out of 78</p>","null","pattern_show_trial_num","","","","","","","","","","","","","","","","","","","","","","","","",""
"","","","","","image-keyboard-response","90","227900","0.0-2.0-5.0-1.34","63e52a02b954da8b899fa1a7","F1","batch6","","896.5","stim/yes_17_ver_b1_b.png","f","pattern_response","true","f","pattern_46","896.5","true","31","","","","","","","","","","","","","","","","","","",""
"","","","","","html-keyboard-response","91","229215","0.0-2.0-5.0-0.35","63e52a02b954da8b899fa1a7","F1","batch6","","null","<p class=block-text>Trial 36 out of 78</p>","null","pattern_show_trial_num","","","","","","","","","","","","","","","","","","","","","","","","",""
"","","","","","image-keyboard-response","92","230010","0.0-2.0-5.0-1.35","63e52a02b954da8b899fa1a7","F1","batch6","","794","stim/yes_29_hor_b1_b.png","f","pattern_response","true","f","pattern_52","794","true","32","","","","","","","","","","","","","","","","","","",""
"","","","","","html-keyboard-response","93","231323","0.0-2.0-5.0-0.36","63e52a02b954da8b899fa1a7","F1","batch6","","null","<p class=block-text>Trial 37 out of 78</p>","null","pattern_show_trial_num","","","","","","","","","","","","","","","","","","","","","","","","",""
"","","","","","image-keyboard-response","94","233957","0.0-2.0-5.0-1.36","63e52a02b954da8b899fa1a7","F1","batch6","","2632","stim/no_43_2_b.png","j","pattern_response","true","j","pattern_23","2632","true","33","","","","","","","","","","","","","","","","","","",""
"","","","","","html-keyboard-response","95","235276","0.0-2.0-5.0-0.37","63e52a02b954da8b899fa1a7","F1","batch6","","null","<p class=block-text>Trial 38 out of 78</p>","null","pattern_show_trial_num","","","","","","","","","","","","","","","","","","","","","","","","",""
"","","","","","image-keyboard-response","96","236131","0.0-2.0-5.0-1.37","63e52a02b954da8b899fa1a7","F1","batch6","","852.6999999880791","stim/yes_70_ver_b1.png","f","pattern_response","true","f","pattern_80","852.6999999880791","true","34","","","","","","","","","","","","","","","","","","",""
"","","","","","html-keyboard-response","97","237449","0.0-2.0-5.0-0.38","63e52a02b954da8b899fa1a7","F1","batch6","","null","<p class=block-text>Trial 39 out of 78</p>","null","pattern_show_trial_num","","","","","","","","","","","","","","","","","","","","","","","","",""
"","","","","","image-keyboard-response","98","241321","0.0-2.0-5.0-1.38","63e52a02b954da8b899fa1a7","F1","batch6","","3870.4000000059605","stim/no_33_1_b.png","j","pattern_response","true","j","pattern_15","3870.4000000059605","true","35","","","","","","","","","","","","","","","","","","",""
"","","","","","image-keyboard-response","99","243077","0.0-2.0-6.0","63e52a02b954da8b899fa1a7","F1","batch6","","1250.7000000029802","stim/empty_board.png","j","attention_check","true","j","","","","","500","[""f"",""j""]","","","","","","","","","","","","","","","","",""
"","","","","","html-keyboard-response","100","243884","0.0-2.0-7.0-0.0","63e52a02b954da8b899fa1a7","F1","batch6","","null","<p class=block-text>Trial 40 out of 78</p>","null","pattern_show_trial_num","","","","","","","","","","","","","","","","","","","","","","","","",""
"","","","","","image-keyboard-response","101","246624","0.0-2.0-7.0-1.0","63e52a02b954da8b899fa1a7","F1","batch6","","2738","stim/yes_50_dia_w1.png","f","pattern_response","true","f","pattern_71","2738","true","36","","","","","","","","","","","","","","","","","","",""
"","","","","","html-keyboard-response","102","247936","0.0-2.0-7.0-0.1","63e52a02b954da8b899fa1a7","F1","batch6","","null","<p class=block-text>Trial 41 out of 78</p>","null","pattern_show_trial_num","","","","","","","","","","","","","","","","","","","","","","","","",""
"","","","","","image-keyboard-response","103","248681","0.0-2.0-7.0-1.1","63e52a02b954da8b899fa1a7","F1","batch6","","742.5","stim/yes_22_ver_w1.png","f","pattern_response","true","f","pattern_47","742.5","true","37","","","","","","","","","","","","","","","","","","",""
"","","","","","html-keyboard-response","104","249991","0.0-2.0-7.0-0.2","63e52a02b954da8b899fa1a7","F1","batch6","","null","<p class=block-text>Trial 42 out of 78</p>","null","pattern_show_trial_num","","","","","","","","","","","","","","","","","","","","","","","","",""
"","","","","","image-keyboard-response","105","250625","0.0-2.0-7.0-1.2","63e52a02b954da8b899fa1a7","F1","batch6","","632.5","stim/yes_14_hor_b1_w.png","f","pattern_response","true","f","pattern_43","632.5","true","38","","","","","","","","","","","","","","","","","","",""
"","","","","","html-keyboard-response","106","251938","0.0-2.0-7.0-0.3","63e52a02b954da8b899fa1a7","F1","batch6","","null","<p class=block-text>Trial 43 out of 78</p>","null","pattern_show_trial_num","","","","","","","","","","","","","","","","","","","","","","","","",""
"","","","","","image-keyboard-response","107","253689","0.0-2.0-7.0-1.3","63e52a02b954da8b899fa1a7","F1","batch6","","1750.0999999940395","stim/no_26_1_w.png","j","pattern_response","true","j","pattern_10","1750.0999999940395","true","39","","","","","","","","","","","","","","","","","","",""
"","","","","","html-keyboard-response","108","255003","0.0-2.0-7.0-0.4","63e52a02b954da8b899fa1a7","F1","batch6","","null","<p class=block-text>Trial 44 out of 78</p>","null","pattern_show_trial_num","","","","","","","","","","","","","","","","","","","","","","","","",""
"","","","","","image-keyboard-response","109","256278","0.0-2.0-7.0-1.4","63e52a02b954da8b899fa1a7","F1","batch6","","1273.199999988079","stim/yes_52_ver_w1.png","f","pattern_response","true","f","pattern_73","1273.199999988079","true","40","","","","","","","","","","","","","","","","","","",""
"","","","","","html-keyboard-response","110","257596","0.0-2.0-7.0-0.5","63e52a02b954da8b899fa1a7","F1","batch6","","null","<p class=block-text>Trial 45 out of 78</p>","null","pattern_show_trial_num","","","","","","","","","","","","","","","","","","","","","","","","",""
"","","","","","image-keyboard-response","111","260026","0.0-2.0-7.0-1.5","63e52a02b954da8b899fa1a7","F1","batch6","","2428","stim/no_29_1_b.png","j","pattern_response","true","j","pattern_12","2428","true","41","","","","","","","","","","","","","","","","","","",""
"","","","","","html-keyboard-response","112","261335","0.0-2.0-7.0-0.6","63e52a02b954da8b899fa1a7","F1","batch6","","null","<p class=block-text>Trial 46 out of 78</p>","null","pattern_show_trial_num","","","","","","","","","","","","","","","","","","","","","","","","",""
"","","","","","image-keyboard-response","113","262286","0.0-2.0-7.0-1.6","63e52a02b954da8b899fa1a7","F1","batch6","","949","stim/yes_38_hor_b1_b.png","f","pattern_response","true","f","pattern_61","949","true","42","","","","","","","","","","","","","","","","","","",""
"","","","","","html-keyboard-response","114","263604","0.0-2.0-7.0-0.7","63e52a02b954da8b899fa1a7","F1","batch6","","null","<p class=block-text>Trial 47 out of 78</p>","null","pattern_show_trial_num","","","","","","","","","","","","","","","","","","","","","","","","",""
"","","","","","image-keyboard-response","115","271776","0.0-2.0-7.0-1.7","63e52a02b954da8b899fa1a7","F1","batch6","","8170.899999991059","stim/no_62_1_w.png","j","pattern_response","true","j","pattern_36","8170.899999991059","true","43","","","","","","","","","","","","","","","","","","",""
"","","","","","html-keyboard-response","116","273088","0.0-2.0-7.0-0.8","63e52a02b954da8b899fa1a7","F1","batch6","","null","<p class=block-text>Trial 48 out of 78</p>","null","pattern_show_trial_num","","","","","","","","","","","","","","","","","","","","","","","","",""
"","","","","","image-keyboard-response","117","274528","0.0-2.0-7.0-1.8","63e52a02b954da8b899fa1a7","F1","batch6","","1439","stim/no_23_1.png","j","pattern_response","true","j","pattern_08","1439","true","44","","","","","","","","","","","","","","","","","","",""
"","","","","","html-keyboard-response","118","275840","0.0-2.0-7.0-0.9","63e52a02b954da8b899fa1a7","F1","batch6","","null","<p class=block-text>Trial 49 out of 78</p>","null","pattern_show_trial_num","","","","","","","","","","","","","","","","","","","","","","","","",""
"","","","","","image-keyboard-response","119","276439","0.0-2.0-7.0-1.9","63e52a02b954da8b899fa1a7","F1","batch6","","596.8000000119209","stim/yes_25_hor_b1_b.png","f","pattern_response","true","f","pattern_49","596.8000000119209","true","45","","","","","","","","","","","","","","","","","","",""
"","","","","","html-keyboard-response","120","277752","0.0-2.0-7.0-0.10","63e52a02b954da8b899fa1a7","F1","batch6","","null","<p class=block-text>Trial 50 out of 78</p>","null","pattern_show_trial_num","","","","","","","","","","","","","","","","","","","","","","","","",""
"","","","","","image-keyboard-response","121","283402","0.0-2.0-7.0-1.10","63e52a02b954da8b899fa1a7","F1","batch6","","5648.70000000298","stim/no_48_1_w.png","j","pattern_response","true","j","pattern_28","5648.70000000298","true","46","","","","","","","","","","","","","","","","","","",""
"","","","","","html-keyboard-response","122","284716","0.0-2.0-7.0-0.11","63e52a02b954da8b899fa1a7","F1","batch6","","null","<p class=block-text>Trial 51 out of 78</p>","null","pattern_show_trial_num","","","","","","","","","","","","","","","","","","","","","","","","",""
"","","","","","image-keyboard-response","123","287345","0.0-2.0-7.0-1.11","63e52a02b954da8b899fa1a7","F1","batch6","","2627.0999999940395","stim/yes_31_hor_b1.png","f","pattern_response","true","f","pattern_55","2627.0999999940395","true","47","","","","","","","","","","","","","","","","","","",""
"","","","","","html-keyboard-response","124","288657","0.0-2.0-7.0-0.12","63e52a02b954da8b899fa1a7","F1","batch6","","null","<p class=block-text>Trial 52 out of 78</p>","null","pattern_show_trial_num","","","","","","","","","","","","","","","","","","","","","","","","",""
"","","","","","image-keyboard-response","125","299778","0.0-2.0-7.0-1.12","63e52a02b954da8b899fa1a7","F1","batch6","","11118.09999999404","stim/yes_67_hor_b1.png","j","pattern_response","false","f","pattern_79","11118.09999999404","false","47","","","","","","","","","","","","","","","","","","",""
"","","","","","html-keyboard-response","126","301092","0.0-2.0-7.0-0.13","63e52a02b954da8b899fa1a7","F1","batch6","","null","<p class=block-text>Trial 53 out of 78</p>","null","pattern_show_trial_num","","","","","","","","","","","","","","","","","","","","","","","","",""
"","","","","","image-keyboard-response","127","302256","0.0-2.0-7.0-1.13","63e52a02b954da8b899fa1a7","F1","batch6","","1162.699999988079","stim/yes_29_ver_w1.png","f","pattern_response","true","f","pattern_53","1162.699999988079","true","48","","","","","","","","","","","","","","","","","","",""
"","","","","","html-keyboard-response","128","303568","0.0-2.0-7.0-0.14","63e52a02b954da8b899fa1a7","F1","batch6","","null","<p class=block-text>Trial 54 out of 78</p>","null","pattern_show_trial_num","","","","","","","","","","","","","","","","","","","","","","","","",""
"","","","","","image-keyboard-response","129","307787","0.0-2.0-7.0-1.14","63e52a02b954da8b899fa1a7","F1","batch6","","4217.5999999940395","stim/no_46_1_b.png","j","pattern_response","true","j","pattern_26","4217.5999999940395","true","49","","","","","","","","","","","","","","","","","","",""
"","","","","","html-keyboard-response","130","309106","0.0-2.0-7.0-0.15","63e52a02b954da8b899fa1a7","F1","batch6","","null","<p class=block-text>Trial 55 out of 78</p>","null","pattern_show_trial_num","","","","","","","","","","","","","","","","","","","","","","","","",""
"","","","","","image-keyboard-response","131","317150","0.0-2.0-7.0-1.15","63e52a02b954da8b899fa1a7","F1","batch6","","8042.20000000298","stim/no_70_2.png","j","pattern_response","true","j","pattern_40","8042.20000000298","true","50","","","","","","","","","","","","","","","","","","",""
"","","","","","html-keyboard-response","132","318466","0.0-2.0-7.0-0.16","63e52a02b954da8b899fa1a7","F1","batch6","","null","<p class=block-text>Trial 56 out of 78</p>","null","pattern_show_trial_num","","","","","","","","","","","","","","","","","","","","","","","","",""
"","","","","","image-keyboard-response","133","322781","0.0-2.0-7.0-1.16","63e52a02b954da8b899fa1a7","F1","batch6","","4313.100000008941","stim/no_52_1.png","j","pattern_response","true","j","pattern_32","4313.100000008941","true","51","","","","","","","","","","","","","","","","","","",""
"","","","","","html-keyboard-response","134","324095","0.0-2.0-7.0-0.17","63e52a02b954da8b899fa1a7","F1","batch6","","null","<p class=block-text>Trial 57 out of 78</p>","null","pattern_show_trial_num","","","","","","","","","","","","","","","","","","","","","","","","",""
"","","","","","image-keyboard-response","135","326112","0.0-2.0-7.0-1.17","63e52a02b954da8b899fa1a7","F1","batch6","","2015.2000000029802","stim/yes_35_dia_b1.png","f","pattern_response","true","f","pattern_57","2015.2000000029802","true","52","","","","","","","","","","","","","","","","","","",""
"","","","","","html-keyboard-response","136","327428","0.0-2.0-7.0-0.18","63e52a02b954da8b899fa1a7","F1","batch6","","null","<p class=block-text>Trial 58 out of 78</p>","null","pattern_show_trial_num","","","","","","","","","","","","","","","","","","","","","","","","",""
"","","","","","image-keyboard-response","137","328993","0.0-2.0-7.0-1.18","63e52a02b954da8b899fa1a7","F1","batch6","","1562.7000000029802","stim/no_20_1_w.png","j","pattern_response","true","j","pattern_06","1562.7000000029802","true","53","","","","","","","","","","","","","","","","","","",""
"","","","","","html-keyboard-response","138","330304","0.0-2.0-7.0-0.19","63e52a02b954da8b899fa1a7","F1","batch6","","null","<p class=block-text>Trial 59 out of 78</p>","null","pattern_show_trial_num","","","","","","","","","","","","","","","","","","","","","","","","",""
"","","","","","image-keyboard-response","139","331332","0.0-2.0-7.0-1.19","63e52a02b954da8b899fa1a7","F1","batch6","","1027.0999999940395","stim/yes_17_dia_w1.png","f","pattern_response","true","f","pattern_45","1027.0999999940395","true","54","","","","","","","","","","","","","","","","","","",""
"","","","","","html-keyboard-response","140","332651","0.0-2.0-7.0-0.20","63e52a02b954da8b899fa1a7","F1","batch6","","null","<p class=block-text>Trial 60 out of 78</p>","null","pattern_show_trial_num","","","","","","","","","","","","","","","","","","","","","","","","",""
"","","","","","image-keyboard-response","141","333606","0.0-2.0-7.0-1.20","63e52a02b954da8b899fa1a7","F1","batch6","","952.0999999940395","stim/no_17_1_w.png","j","pattern_response","true","j","pattern_04","952.0999999940395","true","55","","","","","","","","","","","","","","","","","","",""
"","","","","","html-keyboard-response","142","334920","0.0-2.0-7.0-0.21","63e52a02b954da8b899fa1a7","F1","batch6","","null","<p class=block-text>Trial 61 out of 78</p>","null","pattern_show_trial_num","","","","","","","","","","","","","","","","","","","","","","","","",""
"","","","","","image-keyboard-response","143","339700","0.0-2.0-7.0-1.21","63e52a02b954da8b899fa1a7","F1","batch6","","4777.70000000298","stim/no_55_1_w.png","j","pattern_response","true","j","pattern_34","4777.70000000298","true","56","","","","","","","","","","","","","","","","","","",""
"","","","","","html-keyboard-response","144","341018","0.0-2.0-7.0-0.22","63e52a02b954da8b899fa1a7","F1","batch6","","null","<p class=block-text>Trial 62 out of 78</p>","null","pattern_show_trial_num","","","","","","","","","","","","","","","","","","","","","","","","",""
"","","","","","image-keyboard-response","145","341858","0.0-2.0-7.0-1.22","63e52a02b954da8b899fa1a7","F1","batch6","","837.8999999910593","stim/yes_43_ver_w1_w.png","f","pattern_response","true","f","pattern_65","837.8999999910593","true","57","","","","","","","","","","","","","","","","","","",""
"","","","","","html-keyboard-response","146","343177","0.0-2.0-7.0-0.23","63e52a02b954da8b899fa1a7","F1","batch6","","null","<p class=block-text>Trial 63 out of 78</p>","null","pattern_show_trial_num","","","","","","","","","","","","","","","","","","","","","","","","",""
"","","","","","image-keyboard-response","147","350366","0.0-2.0-7.0-1.23","63e52a02b954da8b899fa1a7","F1","batch6","","7187.4000000059605","stim/no_65_1_b.png","j","pattern_response","true","j","pattern_38","7187.4000000059605","true","58","","","","","","","","","","","","","","","","","","",""
"","","","","","html-keyboard-response","148","351684","0.0-2.0-7.0-0.24","63e52a02b954da8b899fa1a7","F1","batch6","","null","<p class=block-text>Trial 64 out of 78</p>","null","pattern_show_trial_num","","","","","","","","","","","","","","","","","","","","","","","","",""
"","","","","","image-keyboard-response","149","352411","0.0-2.0-7.0-1.24","63e52a02b954da8b899fa1a7","F1","batch6","","725.1999999880791","stim/yes_55_hor_w1_w.png","f","pattern_response","true","f","pattern_75","725.1999999880791","true","59","","","","","","","","","","","","","","","","","","",""
"","","","","","html-keyboard-response","150","353729","0.0-2.0-7.0-0.25","63e52a02b954da8b899fa1a7","F1","batch6","","null","<p class=block-text>Trial 65 out of 78</p>","null","pattern_show_trial_num","","","","","","","","","","","","","","","","","","","","","","","","",""
"","","","","","image-keyboard-response","151","356742","0.0-2.0-7.0-1.25","63e52a02b954da8b899fa1a7","F1","batch6","","3010.800000011921","stim/no_38_1_b.png","j","pattern_response","true","j","pattern_20","3010.800000011921","true","60","","","","","","","","","","","","","","","","","","",""
"","","","","","html-keyboard-response","152","358060","0.0-2.0-7.0-0.26","63e52a02b954da8b899fa1a7","F1","batch6","","null","<p class=block-text>Trial 66 out of 78</p>","null","pattern_show_trial_num","","","","","","","","","","","","","","","","","","","","","","","","",""
"","","","","","image-keyboard-response","153","358950","0.0-2.0-7.0-1.26","63e52a02b954da8b899fa1a7","F1","batch6","","888","stim/yes_60_ver_b1_b.png","f","pattern_response","true","f","pattern_77","888","true","61","","","","","","","","","","","","","","","","","","",""
"","","","","","html-keyboard-response","154","360264","0.0-2.0-7.0-0.27","63e52a02b954da8b899fa1a7","F1","batch6","","null","<p class=block-text>Trial 67 out of 78</p>","null","pattern_show_trial_num","","","","","","","","","","","","","","","","","","","","","","","","",""
"","","","","","image-keyboard-response","155","362536","0.0-2.0-7.0-1.27","63e52a02b954da8b899fa1a7","F1","batch6","","2270.6000000089407","stim/no_32_1_w.png","j","pattern_response","true","j","pattern_14","2270.6000000089407","true","62","","","","","","","","","","","","","","","","","","",""
"","","","","","html-keyboard-response","156","363851","0.0-2.0-7.0-0.28","63e52a02b954da8b899fa1a7","F1","batch6","","null","<p class=block-text>Trial 68 out of 78</p>","null","pattern_show_trial_num","","","","","","","","","","","","","","","","","","","","","","","","",""
"","","","","","image-keyboard-response","157","367927","0.0-2.0-7.0-1.28","63e52a02b954da8b899fa1a7","F1","batch6","","4073.800000011921","stim/no_34_1_b.png","j","pattern_response","true","j","pattern_16","4073.800000011921","true","63","","","","","","","","","","","","","","","","","","",""
"","","","","","html-keyboard-response","158","369241","0.0-2.0-7.0-0.29","63e52a02b954da8b899fa1a7","F1","batch6","","null","<p class=block-text>Trial 69 out of 78</p>","null","pattern_show_trial_num","","","","","","","","","","","","","","","","","","","","","","","","",""
"","","","","","image-keyboard-response","159","373411","0.0-2.0-7.0-1.29","63e52a02b954da8b899fa1a7","F1","batch6","","4167.29999999702","stim/no_44_1.png","j","pattern_response","true","j","pattern_24","4167.29999999702","true","64","","","","","","","","","","","","","","","","","","",""
"","","","","","html-keyboard-response","160","374730","0.0-2.0-7.0-0.30","63e52a02b954da8b899fa1a7","F1","batch6","","null","<p class=block-text>Trial 70 out of 78</p>","null","pattern_show_trial_num","","","","","","","","","","","","","","","","","","","","","","","","",""
"","","","","","image-keyboard-response","161","378586","0.0-2.0-7.0-1.30","63e52a02b954da8b899fa1a7","F1","batch6","","3853.1000000089407","stim/no_50_1.png","j","pattern_response","true","j","pattern_30","3853.1000000089407","true","65","","","","","","","","","","","","","","","","","","",""
"","","","","","html-keyboard-response","162","379900","0.0-2.0-7.0-0.31","63e52a02b954da8b899fa1a7","F1","batch6","","null","<p class=block-text>Trial 71 out of 78</p>","null","pattern_show_trial_num","","","","","","","","","","","","","","","","","","","","","","","","",""
"","","","","","image-keyboard-response","163","380570","0.0-2.0-7.0-1.31","63e52a02b954da8b899fa1a7","F1","batch6","","668.6000000089407","stim/no_13_2_b.png","j","pattern_response","true","j","pattern_02","668.6000000089407","true","66","","","","","","","","","","","","","","","","","","",""
"","","","","","html-keyboard-response","164","381884","0.0-2.0-7.0-0.32","63e52a02b954da8b899fa1a7","F1","batch6","","null","<p class=block-text>Trial 72 out of 78</p>","null","pattern_show_trial_num","","","","","","","","","","","","","","","","","","","","","","","","",""
"","","","","","image-keyboard-response","165","382829","0.0-2.0-7.0-1.32","63e52a02b954da8b899fa1a7","F1","batch6","","944.2000000029802","stim/yes_28_ver_b1.png","f","pattern_response","true","f","pattern_51","944.2000000029802","true","67","","","","","","","","","","","","","","","","","","",""
"","","","","","html-keyboard-response","166","384143","0.0-2.0-7.0-0.33","63e52a02b954da8b899fa1a7","F1","batch6","","null","<p class=block-text>Trial 73 out of 78</p>","null","pattern_show_trial_num","","","","","","","","","","","","","","","","","","","","","","","","",""
"","","","","","image-keyboard-response","167","386880","0.0-2.0-7.0-1.33","63e52a02b954da8b899fa1a7","F1","batch6","","2735.9000000059605","stim/no_42_1_w.png","j","pattern_response","true","j","pattern_22","2735.9000000059605","true","68","","","","","","","","","","","","","","","","","","",""
"","","","","","html-keyboard-response","168","388191","0.0-2.0-7.0-0.34","63e52a02b954da8b899fa1a7","F1","batch6","","null","<p class=block-text>Trial 74 out of 78</p>","null","pattern_show_trial_num","","","","","","","","","","","","","","","","","","","","","","","","",""
"","","","","","image-keyboard-response","169","392485","0.0-2.0-7.0-1.34","63e52a02b954da8b899fa1a7","F1","batch6","","4291.800000011921","stim/no_36_2_w.png","j","pattern_response","true","j","pattern_18","4291.800000011921","true","69","","","","","","","","","","","","","","","","","","",""
"","","","","","html-keyboard-response","170","393804","0.0-2.0-7.0-0.35","63e52a02b954da8b899fa1a7","F1","batch6","","null","<p class=block-text>Trial 75 out of 78</p>","null","pattern_show_trial_num","","","","","","","","","","","","","","","","","","","","","","","","",""
"","","","","","image-keyboard-response","171","395532","0.0-2.0-7.0-1.35","63e52a02b954da8b899fa1a7","F1","batch6","","1726","stim/yes_48_dia_w1_w.png","f","pattern_response","true","f","pattern_69","1726","true","70","","","","","","","","","","","","","","","","","","",""
"","","","","","html-keyboard-response","172","396852","0.0-2.0-7.0-0.36","63e52a02b954da8b899fa1a7","F1","batch6","","null","<p class=block-text>Trial 76 out of 78</p>","null","pattern_show_trial_num","","","","","","","","","","","","","","","","","","","","","","","","",""
"","","","","","image-keyboard-response","173","398045","0.0-2.0-7.0-1.36","63e52a02b954da8b899fa1a7","F1","batch6","","1191.0999999940395","stim/yes_45_hor_b2_b.png","f","pattern_response","true","f","pattern_67","1191.0999999940395","true","71","","","","","","","","","","","","","","","","","","",""
"","","","","","html-keyboard-response","174","399360","0.0-2.0-7.0-0.37","63e52a02b954da8b899fa1a7","F1","batch6","","null","<p class=block-text>Trial 77 out of 78</p>","null","pattern_show_trial_num","","","","","","","","","","","","","","","","","","","","","","","","",""
"","","","","","image-keyboard-response","175","402148","0.0-2.0-7.0-1.37","63e52a02b954da8b899fa1a7","F1","batch6","","2786.4000000059605","stim/yes_40_dia_b1_b.png","j","pattern_response","false","f","pattern_63","2786.4000000059605","false","71","","","","","","","","","","","","","","","","","","",""
"","","","","","html-keyboard-response","176","403466","0.0-2.0-7.0-0.38","63e52a02b954da8b899fa1a7","F1","batch6","","null","<p class=block-text>Trial 78 out of 78</p>","null","pattern_show_trial_num","","","","","","","","","","","","","","","","","","","","","","","","",""
"","","","","","image-keyboard-response","177","406505","0.0-2.0-7.0-1.38","63e52a02b954da8b899fa1a7","F1","batch6","","3037.2999999970198","stim/yes_37_dia_w1.png","j","pattern_response","false","f","pattern_59","3037.2999999970198","false","71","","","","","","","","","","","","","","","","","","",""
"","","","","","html-button-response","178","418668","0.0-2.0-8.0","63e52a02b954da8b899fa1a7","F1","batch6","","11657.90000000596","<p class = block-text>This concludes the 4-in-a-row detection game.Thank you for your responses!<br>
            You responded correctly on 91% of the trials.<br>
            When you are ready, press ""Continue"" button to continue </p>","0","","","","","","","","","","","","","","","","","","","","","","","","","",""
"true","","","","","fullscreen","179","422268","0.0-3.0-0.0","63e52a02b954da8b899fa1a7","F1","batch6","","","","","spm_fullscreen","","","","","","","","","","","","","","","","","","","","","","","","",""
"","","","","","html-button-response","180","426982","0.0-3.0-1.0","63e52a02b954da8b899fa1a7","F1","batch6","","4712.4000000059605","<p class = block-text><b>Instructions</b> <br>This is a widely used intelligence test in research. <br>In this test, a figure with a missing piece will be presented.<br>Below the figure are alternative pieces to complete the figure, only one of which is correct.<br> Different figures might involve different principles for obtaining the missing piece<br>Your job is to select the most logical piece to complete the figure.</p>","0","","","","","","","","","","","","","","","","","","","","","","","","","",""
"","","","","","html-keyboard-response","181","427792","0.0-3.0-2.0-0.0","63e52a02b954da8b899fa1a7","F1","batch6","","null","<p class=block-text>Trial 1 out of 60</p>","null","spm_show_trial_num","","","","","","","","","","","","","","","","","","","","","","","","",""
"","","","","","image-button-response","182","432830","0.0-3.0-2.0-1.0","63e52a02b954da8b899fa1a7","F1","batch6","","5033.899999991059","img/question_1_1.jpeg","3","spm_respsonse","1","4","mat_01","","","","","","1","5033.899999991059","","","","","","","","","","","","","","",""
"","","","","","html-keyboard-response","183","433895","0.0-3.0-2.0-0.1","63e52a02b954da8b899fa1a7","F1","batch6","","null","<p class=block-text>Trial 2 out of 60</p>","null","spm_show_trial_num","","","","","","","","","","","","","","","","","","","","","","","","",""
"","","","","","image-button-response","184","436049","0.0-3.0-2.0-1.1","63e52a02b954da8b899fa1a7","F1","batch6","","2151.3999999910593","img/question_1_2.jpeg","4","spm_respsonse","1","5","mat_02","","","","","","1","2151.3999999910593","","","","","","","","","","","","","","",""
"","","","","","html-keyboard-response","185","437115","0.0-3.0-2.0-0.2","63e52a02b954da8b899fa1a7","F1","batch6","","null","<p class=block-text>Trial 3 out of 60</p>","null","spm_show_trial_num","","","","","","","","","","","","","","","","","","","","","","","","",""
"","","","","","image-button-response","186","439633","0.0-3.0-2.0-1.2","63e52a02b954da8b899fa1a7","F1","batch6","","2515.2000000029802","img/question_1_3.jpeg","0","spm_respsonse","1","1","mat_03","","","","","","1","2515.2000000029802","","","","","","","","","","","","","","",""
"","","","","","html-keyboard-response","187","440699","0.0-3.0-2.0-0.3","63e52a02b954da8b899fa1a7","F1","batch6","","null","<p class=block-text>Trial 4 out of 60</p>","null","spm_show_trial_num","","","","","","","","","","","","","","","","","","","","","","","","",""
"","","","","","image-button-response","188","446404","0.0-3.0-2.0-1.3","63e52a02b954da8b899fa1a7","F1","batch6","","5701.79999999702","img/question_1_4.jpeg","1","spm_respsonse","1","2","mat_04","","","","","","1","5701.79999999702","","","","","","","","","","","","","","",""
"","","","","","html-keyboard-response","189","447464","0.0-3.0-2.0-0.4","63e52a02b954da8b899fa1a7","F1","batch6","","null","<p class=block-text>Trial 5 out of 60</p>","null","spm_show_trial_num","","","","","","","","","","","","","","","","","","","","","","","","",""
"","","","","","image-button-response","190","451534","0.0-3.0-2.0-1.4","63e52a02b954da8b899fa1a7","F1","batch6","","4066.699999988079","img/question_1_5.jpeg","5","spm_respsonse","1","6","mat_05","","","","","","1","4066.699999988079","","","","","","","","","","","","","","",""
"","","","","","html-keyboard-response","191","452603","0.0-3.0-2.0-0.5","63e52a02b954da8b899fa1a7","F1","batch6","","null","<p class=block-text>Trial 6 out of 60</p>","null","spm_show_trial_num","","","","","","","","","","","","","","","","","","","","","","","","",""
"","","","","","image-button-response","192","455057","0.0-3.0-2.0-1.5","63e52a02b954da8b899fa1a7","F1","batch6","","2451","img/question_1_6.jpeg","2","spm_respsonse","1","3","mat_06","","","","","","1","2451","","","","","","","","","","","","","","",""
"","","","","","html-keyboard-response","193","456120","0.0-3.0-2.0-0.6","63e52a02b954da8b899fa1a7","F1","batch6","","null","<p class=block-text>Trial 7 out of 60</p>","null","spm_show_trial_num","","","","","","","","","","","","","","","","","","","","","","","","",""
"","","","","","image-button-response","194","459287","0.0-3.0-2.0-1.6","63e52a02b954da8b899fa1a7","F1","batch6","","3164.2000000029802","img/question_1_7.jpeg","5","spm_respsonse","1","6","mat_07","","","","","","1","3164.2000000029802","","","","","","","","","","","","","","",""
"","","","","","html-keyboard-response","195","460355","0.0-3.0-2.0-0.7","63e52a02b954da8b899fa1a7","F1","batch6","","null","<p class=block-text>Trial 8 out of 60</p>","null","spm_show_trial_num","","","","","","","","","","","","","","","","","","","","","","","","",""
"","","","","","image-button-response","196","464288","0.0-3.0-2.0-1.7","63e52a02b954da8b899fa1a7","F1","batch6","","3930.3999999910593","img/question_1_8.jpeg","1","spm_respsonse","1","2","mat_08","","","","","","1","3930.3999999910593","","","","","","","","","","","","","","",""
"","","","","","html-keyboard-response","197","465355","0.0-3.0-2.0-0.8","63e52a02b954da8b899fa1a7","F1","batch6","","null","<p class=block-text>Trial 9 out of 60</p>","null","spm_show_trial_num","","","","","","","","","","","","","","","","","","","","","","","","",""
"","","","","","image-button-response","198","469415","0.0-3.0-2.0-1.8","63e52a02b954da8b899fa1a7","F1","batch6","","4056.5999999940395","img/question_1_9.jpeg","0","spm_respsonse","1","1","mat_09","","","","","","1","4056.5999999940395","","","","","","","","","","","","","","",""
"","","","","","html-keyboard-response","199","470483","0.0-3.0-2.0-0.9","63e52a02b954da8b899fa1a7","F1","batch6","","null","<p class=block-text>Trial 10 out of 60</p>","null","spm_show_trial_num","","","","","","","","","","","","","","","","","","","","","","","","",""
"","","","","","image-button-response","200","474489","0.0-3.0-2.0-1.9","63e52a02b954da8b899fa1a7","F1","batch6","","4002.9000000059605","img/question_1_10.jpeg","2","spm_respsonse","1","3","mat_10","","","","","","1","4002.9000000059605","","","","","","","","","","","","","","",""
"","","","","","html-keyboard-response","201","475555","0.0-3.0-2.0-0.10","63e52a02b954da8b899fa1a7","F1","batch6","","null","<p class=block-text>Trial 11 out of 60</p>","null","spm_show_trial_num","","","","","","","","","","","","","","","","","","","","","","","","",""
"","","","","","image-button-response","202","486754","0.0-3.0-2.0-1.10","63e52a02b954da8b899fa1a7","F1","batch6","","11195.89999999106","img/question_1_11.jpeg","3","spm_respsonse","1","4","mat_11","","","","","","1","11195.89999999106","","","","","","","","","","","","","","",""
"","","","","","html-keyboard-response","203","487816","0.0-3.0-2.0-0.11","63e52a02b954da8b899fa1a7","F1","batch6","","null","<p class=block-text>Trial 12 out of 60</p>","null","spm_show_trial_num","","","","","","","","","","","","","","","","","","","","","","","","",""
"","","","","","image-button-response","204","510101","0.0-3.0-2.0-1.11","63e52a02b954da8b899fa1a7","F1","batch6","","22282.29999999702","img/question_1_12.jpeg","4","spm_respsonse","1","5","mat_12","","","","","","1","22282.29999999702","","","","","","","","","","","","","","",""
"","","","","","html-keyboard-response","205","511167","0.0-3.0-2.0-0.12","63e52a02b954da8b899fa1a7","F1","batch6","","null","<p class=block-text>Trial 13 out of 60</p>","null","spm_show_trial_num","","","","","","","","","","","","","","","","","","","","","","","","",""
"","","","","","image-button-response","206","512996","0.0-3.0-2.0-1.12","63e52a02b954da8b899fa1a7","F1","batch6","","1826","img/question_2_1.jpeg","1","spm_respsonse","1","2","mat_13","","","","","","1","1826","","","","","","","","","","","","","","",""
"","","","","","html-keyboard-response","207","514067","0.0-3.0-2.0-0.13","63e52a02b954da8b899fa1a7","F1","batch6","","null","<p class=block-text>Trial 14 out of 60</p>","null","spm_show_trial_num","","","","","","","","","","","","","","","","","","","","","","","","",""
"","","","","","image-button-response","208","517101","0.0-3.0-2.0-1.13","63e52a02b954da8b899fa1a7","F1","batch6","","3030.7999999970198","img/question_2_2.jpeg","5","spm_respsonse","1","6","mat_14","","","","","","1","3030.7999999970198","","","","","","","","","","","","","","",""
"","","","","","html-keyboard-response","209","518170","0.0-3.0-2.0-0.14","63e52a02b954da8b899fa1a7","F1","batch6","","null","<p class=block-text>Trial 15 out of 60</p>","null","spm_show_trial_num","","","","","","","","","","","","","","","","","","","","","","","","",""
"","","","","","image-button-response","210","520300","0.0-3.0-2.0-1.14","63e52a02b954da8b899fa1a7","F1","batch6","","2127.699999988079","img/question_2_3.jpeg","0","spm_respsonse","1","1","mat_15","","","","","","1","2127.699999988079","","","","","","","","","","","","","","",""
"","","","","","html-keyboard-response","211","521369","0.0-3.0-2.0-0.15","63e52a02b954da8b899fa1a7","F1","batch6","","null","<p class=block-text>Trial 16 out of 60</p>","null","spm_show_trial_num","","","","","","","","","","","","","","","","","","","","","","","","",""
"","","","","","image-button-response","212","523548","0.0-3.0-2.0-1.15","63e52a02b954da8b899fa1a7","F1","batch6","","2176","img/question_2_4.jpeg","1","spm_respsonse","1","2","mat_16","","","","","","1","2176","","","","","","","","","","","","","","",""
"","","","","","html-keyboard-response","213","524612","0.0-3.0-2.0-0.16","63e52a02b954da8b899fa1a7","F1","batch6","","null","<p class=block-text>Trial 17 out of 60</p>","null","spm_show_trial_num","","","","","","","","","","","","","","","","","","","","","","","","",""
"","","","","","image-button-response","214","528598","0.0-3.0-2.0-1.16","63e52a02b954da8b899fa1a7","F1","batch6","","3983.7000000029802","img/question_2_5.jpeg","0","spm_respsonse","1","1","mat_17","","","","","","1","3983.7000000029802","","","","","","","","","","","","","","",""
"","","","","","html-keyboard-response","215","529663","0.0-3.0-2.0-0.17","63e52a02b954da8b899fa1a7","F1","batch6","","null","<p class=block-text>Trial 18 out of 60</p>","null","spm_show_trial_num","","","","","","","","","","","","","","","","","","","","","","","","",""
"","","","","","image-button-response","216","533624","0.0-3.0-2.0-1.17","63e52a02b954da8b899fa1a7","F1","batch6","","3959.2000000029802","img/question_2_6.jpeg","2","spm_respsonse","1","3","mat_18","","","","","","1","3959.2000000029802","","","","","","","","","","","","","","",""
"","","","","","html-keyboard-response","217","534689","0.0-3.0-2.0-0.18","63e52a02b954da8b899fa1a7","F1","batch6","","null","<p class=block-text>Trial 19 out of 60</p>","null","spm_show_trial_num","","","","","","","","","","","","","","","","","","","","","","","","",""
"","","","","","image-button-response","218","537638","0.0-3.0-2.0-1.18","63e52a02b954da8b899fa1a7","F1","batch6","","2946","img/question_2_7.jpeg","4","spm_respsonse","1","5","mat_19","","","","","","1","2946","","","","","","","","","","","","","","",""
"","","","","","html-keyboard-response","219","538703","0.0-3.0-2.0-0.19","63e52a02b954da8b899fa1a7","F1","batch6","","null","<p class=block-text>Trial 20 out of 60</p>","null","spm_show_trial_num","","","","","","","","","","","","","","","","","","","","","","","","",""
"","","","","","image-button-response","220","541984","0.0-3.0-2.0-1.19","63e52a02b954da8b899fa1a7","F1","batch6","","3278.2999999970198","img/question_2_8.jpeg","5","spm_respsonse","1","6","mat_20","","","","","","1","3278.2999999970198","","","","","","","","","","","","","","",""
"","","","","","html-keyboard-response","221","543052","0.0-3.0-2.0-0.20","63e52a02b954da8b899fa1a7","F1","batch6","","null","<p class=block-text>Trial 21 out of 60</p>","null","spm_show_trial_num","","","","","","","","","","","","","","","","","","","","","","","","",""
"","","","","","image-button-response","222","546209","0.0-3.0-2.0-1.20","63e52a02b954da8b899fa1a7","F1","batch6","","3154.9000000059605","img/question_2_9.jpeg","3","spm_respsonse","1","4","mat_21","","","","","","1","3154.9000000059605","","","","","","","","","","","","","","",""
"","","","","","html-keyboard-response","223","547272","0.0-3.0-2.0-0.21","63e52a02b954da8b899fa1a7","F1","batch6","","null","<p class=block-text>Trial 22 out of 60</p>","null","spm_show_trial_num","","","","","","","","","","","","","","","","","","","","","","","","",""
"","","","","","image-button-response","224","550365","0.0-3.0-2.0-1.21","63e52a02b954da8b899fa1a7","F1","batch6","","3090.5","img/question_2_10.jpeg","2","spm_respsonse","1","3","mat_22","","","","","","1","3090.5","","","","","","","","","","","","","","",""
"","","","","","html-keyboard-response","225","551435","0.0-3.0-2.0-0.22","63e52a02b954da8b899fa1a7","F1","batch6","","null","<p class=block-text>Trial 23 out of 60</p>","null","spm_show_trial_num","","","","","","","","","","","","","","","","","","","","","","","","",""
"","","","","","image-button-response","226","555924","0.0-3.0-2.0-1.22","63e52a02b954da8b899fa1a7","F1","batch6","","4485.9000000059605","img/question_2_11.jpeg","3","spm_respsonse","1","4","mat_23","","","","","","1","4485.9000000059605","","","","","","","","","","","","","","",""
"","","","","","html-keyboard-response","227","556992","0.0-3.0-2.0-0.23","63e52a02b954da8b899fa1a7","F1","batch6","","null","<p class=block-text>Trial 24 out of 60</p>","null","spm_show_trial_num","","","","","","","","","","","","","","","","","","","","","","","","",""
"","","","","","image-button-response","228","573559","0.0-3.0-2.0-1.23","63e52a02b954da8b899fa1a7","F1","batch6","","16562.90000000596","img/question_2_12.jpeg","4","spm_respsonse","1","5","mat_24","","","","","","1","16562.90000000596","","","","","","","","","","","","","","",""
"","","","","","html-button-response","229","575229","0.0-3.0-3.0","63e52a02b954da8b899fa1a7","F1","batch6","","1408.2999999970198","<p class = block-text>Attention check: Please choose 1<br></p>","0","attention_check","true","","","","","","","","","","","","","","","","","","","","","","","",""
"","","","","","html-keyboard-response","230","576032","0.0-3.0-4.0-0.0","63e52a02b954da8b899fa1a7","F1","batch6","","null","<p class=block-text>Trial 25 out of 60</p>","null","spm_show_trial_num","","","","","","","","","","","","","","","","","","","","","","","","",""
"","","","","","image-button-response","231","582331","0.0-3.0-4.0-1.0","63e52a02b954da8b899fa1a7","F1","batch6","","6295.5","img/question_3_1.jpeg","7","spm_respsonse","1","8","mat_25","","","","","","1","6295.5","","","","","","","","","","","","","","",""
"","","","","","html-keyboard-response","232","583389","0.0-3.0-4.0-0.1","63e52a02b954da8b899fa1a7","F1","batch6","","null","<p class=block-text>Trial 26 out of 60</p>","null","spm_show_trial_num","","","","","","","","","","","","","","","","","","","","","","","","",""
"","","","","","image-button-response","233","588818","0.0-3.0-4.0-1.1","63e52a02b954da8b899fa1a7","F1","batch6","","5425.100000008941","img/question_3_2.jpeg","1","spm_respsonse","1","2","mat_26","","","","","","1","5425.100000008941","","","","","","","","","","","","","","",""
"","","","","","html-keyboard-response","234","589875","0.0-3.0-4.0-0.2","63e52a02b954da8b899fa1a7","F1","batch6","","null","<p class=block-text>Trial 27 out of 60</p>","null","spm_show_trial_num","","","","","","","","","","","","","","","","","","","","","","","","",""
"","","","","","image-button-response","235","595143","0.0-3.0-4.0-1.2","63e52a02b954da8b899fa1a7","F1","batch6","","5264.79999999702","img/question_3_3.jpeg","2","spm_respsonse","1","3","mat_27","","","","","","1","5264.79999999702","","","","","","","","","","","","","","",""
"","","","","","html-keyboard-response","236","596208","0.0-3.0-4.0-0.3","63e52a02b954da8b899fa1a7","F1","batch6","","null","<p class=block-text>Trial 28 out of 60</p>","null","spm_show_trial_num","","","","","","","","","","","","","","","","","","","","","","","","",""
"","","","","","image-button-response","237","602967","0.0-3.0-4.0-1.3","63e52a02b954da8b899fa1a7","F1","batch6","","6756","img/question_3_4.jpeg","7","spm_respsonse","1","8","mat_28","","","","","","1","6756","","","","","","","","","","","","","","",""
"","","","","","html-keyboard-response","238","604032","0.0-3.0-4.0-0.4","63e52a02b954da8b899fa1a7","F1","batch6","","null","<p class=block-text>Trial 29 out of 60</p>","null","spm_show_trial_num","","","","","","","","","","","","","","","","","","","","","","","","",""
"","","","","","image-button-response","239","611832","0.0-3.0-4.0-1.4","63e52a02b954da8b899fa1a7","F1","batch6","","7797.4000000059605","img/question_3_5.jpeg","6","spm_respsonse","1","7","mat_29","","","","","","1","7797.4000000059605","","","","","","","","","","","","","","",""
"","","","","","html-keyboard-response","240","612895","0.0-3.0-4.0-0.5","63e52a02b954da8b899fa1a7","F1","batch6","","null","<p class=block-text>Trial 30 out of 60</p>","null","spm_show_trial_num","","","","","","","","","","","","","","","","","","","","","","","","",""
"","","","","","image-button-response","241","617846","0.0-3.0-4.0-1.5","63e52a02b954da8b899fa1a7","F1","batch6","","4948.70000000298","img/question_3_6.jpeg","3","spm_respsonse","1","4","mat_30","","","","","","1","4948.70000000298","","","","","","","","","","","","","","",""
"","","","","","html-keyboard-response","242","618912","0.0-3.0-4.0-0.6","63e52a02b954da8b899fa1a7","F1","batch6","","null","<p class=block-text>Trial 31 out of 60</p>","null","spm_show_trial_num","","","","","","","","","","","","","","","","","","","","","","","","",""
"","","","","","image-button-response","243","624105","0.0-3.0-4.0-1.6","63e52a02b954da8b899fa1a7","F1","batch6","","5189.79999999702","img/question_3_7.jpeg","4","spm_respsonse","1","5","mat_31","","","","","","1","5189.79999999702","","","","","","","","","","","","","","",""
"","","","","","html-keyboard-response","244","625172","0.0-3.0-4.0-0.7","63e52a02b954da8b899fa1a7","F1","batch6","","null","<p class=block-text>Trial 32 out of 60</p>","null","spm_show_trial_num","","","","","","","","","","","","","","","","","","","","","","","","",""
"","","","","","image-button-response","245","660453","0.0-3.0-4.0-1.7","63e52a02b954da8b899fa1a7","F1","batch6","","35278.29999999702","img/question_3_8.jpeg","0","spm_respsonse","1","1","mat_32","","","","","","1","35278.29999999702","","","","","","","","","","","","","","",""
"","","","","","html-keyboard-response","246","661523","0.0-3.0-4.0-0.8","63e52a02b954da8b899fa1a7","F1","batch6","","null","<p class=block-text>Trial 33 out of 60</p>","null","spm_show_trial_num","","","","","","","","","","","","","","","","","","","","","","","","",""
"","","","","","image-button-response","247","667873","0.0-3.0-4.0-1.8","63e52a02b954da8b899fa1a7","F1","batch6","","6346.20000000298","img/question_3_9.jpeg","6","spm_respsonse","1","7","mat_33","","","","","","1","6346.20000000298","","","","","","","","","","","","","","",""
"","","","","","html-keyboard-response","248","668936","0.0-3.0-4.0-0.9","63e52a02b954da8b899fa1a7","F1","batch6","","null","<p class=block-text>Trial 34 out of 60</p>","null","spm_show_trial_num","","","","","","","","","","","","","","","","","","","","","","","","",""
"","","","","","image-button-response","249","697994","0.0-3.0-4.0-1.9","63e52a02b954da8b899fa1a7","F1","batch6","","29054.39999999106","img/question_3_10.jpeg","7","spm_respsonse","0","6","mat_34","","","","","","0","29054.39999999106","","","","","","","","","","","","","","",""
"","","","","","html-keyboard-response","250","699059","0.0-3.0-4.0-0.10","63e52a02b954da8b899fa1a7","F1","batch6","","null","<p class=block-text>Trial 35 out of 60</p>","null","spm_show_trial_num","","","","","","","","","","","","","","","","","","","","","","","","",""
"","","","","","image-button-response","251","710423","0.0-3.0-4.0-1.10","63e52a02b954da8b899fa1a7","F1","batch6","","11361.10000000894","img/question_3_11.jpeg","0","spm_respsonse","1","1","mat_35","","","","","","1","11361.10000000894","","","","","","","","","","","","","","",""
"","","","","","html-keyboard-response","252","711491","0.0-3.0-4.0-0.11","63e52a02b954da8b899fa1a7","F1","batch6","","null","<p class=block-text>Trial 36 out of 60</p>","null","spm_show_trial_num","","","","","","","","","","","","","","","","","","","","","","","","",""
"","","","","","image-button-response","253","764678","0.0-3.0-4.0-1.11","63e52a02b954da8b899fa1a7","F1","batch6","","53184","img/question_3_12.jpeg","1","spm_respsonse","1","2","mat_36","","","","","","1","53184","","","","","","","","","","","","","","",""
"","","","","","html-keyboard-response","254","765744","0.0-3.0-4.0-0.12","63e52a02b954da8b899fa1a7","F1","batch6","","null","<p class=block-text>Trial 37 out of 60</p>","null","spm_show_trial_num","","","","","","","","","","","","","","","","","","","","","","","","",""
"","","","","","image-button-response","255","768072","0.0-3.0-4.0-1.12","63e52a02b954da8b899fa1a7","F1","batch6","","2324","img/question_4_1.jpeg","2","spm_respsonse","1","3","mat_37","","","","","","1","2324","","","","","","","","","","","","","","",""
"","","","","","html-keyboard-response","256","769139","0.0-3.0-4.0-0.13","63e52a02b954da8b899fa1a7","F1","batch6","","null","<p class=block-text>Trial 38 out of 60</p>","null","spm_show_trial_num","","","","","","","","","","","","","","","","","","","","","","","","",""
"","","","","","image-button-response","257","775123","0.0-3.0-4.0-1.13","63e52a02b954da8b899fa1a7","F1","batch6","","5980.4000000059605","img/question_4_2.jpeg","3","spm_respsonse","1","4","mat_38","","","","","","1","5980.4000000059605","","","","","","","","","","","","","","",""
"","","","","","html-keyboard-response","258","776183","0.0-3.0-4.0-0.14","63e52a02b954da8b899fa1a7","F1","batch6","","null","<p class=block-text>Trial 39 out of 60</p>","null","spm_show_trial_num","","","","","","","","","","","","","","","","","","","","","","","","",""
"","","","","","image-button-response","259","779721","0.0-3.0-4.0-1.14","63e52a02b954da8b899fa1a7","F1","batch6","","3534.4000000059605","img/question_4_3.jpeg","2","spm_respsonse","1","3","mat_39","","","","","","1","3534.4000000059605","","","","","","","","","","","","","","",""
"","","","","","html-keyboard-response","260","780784","0.0-3.0-4.0-0.15","63e52a02b954da8b899fa1a7","F1","batch6","","null","<p class=block-text>Trial 40 out of 60</p>","null","spm_show_trial_num","","","","","","","","","","","","","","","","","","","","","","","","",""
"","","","","","image-button-response","261","787602","0.0-3.0-4.0-1.15","63e52a02b954da8b899fa1a7","F1","batch6","","6815.0999999940395","img/question_4_4.jpeg","6","spm_respsonse","1","7","mat_40","","","","","","1","6815.0999999940395","","","","","","","","","","","","","","",""
"","","","","","html-keyboard-response","262","788664","0.0-3.0-4.0-0.16","63e52a02b954da8b899fa1a7","F1","batch6","","null","<p class=block-text>Trial 41 out of 60</p>","null","spm_show_trial_num","","","","","","","","","","","","","","","","","","","","","","","","",""
"","","","","","image-button-response","263","793669","0.0-3.0-4.0-1.16","63e52a02b954da8b899fa1a7","F1","batch6","","5001.20000000298","img/question_4_5.jpeg","7","spm_respsonse","1","8","mat_41","","","","","","1","5001.20000000298","","","","","","","","","","","","","","",""
"","","","","","html-keyboard-response","264","794736","0.0-3.0-4.0-0.17","63e52a02b954da8b899fa1a7","F1","batch6","","null","<p class=block-text>Trial 42 out of 60</p>","null","spm_show_trial_num","","","","","","","","","","","","","","","","","","","","","","","","",""
"","","","","","image-button-response","265","802920","0.0-3.0-4.0-1.17","63e52a02b954da8b899fa1a7","F1","batch6","","8181","img/question_4_6.jpeg","5","spm_respsonse","1","6","mat_42","","","","","","1","8181","","","","","","","","","","","","","","",""
"","","","","","html-keyboard-response","266","803986","0.0-3.0-4.0-0.18","63e52a02b954da8b899fa1a7","F1","batch6","","null","<p class=block-text>Trial 43 out of 60</p>","null","spm_show_trial_num","","","","","","","","","","","","","","","","","","","","","","","","",""
"","","","","","image-button-response","267","813324","0.0-3.0-4.0-1.18","63e52a02b954da8b899fa1a7","F1","batch6","","9334.90000000596","img/question_4_7.jpeg","4","spm_respsonse","1","5","mat_43","","","","","","1","9334.90000000596","","","","","","","","","","","","","","",""
"","","","","","html-keyboard-response","268","814388","0.0-3.0-4.0-0.19","63e52a02b954da8b899fa1a7","F1","batch6","","null","<p class=block-text>Trial 44 out of 60</p>","null","spm_show_trial_num","","","","","","","","","","","","","","","","","","","","","","","","",""
"","","","","","image-button-response","269","819027","0.0-3.0-4.0-1.19","63e52a02b954da8b899fa1a7","F1","batch6","","4636.0999999940395","img/question_4_8.jpeg","3","spm_respsonse","1","4","mat_44","","","","","","1","4636.0999999940395","","","","","","","","","","","","","","",""
"","","","","","html-keyboard-response","270","820091","0.0-3.0-4.0-0.20","63e52a02b954da8b899fa1a7","F1","batch6","","null","<p class=block-text>Trial 45 out of 60</p>","null","spm_show_trial_num","","","","","","","","","","","","","","","","","","","","","","","","",""
"","","","","","image-button-response","271","833678","0.0-3.0-4.0-1.20","63e52a02b954da8b899fa1a7","F1","batch6","","13584.20000000298","img/question_4_9.jpeg","0","spm_respsonse","1","1","mat_45","","","","","","1","13584.20000000298","","","","","","","","","","","","","","",""
"","","","","","html-keyboard-response","272","834748","0.0-3.0-4.0-0.21","63e52a02b954da8b899fa1a7","F1","batch6","","null","<p class=block-text>Trial 46 out of 60</p>","null","spm_show_trial_num","","","","","","","","","","","","","","","","","","","","","","","","",""
"","","","","","image-button-response","273","871301","0.0-3.0-4.0-1.21","63e52a02b954da8b899fa1a7","F1","batch6","","36549.5","img/question_4_10.jpeg","1","spm_respsonse","1","2","mat_46","","","","","","1","36549.5","","","","","","","","","","","","","","",""
"","","","","","html-keyboard-response","274","872371","0.0-3.0-4.0-0.22","63e52a02b954da8b899fa1a7","F1","batch6","","null","<p class=block-text>Trial 47 out of 60</p>","null","spm_show_trial_num","","","","","","","","","","","","","","","","","","","","","","","","",""
"","","","","","image-button-response","275","904885","0.0-3.0-4.0-1.22","63e52a02b954da8b899fa1a7","F1","batch6","","32510.90000000596","img/question_4_11.jpeg","4","spm_respsonse","1","5","mat_47","","","","","","1","32510.90000000596","","","","","","","","","","","","","","",""
"","","","","","html-keyboard-response","276","905952","0.0-3.0-4.0-0.23","63e52a02b954da8b899fa1a7","F1","batch6","","null","<p class=block-text>Trial 48 out of 60</p>","null","spm_show_trial_num","","","","","","","","","","","","","","","","","","","","","","","","",""
"","","","","","image-button-response","277","955401","0.0-3.0-4.0-1.23","63e52a02b954da8b899fa1a7","F1","batch6","","49445.5","img/question_4_12.jpeg","5","spm_respsonse","1","6","mat_48","","","","","","1","49445.5","","","","","","","","","","","","","","",""
"","","","","","html-keyboard-response","278","956466","0.0-3.0-4.0-0.24","63e52a02b954da8b899fa1a7","F1","batch6","","null","<p class=block-text>Trial 49 out of 60</p>","null","spm_show_trial_num","","","","","","","","","","","","","","","","","","","","","","","","",""
"","","","","","image-button-response","279","1038652","0.0-3.0-4.0-1.24","63e52a02b954da8b899fa1a7","F1","batch6","","82183.09999999404","img/question_5_1.jpeg","6","spm_respsonse","1","7","mat_49","","","","","","1","82183.09999999404","","","","","","","","","","","","","","",""
"","","","","","html-keyboard-response","280","1039721","0.0-3.0-4.0-0.25","63e52a02b954da8b899fa1a7","F1","batch6","","null","<p class=block-text>Trial 50 out of 60</p>","null","spm_show_trial_num","","","","","","","","","","","","","","","","","","","","","","","","",""
"","","","","","image-button-response","281","1050006","0.0-3.0-4.0-1.25","63e52a02b954da8b899fa1a7","F1","batch6","","10279","img/question_5_2.jpeg","5","spm_respsonse","1","6","mat_50","","","","","","1","10279","","","","","","","","","","","","","","",""
"","","","","","html-keyboard-response","282","1051064","0.0-3.0-4.0-0.26","63e52a02b954da8b899fa1a7","F1","batch6","","null","<p class=block-text>Trial 51 out of 60</p>","null","spm_show_trial_num","","","","","","","","","","","","","","","","","","","","","","","","",""
"","","","","","image-button-response","283","1061474","0.0-3.0-4.0-1.26","63e52a02b954da8b899fa1a7","F1","batch6","","10406.5","img/question_5_3.jpeg","7","spm_respsonse","1","8","mat_51","","","","","","1","10406.5","","","","","","","","","","","","","","",""
"","","","","","html-keyboard-response","284","1062535","0.0-3.0-4.0-0.27","63e52a02b954da8b899fa1a7","F1","batch6","","null","<p class=block-text>Trial 52 out of 60</p>","null","spm_show_trial_num","","","","","","","","","","","","","","","","","","","","","","","","",""
"","","","","","image-button-response","285","1072973","0.0-3.0-4.0-1.27","63e52a02b954da8b899fa1a7","F1","batch6","","10435.199999988079","img/question_5_4.jpeg","1","spm_respsonse","1","2","mat_52","","","","","","1","10435.199999988079","","","","","","","","","","","","","","",""
"","","","","","html-keyboard-response","286","1074039","0.0-3.0-4.0-0.28","63e52a02b954da8b899fa1a7","F1","batch6","","null","<p class=block-text>Trial 53 out of 60</p>","null","spm_show_trial_num","","","","","","","","","","","","","","","","","","","","","","","","",""
"","","","","","image-button-response","287","1085952","0.0-3.0-4.0-1.28","63e52a02b954da8b899fa1a7","F1","batch6","","11910.20000000298","img/question_5_5.jpeg","0","spm_respsonse","1","1","mat_53","","","","","","1","11910.20000000298","","","","","","","","","","","","","","",""
"","","","","","html-keyboard-response","288","1087019","0.0-3.0-4.0-0.29","63e52a02b954da8b899fa1a7","F1","batch6","","null","<p class=block-text>Trial 54 out of 60</p>","null","spm_show_trial_num","","","","","","","","","","","","","","","","","","","","","","","","",""
"","","","","","image-button-response","289","1095294","0.0-3.0-4.0-1.29","63e52a02b954da8b899fa1a7","F1","batch6","","8271.60000000894","img/question_5_6.jpeg","4","spm_respsonse","1","5","mat_54","","","","","","1","8271.60000000894","","","","","","","","","","","","","","",""
"","","","","","html-keyboard-response","290","1096358","0.0-3.0-4.0-0.30","63e52a02b954da8b899fa1a7","F1","batch6","","null","<p class=block-text>Trial 55 out of 60</p>","null","spm_show_trial_num","","","","","","","","","","","","","","","","","","","","","","","","",""
"","","","","","image-button-response","291","1109807","0.0-3.0-4.0-1.30","63e52a02b954da8b899fa1a7","F1","batch6","","13445.90000000596","img/question_5_7.jpeg","0","spm_respsonse","1","1","mat_55","","","","","","1","13445.90000000596","","","","","","","","","","","","","","",""
"","","","","","html-keyboard-response","292","1110875","0.0-3.0-4.0-0.31","63e52a02b954da8b899fa1a7","F1","batch6","","null","<p class=block-text>Trial 56 out of 60</p>","null","spm_show_trial_num","","","","","","","","","","","","","","","","","","","","","","","","",""
"","","","","","image-button-response","293","1140024","0.0-3.0-4.0-1.31","63e52a02b954da8b899fa1a7","F1","batch6","","29145.90000000596","img/question_5_8.jpeg","5","spm_respsonse","1","6","mat_56","","","","","","1","29145.90000000596","","","","","","","","","","","","","","",""
"","","","","","html-keyboard-response","294","1141080","0.0-3.0-4.0-0.32","63e52a02b954da8b899fa1a7","F1","batch6","","null","<p class=block-text>Trial 57 out of 60</p>","null","spm_show_trial_num","","","","","","","","","","","","","","","","","","","","","","","","",""
"","","","","","image-button-response","295","1169120","0.0-3.0-4.0-1.32","63e52a02b954da8b899fa1a7","F1","batch6","","28036.09999999404","img/question_5_9.jpeg","3","spm_respsonse","0","3","mat_57","","","","","","0","28036.09999999404","","","","","","","","","","","","","","",""
"","","","","","html-keyboard-response","296","1170184","0.0-3.0-4.0-0.33","63e52a02b954da8b899fa1a7","F1","batch6","","null","<p class=block-text>Trial 58 out of 60</p>","null","spm_show_trial_num","","","","","","","","","","","","","","","","","","","","","","","","",""
"","","","","","image-button-response","297","1245884","0.0-3.0-4.0-1.33","63e52a02b954da8b899fa1a7","F1","batch6","","75697.29999999702","img/question_5_10.jpeg","6","spm_respsonse","0","2","mat_58","","","","","","0","75697.29999999702","","","","","","","","","","","","","","",""
"","","","","","html-keyboard-response","298","1246944","0.0-3.0-4.0-0.34","63e52a02b954da8b899fa1a7","F1","batch6","","null","<p class=block-text>Trial 59 out of 60</p>","null","spm_show_trial_num","","","","","","","","","","","","","","","","","","","","","","","","",""
"","","","","","image-button-response","299","1275181","0.0-3.0-4.0-1.34","63e52a02b954da8b899fa1a7","F1","batch6","","28231.20000000298","img/question_5_11.jpeg","6","spm_respsonse","0","4","mat_59","","","","","","0","28231.20000000298","","","","","","","","","","","","","","",""
"","","","","","html-keyboard-response","300","1276251","0.0-3.0-4.0-0.35","63e52a02b954da8b899fa1a7","F1","batch6","","null","<p class=block-text>Trial 60 out of 60</p>","null","spm_show_trial_num","","","","","","","","","","","","","","","","","","","","","","","","",""
"","","","","","image-button-response","301","1292194","0.0-3.0-4.0-1.35","63e52a02b954da8b899fa1a7","F1","batch6","","15939.5","img/question_5_12.jpeg","5","spm_respsonse","0","5","mat_60","","","","","","0","15939.5","","","","","","","","","","","","","","",""
"","","","","","html-button-response","302","1294095","0.0-3.0-5.0","63e52a02b954da8b899fa1a7","F1","batch6","","1645.7999999970198","<p class= block-text>This concludes the Standard Progressive Matrix game. Thank you for your responses!<br> When you are ready, click the button continue</p>","0","spm_goodbye","","","","","","","","","","","","","","","","","","","","","","","","",""
"true","","","","","fullscreen","303","1296112","0.0-4.0-0.0","63e52a02b954da8b899fa1a7","F1","batch6","","","","","","","","","","","","","","","","","","","","","","","","","","","","","",""
"","","","","","instructions","304","1413308","0.0-4.0-1.0-0.0-0.0","63e52a02b954da8b899fa1a7","F1","batch6","[{""page_index"":0,""viewing_time"":98193.90000000596},{""page_index"":1,""viewing_time"":2662.0999999940395},{""page_index"":2,""viewing_time"":1729.2000000029802},{""page_index"":3,""viewing_time"":5667.29999999702},{""page_index"":4,""viewing_time"":2582.7000000029802},{""page_index"":5,""viewing_time"":4842.0999999940395},{""page_index"":6,""viewing_time"":1517.4000000059605}]","117195.09999999404","","","tol-instructions","","","","","","","","","","","","","","","","","","","","","","","","",""
"","","","","","html-button-response","305","1414076","0.0-4.0-1.0-1.0-0.0","63e52a02b954da8b899fa1a7","F1","batch6","","766.5","<p class=block-text> Let's answer a few questions <br>","0","tol_enter_quiz","","","","","","","","","","","","","","","","","","","","","","","","",""
"","","","","","html-button-response","306","1417365","0.0-4.0-1.0-1.0-1.0","63e52a02b954da8b899fa1a7","F1","batch6","","3284.7999999970198","<p class = block-text>True or False: You can only move the ball on top of a peg. <br></p>","0","tol_quiz","true","","","","","","","","","","","","","","","","","","","","","","","",""
"","","","","","html-button-response","307","1418062","0.0-4.0-1.0-1.0-2.0","63e52a02b954da8b899fa1a7","F1","batch6","","694.7000000029802","<p class = block-text>Correct! You can only move the ball on top of a peg.</p>","0","tol_quiz_feedback","","","","","","","","","","","","","","","","","","","","","","","","",""
"","","","","","html-button-response","308","1419583","0.0-4.0-1.0-1.0-3.0","63e52a02b954da8b899fa1a7","F1","batch6","","1520","<p class = block-text>True or False: You should try to match your board with the target board with fewest moves possible. <br></p>","0","tol_quiz","true","","","","","","","","","","","","","","","","","","","","","","","",""
"","","","","","html-button-response","309","1420072","0.0-4.0-1.0-1.0-4.0","63e52a02b954da8b899fa1a7","F1","batch6","","486.8999999910593","<p class = block-text>Correct! </p>","0","tol_quiz_feedback","","","","","","","","","","","","","","","","","","","","","","","","",""
"","","","","","html-button-response","310","1420937","0.0-4.0-2.0","63e52a02b954da8b899fa1a7","F1","batch6","","862.7000000029802","<p class=block-text> Now that you've understood the game, let's practice a few easier examples before we start!<br> <br>","0","","","","","","","","","","","","","","","","","","","","","","","","","",""
"","","","","","single-stim-button","311","1422867","0.0-4.0-3.0-0.0","63e52a02b954da8b899fa1a7","F1","batch6","","1927","","","tol_practice","","","","","","","","","","","tol_peg_2","1927","1927","0","[[1,2,0],[0,0],[0]]","1","[[1,2,0],[0,0],[3]]","practice","1927","","","","","",""
"","","","","","single-stim-button","312","1423504","0.0-4.0-3.0-1.0","63e52a02b954da8b899fa1a7","F1","batch6","","636","","","tol_practice","","","","","","","","","","","tol_peg_3","636","636","0","[[1,2,0],[0,0],[3]]","1","[[1,2,0],[0,0],[3]]","practice","636","","","","","",""
"","","","","","poldrack-single-stim","313","1424511","0.0-4.0-4.0","63e52a02b954da8b899fa1a7","F1","batch6","","-1","","","tol_feedback","true","","","","","","","","","","","1000","1000","500","","","","","","-1","none","true","","0",""
"","","","","","single-stim-button","314","1427385","0.0-4.0-5.0-0.0","63e52a02b954da8b899fa1a7","F1","batch6","","2873","","","tol_practice","","","","","","","","","","","tol_peg_1","2873","2873","0","[[1,0,0],[3,0],[0]]","2","[[0,0,0],[3,1],[2]]","practice","2873","","","","","",""
"","","","","","single-stim-button","315","1428033","0.0-4.0-5.0-1.0","63e52a02b954da8b899fa1a7","F1","batch6","","646","","","tol_practice","","","","","","","","","","","tol_peg_3","646","646","0","[[1,0,0],[3,0],[2]]","2","[[0,0,0],[3,1],[2]]","practice","646","","","","","",""
"","","","","","single-stim-button","316","1428586","0.0-4.0-5.1-0.1","63e52a02b954da8b899fa1a7","F1","batch6","","553","","","tol_practice","","","","","","","","","","","tol_peg_1","553","553","0","[[0,0,0],[3,0],[2]]","3","[[0,0,0],[3,1],[2]]","practice","553","","","","","",""
"","","","","","single-stim-button","317","1429107","0.0-4.0-5.1-1.1","63e52a02b954da8b899fa1a7","F1","batch6","","519","","","tol_practice","","","","","","","","","","","tol_peg_2","519","519","0","[[0,0,0],[3,1],[2]]","3","[[0,0,0],[3,1],[2]]","practice","519","","","","","",""
"","","","","","poldrack-single-stim","318","1430116","0.0-4.0-6.0","63e52a02b954da8b899fa1a7","F1","batch6","","-1","","","tol_feedback","true","","","","","","","","","","","1000","1000","500","","","","","","-1","none","true","","0",""
"","","","","","single-stim-button","319","1432390","0.0-4.0-7.0-0.0","63e52a02b954da8b899fa1a7","F1","batch6","","2274","","","tol_practice","","","","","","","","","","","tol_peg_2","2274","2274","0","[[1,2,0],[0,0],[0]]","4","[[1,0,0],[2,0],[3]]","practice","2274","","","","","",""
"","","","","","single-stim-button","320","1433152","0.0-4.0-7.0-1.0","63e52a02b954da8b899fa1a7","F1","batch6","","760","","","tol_practice","","","","","","","","","","","tol_peg_3","760","760","0","[[1,2,0],[0,0],[3]]","4","[[1,0,0],[2,0],[3]]","practice","760","","","","","",""
"","","","","","single-stim-button","321","1433749","0.0-4.0-7.1-0.1","63e52a02b954da8b899fa1a7","F1","batch6","","596","","","tol_practice","","","","","","","","","","","tol_peg_1","596","596","0","[[1,0,0],[0,0],[3]]","5","[[1,0,0],[2,0],[3]]","practice","596","","","","","",""
"","","","","","single-stim-button","322","1434333","0.0-4.0-7.1-1.1","63e52a02b954da8b899fa1a7","F1","batch6","","584","","","tol_practice","","","","","","","","","","","tol_peg_2","584","584","0","[[1,0,0],[2,0],[3]]","5","[[1,0,0],[2,0],[3]]","practice","584","","","","","",""
"","","","","","poldrack-single-stim","323","1435339","0.0-4.0-8.0","63e52a02b954da8b899fa1a7","F1","batch6","","-1","","","tol_feedback","true","","","","","","","","","","","1000","1000","500","","","","","","-1","none","true","","0",""
"","","","","","html-button-response","324","1436711","0.0-4.0-9.0","63e52a02b954da8b899fa1a7","F1","batch6","","1370.5","<div class = centerbox><p class = center-block-text>Great job! You are done with practice trials<br>You are about to start official trials.<br> <br> Problem <strong>1</strong> out of 25 problems</p></div>","0","tol_instruction","","","","","","","","","","","","","","","","","","","","","","","","",""
"","","","","","single-stim-button","325","1441885","0.0-4.0-10.0-0.0","63e52a02b954da8b899fa1a7","F1","batch6","","4163","","","tol_tohand","","","","","","","","","","","tol_peg_1","4163","4163","0","[[1,0,0],[3,0],[0]]","1","[[1,3,0],[2,0],[0]]","0","0","","","","","","3"
"","","","","","single-stim-button","326","1442621","0.0-4.0-10.0-1.0","63e52a02b954da8b899fa1a7","F1","batch6","","735","","","tol_toboard","","","","","","","","","","","tol_peg_3","735","735","0","[[1,0,0],[3,0],[2]]","1","[[1,3,0],[2,0],[0]]","0","0","","","","","","3"
"","","","","","single-stim-button","327","1443094","0.0-4.0-10.1-0.1","63e52a02b954da8b899fa1a7","F1","batch6","","472","","","tol_tohand","","","","","","","","","","","tol_peg_2","472","472","0","[[1,0,0],[0,0],[2]]","2","[[1,3,0],[2,0],[0]]","0","0","","","","","","3"
"","","","","","single-stim-button","328","1443694","0.0-4.0-10.1-1.1","63e52a02b954da8b899fa1a7","F1","batch6","","599","","","tol_toboard","","","","","","","","","","","tol_peg_1","599","599","0","[[1,3,0],[0,0],[2]]","2","[[1,3,0],[2,0],[0]]","0","0","","","","","","3"
"","","","","","single-stim-button","329","1444343","0.0-4.0-10.2-0.2","63e52a02b954da8b899fa1a7","F1","batch6","","648","","","tol_tohand","","","","","","","","","","","tol_peg_3","648","648","0","[[1,3,0],[0,0],[0]]","3","[[1,3,0],[2,0],[0]]","0","0","","","","","","3"
"","","","","","single-stim-button","330","1445264","0.0-4.0-10.2-1.2","63e52a02b954da8b899fa1a7","F1","batch6","","920","","","tol_toboard","","","","","","","","","","","tol_peg_2","920","920","0","[[1,3,0],[2,0],[0]]","3","[[1,3,0],[2,0],[0]]","0","0","","","","","","3"
"","","","","","poldrack-single-stim","331","1446273","0.0-4.0-11.0","63e52a02b954da8b899fa1a7","F1","batch6","","-1","","","tol_feedback","true","","","","","","","","","","","1000","1000","500","","","","","","-1","none","true","4163","5283",""
"","","","","","html-button-response","332","1447174","0.0-4.0-12.0","63e52a02b954da8b899fa1a7","F1","batch6","","899.3999999910593","<div class = centerbox><p class = center-block-text>problem <strong>2</strong> out of 25 problems</p></div>","0","tol_trial_num","","","","","","","","","","","","","","","","","","","","","","","","",""
"","","","","","single-stim-button","333","1547288","0.0-4.0-13.0-0.0","63e52a02b954da8b899fa1a7","F1","batch6","","100112","","","tol_tohand","","","","","","","","","","","tol_peg_1","100112","100112","0","[[1,0,0],[3,0],[0]]","1","[[2,1,3],[0,0],[0]]","1","0","","","","","","5"
"","","","","","single-stim-button","334","1548129","0.0-4.0-13.0-1.0","63e52a02b954da8b899fa1a7","F1","batch6","","839","","","tol_toboard","","","","","","","","","","","tol_peg_3","839","839","0","[[1,0,0],[3,0],[2]]","1","[[2,1,3],[0,0],[0]]","1","0","","","","","","5"
"","","","","","single-stim-button","335","1548673","0.0-4.0-13.1-0.1","63e52a02b954da8b899fa1a7","F1","batch6","","544","","","tol_tohand","","","","","","","","","","","tol_peg_1","544","544","0","[[0,0,0],[3,0],[2]]","2","[[2,1,3],[0,0],[0]]","1","0","","","","","","5"
"","","","","","single-stim-button","336","1549294","0.0-4.0-13.1-1.1","63e52a02b954da8b899fa1a7","F1","batch6","","619","","","tol_toboard","","","","","","","","","","","tol_peg_2","619","619","0","[[0,0,0],[3,1],[2]]","2","[[2,1,3],[0,0],[0]]","1","0","","","","","","5"
"","","","","","single-stim-button","337","1549750","0.0-4.0-13.2-0.2","63e52a02b954da8b899fa1a7","F1","batch6","","455","","","tol_tohand","","","","","","","","","","","tol_peg_3","455","455","0","[[0,0,0],[3,1],[0]]","3","[[2,1,3],[0,0],[0]]","1","0","","","","","","5"
"","","","","","single-stim-button","338","1550503","0.0-4.0-13.2-1.2","63e52a02b954da8b899fa1a7","F1","batch6","","752","","","tol_toboard","","","","","","","","","","","tol_peg_1","752","752","0","[[2,0,0],[3,1],[0]]","3","[[2,1,3],[0,0],[0]]","1","0","","","","","","5"
"","","","","","single-stim-button","339","1550952","0.0-4.0-13.3-0.3","63e52a02b954da8b899fa1a7","F1","batch6","","447","","","tol_tohand","","","","","","","","","","","tol_peg_2","447","447","0","[[2,0,0],[3,0],[0]]","4","[[2,1,3],[0,0],[0]]","1","0","","","","","","5"
"","","","","","single-stim-button","340","1551480","0.0-4.0-13.3-1.3","63e52a02b954da8b899fa1a7","F1","batch6","","528","","","tol_toboard","","","","","","","","","","","tol_peg_1","528","528","0","[[2,1,0],[3,0],[0]]","4","[[2,1,3],[0,0],[0]]","1","0","","","","","","5"
"","","","","","single-stim-button","341","1551968","0.0-4.0-13.4-0.4","63e52a02b954da8b899fa1a7","F1","batch6","","487","","","tol_tohand","","","","","","","","","","","tol_peg_2","487","487","0","[[2,1,0],[0,0],[0]]","5","[[2,1,3],[0,0],[0]]","1","0","","","","","","5"
"","","","","","single-stim-button","342","1552521","0.0-4.0-13.4-1.4","63e52a02b954da8b899fa1a7","F1","batch6","","552","","","tol_toboard","","","","","","","","","","","tol_peg_1","552","552","0","[[2,1,3],[0,0],[0]]","5","[[2,1,3],[0,0],[0]]","1","0","","","","","","5"
"","","","","","poldrack-single-stim","343","1553532","0.0-4.0-14.0","63e52a02b954da8b899fa1a7","F1","batch6","","-1","","","tol_feedback","true","","","","","","","","","","","1000","1000","500","","","","","","-1","none","true","100112","102045",""
"","","","","","html-button-response","344","1554391","0.0-4.0-15.0","63e52a02b954da8b899fa1a7","F1","batch6","","858.0999999940395","<div class = centerbox><p class = center-block-text>problem <strong>3</strong> out of 25 problems</p></div>","0","tol_trial_num","","","","","","","","","","","","","","","","","","","","","","","","",""
"","","","","","single-stim-button","345","1587772","0.0-4.0-16.0-0.0","63e52a02b954da8b899fa1a7","F1","batch6","","33379","","","tol_tohand","","","","","","","","","","","tol_peg_1","33379","33379","0","[[2,0,0],[0,0],[1]]","1","[[1,2,0],[3,0],[0]]","2","0","","","","","","4"
"","","","","","single-stim-button","346","1588317","0.0-4.0-16.0-1.0","63e52a02b954da8b899fa1a7","F1","batch6","","543","","","tol_toboard","","","","","","","","","","","tol_peg_2","543","543","0","[[2,0,0],[3,0],[1]]","1","[[1,2,0],[3,0],[0]]","2","0","","","","","","4"
"","","","","","single-stim-button","347","1588780","0.0-4.0-16.1-0.1","63e52a02b954da8b899fa1a7","F1","batch6","","462","","","tol_tohand","","","","","","","","","","","tol_peg_1","462","462","0","[[0,0,0],[3,0],[1]]","2","[[1,2,0],[3,0],[0]]","2","0","","","","","","4"
"","","","","","single-stim-button","348","1589461","0.0-4.0-16.1-1.1","63e52a02b954da8b899fa1a7","F1","batch6","","679","","","tol_toboard","","","","","","","","","","","tol_peg_2","679","679","0","[[0,0,0],[3,2],[1]]","2","[[1,2,0],[3,0],[0]]","2","0","","","","","","4"
