"success","timeout","failed_images","failed_audio","failed_video","trial_type","trial_index","time_elapsed","internal_node_id","subject_id","study_id","session_id","view_history","rt","stimulus","response","task","correct","answer","item","fiar_detect_rt","fiar_detect_correct","total_correct_fiar_detect","post_trial_gap","choices","spm_correct","spm_rt","mouse_click","stim_duration","block_duration","timing_post_trial","current_position","tol_num_moves_made","tol_target","tol_problem_id","tol_rt","key_press","possible_responses","tol_correct","preplanning","tol_rt_per_trial","tol_min_moves"
"true","false","[]","[]","[]","preload","0","4014","0.0-0.0","63e52076fc677ee3ccce9a4d","C3","batch3","","","","","","","","","","","","","","","","","","","","","","","","","","","","","",""
"true","","","","","fullscreen","1","17140","0.0-1.0-0.0","63e52076fc677ee3ccce9a4d","C3","batch3","","","","","","","","","","","","","","","","","","","","","","","","","","","","","",""
"true","","","","","fullscreen","2","22271","0.0-2.0-0.0","63e52076fc677ee3ccce9a4d","C3","batch3","","","","","","","","","","","","","","","","","","","","","","","","","","","","","",""
"","","","","","instructions","3","40465","0.0-2.0-1.0-0.0","63e52076fc677ee3ccce9a4d","C3","batch3","[{""page_index"":0,""viewing_time"":10748.5},{""page_index"":1,""viewing_time"":7444.100000023842}]","18192.80000001192","","","","","","","","","","","","","","","","","","","","","","","","","","","",""
"","","","","","html-button-response","4","42183","0.0-2.0-1.0-1.0-0.0","63e52076fc677ee3ccce9a4d","C3","batch3","","1717.3999999761581","<p class=block-text> Let's answer a few questions <br>","0","pattern_enter_quiz","","","","","","","","","","","","","","","","","","","","","","","","",""
"","","","","","html-button-response","5","47709","0.0-2.0-1.0-1.0-1.0","63e52076fc677ee3ccce9a4d","C3","batch3","","5525.200000047684","<p class = block-text>True or False: You will have as much time as you want to make each choice. <br></p>","0","pattern_quiz","false","","","","","","","","","","","","","","","","","","","","","","","",""
"","","","","","html-button-response","6","49251","0.0-2.0-1.0-1.0-2.0","63e52076fc677ee3ccce9a4d","C3","batch3","","1541.4000000357628","<p class = block-text>Incorrect. Remember, You should make your choice as fast as you can.</p>","0","pattern_quiz_feedback","","","","","","","","","","","","","","","","","","","","","","","","",""
"","","","","","html-button-response","7","52792","0.0-2.0-1.0-1.0-3.0","63e52076fc677ee3ccce9a4d","C3","batch3","","3541.199999988079","<p class = block-text>True or False: You will look for 4 pieces in black or white color connected in a row either horizontally, vertically or diagonally. <br></p>","0","pattern_quiz","true","","","","","","","","","","","","","","","","","","","","","","","",""
"","","","","","html-button-response","8","53613","0.0-2.0-1.0-1.0-4.0","63e52076fc677ee3ccce9a4d","C3","batch3","","819.6999999880791","<p class = block-text>Correct! </p>","0","pattern_quiz_feedback","","","","","","","","","","","","","","","","","","","","","","","","",""
"","","","","","html-button-response","9","55293","0.0-2.0-1.0-2.0-0.0","63e52076fc677ee3ccce9a4d","C3","batch3","","1679.199999988079","<p class = block-text>You made too many incorrect choices.</p><p class = block-text>You will now repeat the instruction and quiz</p>","0","","","","","","","","","","","","","","","","","","","","","","","","","",""
"","","","","","instructions","10","57081","0.0-2.0-1.1-0.1","63e52076fc677ee3ccce9a4d","C3","batch3","[{""page_index"":0,""viewing_time"":1167.3999999761581},{""page_index"":1,""viewing_time"":620.1000000238419}]","1787.5999999642372","","","","","","","","","","","","","","","","","","","","","","","","","","","",""
"","","","","","html-button-response","11","58063","0.0-2.0-1.1-1.1-0.1","63e52076fc677ee3ccce9a4d","C3","batch3","","981.5","<p class=block-text> Let's answer a few questions <br>","0","pattern_enter_quiz","","","","","","","","","","","","","","","","","","","","","","","","",""
"","","","","","html-button-response","12","59557","0.0-2.0-1.1-1.1-1.1","63e52076fc677ee3ccce9a4d","C3","batch3","","1493.5","<p class = block-text>True or False: You will have as much time as you want to make each choice. <br></p>","1","pattern_quiz","true","","","","","","","","","","","","","","","","","","","","","","","",""
"","","","","","html-button-response","13","60331","0.0-2.0-1.1-1.1-2.1","63e52076fc677ee3ccce9a4d","C3","batch3","","773.2999999523163","<p class = block-text>Correct! You should make your choice <strong> as fast as you can</strong>.</p>","0","pattern_quiz_feedback","","","","","","","","","","","","","","","","","","","","","","","","",""
"","","","","","html-button-response","14","62691","0.0-2.0-1.1-1.1-3.1","63e52076fc677ee3ccce9a4d","C3","batch3","","2359.600000023842","<p class = block-text>True or False: You will look for 4 pieces in black or white color connected in a row either horizontally, vertically or diagonally. <br></p>","0","pattern_quiz","true","","","","","","","","","","","","","","","","","","","","","","","",""
"","","","","","html-button-response","15","63379","0.0-2.0-1.1-1.1-4.1","63e52076fc677ee3ccce9a4d","C3","batch3","","687.1000000238419","<p class = block-text>Correct! </p>","0","pattern_quiz_feedback","","","","","","","","","","","","","","","","","","","","","","","","",""
"","","","","","html-button-response","16","65113","0.0-2.0-2.0","63e52076fc677ee3ccce9a4d","C3","batch3","","1733.7999999523163","<p class=block-text> Now that you've understood the game, let's do a few practice trials before we start!<br> <br>","0","pattern_enter_practice","","","","","","","","","","","","","","","","","","","","","","","","",""
"","","","","","image-keyboard-response","17","67292","0.0-2.0-3.0-0.0","63e52076fc677ee3ccce9a4d","C3","batch3","","2171.699999988079","stim/prac_yes_20_dia_b1.png","j","pattern_practice","false","f","","","","","","","","","","","","","","","","","","","","","","",""
"","","","","","html-keyboard-response","18","68307","0.0-2.0-3.0-1.0","63e52076fc677ee3ccce9a4d","C3","batch3","","null","<p style=""font-size:30px;color:red;"">Wrong.</p>","null","pattern_feedback","","","","","","","","","","","","","","","","","","","","","","","","",""
"","","","","","image-keyboard-response","19","70004","0.0-2.0-3.0-0.1","63e52076fc677ee3ccce9a4d","C3","batch3","","1696.3999999761581","stim/prac_yes_16_ver_w1.png","f","pattern_practice","true","f","","","","","","","","","","","","","","","","","","","","","","",""
"","","","","","html-keyboard-response","20","71021","0.0-2.0-3.0-1.1","63e52076fc677ee3ccce9a4d","C3","batch3","","null","<p style=""font-size:30px;color:green;"">Correct!</p>","null","pattern_feedback","","","","","","","","","","","","","","","","","","","","","","","","",""
"","","","","","image-keyboard-response","21","73211","0.0-2.0-3.0-0.2","63e52076fc677ee3ccce9a4d","C3","batch3","","2188.7999999523163","stim/prac_no_18_1.png","j","pattern_practice","true","j","","","","","","","","","","","","","","","","","","","","","","",""
"","","","","","html-keyboard-response","22","74228","0.0-2.0-3.0-1.2","63e52076fc677ee3ccce9a4d","C3","batch3","","null","<p style=""font-size:30px;color:green;"">Correct!</p>","null","pattern_feedback","","","","","","","","","","","","","","","","","","","","","","","","",""
"","","","","","image-keyboard-response","23","76947","0.0-2.0-3.0-0.3","63e52076fc677ee3ccce9a4d","C3","batch3","","2717.5","stim/prac_no_16_1.png","j","pattern_practice","true","j","","","","","","","","","","","","","","","","","","","","","","",""
"","","","","","html-keyboard-response","24","77969","0.0-2.0-3.0-1.3","63e52076fc677ee3ccce9a4d","C3","batch3","","null","<p style=""font-size:30px;color:green;"">Correct!</p>","null","pattern_feedback","","","","","","","","","","","","","","","","","","","","","","","","",""
"","","","","","image-keyboard-response","25","78955","0.0-2.0-3.0-0.4","63e52076fc677ee3ccce9a4d","C3","batch3","","983.8999999761581","stim/prac_yes_18_hor_w1.png","f","pattern_practice","true","f","","","","","","","","","","","","","","","","","","","","","","",""
"","","","","","html-keyboard-response","26","79974","0.0-2.0-3.0-1.4","63e52076fc677ee3ccce9a4d","C3","batch3","","null","<p style=""font-size:30px;color:green;"">Correct!</p>","null","pattern_feedback","","","","","","","","","","","","","","","","","","","","","","","","",""
"","","","","","html-button-response","27","83701","0.0-2.0-4.0","63e52076fc677ee3ccce9a4d","C3","batch3","","3725.899999976158","<p class=block-text> Good job! You are done with practice trials!<br>
        You responded correctly on 80% of the trials.<br>
        Press the button below to start official trials. Now you won't see any feedback about your response</p>","0","pattern_enter_official_trials","","","","","","","","","","","","","","","","","","","","","","","","",""
"","","","","","html-keyboard-response","28","84503","0.0-2.0-5.0-0.0","63e52076fc677ee3ccce9a4d","C3","batch3","","null","<p class=block-text>Trial 1 out of 78</p>","null","pattern_show_trial_num","","","","","","","","","","","","","","","","","","","","","","","","",""
"","","","","","image-keyboard-response","29","85724","0.0-2.0-5.0-1.0","63e52076fc677ee3ccce9a4d","C3","batch3","","1219.6000000238419","stim/yes_36_ver_w1_w.png","f","pattern_response","true","f","pattern_58","1219.6000000238419","true","1","","","","","","","","","","","","","","","","","","",""
"","","","","","html-keyboard-response","30","87043","0.0-2.0-5.0-0.1","63e52076fc677ee3ccce9a4d","C3","batch3","","null","<p class=block-text>Trial 2 out of 78</p>","null","pattern_show_trial_num","","","","","","","","","","","","","","","","","","","","","","","","",""
"","","","","","image-keyboard-response","31","88068","0.0-2.0-5.0-1.1","63e52076fc677ee3ccce9a4d","C3","batch3","","1023.5","stim/yes_49_hor_w1_b.png","f","pattern_response","true","f","pattern_70","1023.5","true","2","","","","","","","","","","","","","","","","","","",""
"","","","","","html-keyboard-response","32","89378","0.0-2.0-5.0-0.2","63e52076fc677ee3ccce9a4d","C3","batch3","","null","<p class=block-text>Trial 3 out of 78</p>","null","pattern_show_trial_num","","","","","","","","","","","","","","","","","","","","","","","","",""
"","","","","","image-keyboard-response","33","92252","0.0-2.0-5.0-1.2","63e52076fc677ee3ccce9a4d","C3","batch3","","2872.899999976158","stim/no_53_1_b.png","j","pattern_response","true","j","pattern_33","2872.899999976158","true","3","","","","","","","","","","","","","","","","","","",""
"","","","","","html-keyboard-response","34","93566","0.0-2.0-5.0-0.3","63e52076fc677ee3ccce9a4d","C3","batch3","","null","<p class=block-text>Trial 4 out of 78</p>","null","pattern_show_trial_num","","","","","","","","","","","","","","","","","","","","","","","","",""
"","","","","","image-keyboard-response","35","94556","0.0-2.0-5.0-1.3","63e52076fc677ee3ccce9a4d","C3","batch3","","988.5999999642372","stim/yes_39_hor_w1_w.png","f","pattern_response","true","f","pattern_62","988.5999999642372","true","4","","","","","","","","","","","","","","","","","","",""
"","","","","","html-keyboard-response","36","95874","0.0-2.0-5.0-0.4","63e52076fc677ee3ccce9a4d","C3","batch3","","null","<p class=block-text>Trial 5 out of 78</p>","null","pattern_show_trial_num","","","","","","","","","","","","","","","","","","","","","","","","",""
"","","","","","image-keyboard-response","37","98099","0.0-2.0-5.0-1.4","63e52076fc677ee3ccce9a4d","C3","batch3","","2223.699999988079","stim/no_28_2.png","j","pattern_response","true","j","pattern_11","2223.699999988079","true","5","","","","","","","","","","","","","","","","","","",""
"","","","","","html-keyboard-response","38","99418","0.0-2.0-5.0-0.5","63e52076fc677ee3ccce9a4d","C3","batch3","","null","<p class=block-text>Trial 6 out of 78</p>","null","pattern_show_trial_num","","","","","","","","","","","","","","","","","","","","","","","","",""
"","","","","","image-keyboard-response","39","100643","0.0-2.0-5.0-1.5","63e52076fc677ee3ccce9a4d","C3","batch3","","1223.8999999761581","stim/yes_15_dia_b1u_b.png","f","pattern_response","true","f","pattern_44","1223.8999999761581","true","6","","","","","","","","","","","","","","","","","","",""
"","","","","","html-keyboard-response","40","101960","0.0-2.0-5.0-0.6","63e52076fc677ee3ccce9a4d","C3","batch3","","null","<p class=block-text>Trial 7 out of 78</p>","null","pattern_show_trial_num","","","","","","","","","","","","","","","","","","","","","","","","",""
"","","","","","image-keyboard-response","41","103508","0.0-2.0-5.0-1.6","63e52076fc677ee3ccce9a4d","C3","batch3","","1547","stim/no_22_1_b.png","j","pattern_response","true","j","pattern_07","1547","true","7","","","","","","","","","","","","","","","","","","",""
"","","","","","html-keyboard-response","42","104823","0.0-2.0-5.0-0.7","63e52076fc677ee3ccce9a4d","C3","batch3","","null","<p class=block-text>Trial 8 out of 78</p>","null","pattern_show_trial_num","","","","","","","","","","","","","","","","","","","","","","","","",""
"","","","","","image-keyboard-response","43","107316","0.0-2.0-5.0-1.7","63e52076fc677ee3ccce9a4d","C3","batch3","","2492","stim/no_45_1_w.png","j","pattern_response","true","j","pattern_25","2492","true","8","","","","","","","","","","","","","","","","","","",""
"","","","","","html-keyboard-response","44","108629","0.0-2.0-5.0-0.8","63e52076fc677ee3ccce9a4d","C3","batch3","","null","<p class=block-text>Trial 9 out of 78</p>","null","pattern_show_trial_num","","","","","","","","","","","","","","","","","","","","","","","","",""
"","","","","","image-keyboard-response","45","109459","0.0-2.0-5.0-1.8","63e52076fc677ee3ccce9a4d","C3","batch3","","829.5","stim/yes_17_ver_b1_b.png","f","pattern_response","true","f","pattern_46","829.5","true","9","","","","","","","","","","","","","","","","","","",""
"","","","","","html-keyboard-response","46","110768","0.0-2.0-5.0-0.9","63e52076fc677ee3ccce9a4d","C3","batch3","","null","<p class=block-text>Trial 10 out of 78</p>","null","pattern_show_trial_num","","","","","","","","","","","","","","","","","","","","","","","","",""
"","","","","","image-keyboard-response","47","113004","0.0-2.0-5.0-1.9","63e52076fc677ee3ccce9a4d","C3","batch3","","2234.199999988079","stim/no_33_1_b.png","j","pattern_response","true","j","pattern_15","2234.199999988079","true","10","","","","","","","","","","","","","","","","","","",""
"","","","","","html-keyboard-response","48","114323","0.0-2.0-5.0-0.10","63e52076fc677ee3ccce9a4d","C3","batch3","","null","<p class=block-text>Trial 11 out of 78</p>","null","pattern_show_trial_num","","","","","","","","","","","","","","","","","","","","","","","","",""
"","","","","","image-keyboard-response","49","116908","0.0-2.0-5.0-1.10","63e52076fc677ee3ccce9a4d","C3","batch3","","2583.7999999523163","stim/no_37_2_w.png","j","pattern_response","true","j","pattern_19","2583.7999999523163","true","11","","","","","","","","","","","","","","","","","","",""
"","","","","","html-keyboard-response","50","118228","0.0-2.0-5.0-0.11","63e52076fc677ee3ccce9a4d","C3","batch3","","null","<p class=block-text>Trial 12 out of 78</p>","null","pattern_show_trial_num","","","","","","","","","","","","","","","","","","","","","","","","",""
"","","","","","image-keyboard-response","51","119068","0.0-2.0-5.0-1.11","63e52076fc677ee3ccce9a4d","C3","batch3","","838.7000000476837","stim/yes_29_hor_b1_b.png","f","pattern_response","true","f","pattern_52","838.7000000476837","true","12","","","","","","","","","","","","","","","","","","",""
"","","","","","html-keyboard-response","52","120386","0.0-2.0-5.0-0.12","63e52076fc677ee3ccce9a4d","C3","batch3","","null","<p class=block-text>Trial 13 out of 78</p>","null","pattern_show_trial_num","","","","","","","","","","","","","","","","","","","","","","","","",""
"","","","","","image-keyboard-response","53","121555","0.0-2.0-5.0-1.12","63e52076fc677ee3ccce9a4d","C3","batch3","","1168.1000000238419","stim/yes_26_dia_w2_w.png","f","pattern_response","true","f","pattern_50","1168.1000000238419","true","13","","","","","","","","","","","","","","","","","","",""
"","","","","","html-keyboard-response","54","122882","0.0-2.0-5.0-0.13","63e52076fc677ee3ccce9a4d","C3","batch3","","null","<p class=block-text>Trial 14 out of 78</p>","null","pattern_show_trial_num","","","","","","","","","","","","","","","","","","","","","","","","",""
"","","","","","image-keyboard-response","55","124019","0.0-2.0-5.0-1.13","63e52076fc677ee3ccce9a4d","C3","batch3","","1135.300000011921","stim/yes_33_dia_w1_w.png","f","pattern_response","true","f","pattern_56","1135.300000011921","true","14","","","","","","","","","","","","","","","","","","",""
"","","","","","html-keyboard-response","56","125336","0.0-2.0-5.0-0.14","63e52076fc677ee3ccce9a4d","C3","batch3","","null","<p class=block-text>Trial 15 out of 78</p>","null","pattern_show_trial_num","","","","","","","","","","","","","","","","","","","","","","","","",""
"","","","","","image-keyboard-response","57","126059","0.0-2.0-5.0-1.14","63e52076fc677ee3ccce9a4d","C3","batch3","","721.6000000238419","stim/yes_12_hor_w1_w.png","f","pattern_response","true","f","pattern_42","721.6000000238419","true","15","","","","","","","","","","","","","","","","","","",""
"","","","","","html-keyboard-response","58","127372","0.0-2.0-5.0-0.15","63e52076fc677ee3ccce9a4d","C3","batch3","","null","<p class=block-text>Trial 16 out of 78</p>","null","pattern_show_trial_num","","","","","","","","","","","","","","","","","","","","","","","","",""
"","","","","","image-keyboard-response","59","129483","0.0-2.0-5.0-1.15","63e52076fc677ee3ccce9a4d","C3","batch3","","2110","stim/no_39_1_w.png","j","pattern_response","true","j","pattern_21","2110","true","16","","","","","","","","","","","","","","","","","","",""
"","","","","","html-keyboard-response","60","130795","0.0-2.0-5.0-0.16","63e52076fc677ee3ccce9a4d","C3","batch3","","null","<p class=block-text>Trial 17 out of 78</p>","null","pattern_show_trial_num","","","","","","","","","","","","","","","","","","","","","","","","",""
"","","","","","image-keyboard-response","61","132355","0.0-2.0-5.0-1.16","63e52076fc677ee3ccce9a4d","C3","batch3","","1558.3999999761581","stim/no_18_1_b.png","j","pattern_response","true","j","pattern_05","1558.3999999761581","true","17","","","","","","","","","","","","","","","","","","",""
"","","","","","html-keyboard-response","62","133673","0.0-2.0-5.0-0.17","63e52076fc677ee3ccce9a4d","C3","batch3","","null","<p class=block-text>Trial 18 out of 78</p>","null","pattern_show_trial_num","","","","","","","","","","","","","","","","","","","","","","","","",""
"","","","","","image-keyboard-response","63","134731","0.0-2.0-5.0-1.17","63e52076fc677ee3ccce9a4d","C3","batch3","","1057.199999988079","stim/yes_70_ver_b1.png","f","pattern_response","true","f","pattern_80","1057.199999988079","true","18","","","","","","","","","","","","","","","","","","",""
"","","","","","html-keyboard-response","64","136048","0.0-2.0-5.0-0.18","63e52076fc677ee3ccce9a4d","C3","batch3","","null","<p class=block-text>Trial 19 out of 78</p>","null","pattern_show_trial_num","","","","","","","","","","","","","","","","","","","","","","","","",""
"","","","","","image-keyboard-response","65","137187","0.0-2.0-5.0-1.18","63e52076fc677ee3ccce9a4d","C3","batch3","","1138.199999988079","stim/no_15_1_w.png","j","pattern_response","true","j","pattern_03","1138.199999988079","true","19","","","","","","","","","","","","","","","","","","",""
"","","","","","html-keyboard-response","66","138507","0.0-2.0-5.0-0.19","63e52076fc677ee3ccce9a4d","C3","batch3","","null","<p class=block-text>Trial 20 out of 78</p>","null","pattern_show_trial_num","","","","","","","","","","","","","","","","","","","","","","","","",""
"","","","","","image-keyboard-response","67","141435","0.0-2.0-5.0-1.19","63e52076fc677ee3ccce9a4d","C3","batch3","","2927.7000000476837","stim/yes_58_dia_w1_w.png","j","pattern_response","false","f","pattern_76","2927.7000000476837","false","19","","","","","","","","","","","","","","","","","","",""
"","","","","","html-keyboard-response","68","142762","0.0-2.0-5.0-0.20","63e52076fc677ee3ccce9a4d","C3","batch3","","null","<p class=block-text>Trial 21 out of 78</p>","null","pattern_show_trial_num","","","","","","","","","","","","","","","","","","","","","","","","",""
"","","","","","image-keyboard-response","69","145995","0.0-2.0-5.0-1.20","63e52076fc677ee3ccce9a4d","C3","batch3","","3231.800000011921","stim/no_67_1.png","j","pattern_response","true","j","pattern_39","3231.800000011921","true","20","","","","","","","","","","","","","","","","","","",""
"","","","","","html-keyboard-response","70","147316","0.0-2.0-5.0-0.21","63e52076fc677ee3ccce9a4d","C3","batch3","","null","<p class=block-text>Trial 22 out of 78</p>","null","pattern_show_trial_num","","","","","","","","","","","","","","","","","","","","","","","","",""
"","","","","","image-keyboard-response","71","149779","0.0-2.0-5.0-1.21","63e52076fc677ee3ccce9a4d","C3","batch3","","2462.399999976158","stim/no_30_1_b.png","j","pattern_response","true","j","pattern_13","2462.399999976158","true","21","","","","","","","","","","","","","","","","","","",""
"","","","","","html-keyboard-response","72","151098","0.0-2.0-5.0-0.22","63e52076fc677ee3ccce9a4d","C3","batch3","","null","<p class=block-text>Trial 23 out of 78</p>","null","pattern_show_trial_num","","","","","","","","","","","","","","","","","","","","","","","","",""
"","","","","","image-keyboard-response","73","153883","0.0-2.0-5.0-1.22","63e52076fc677ee3ccce9a4d","C3","batch3","","2784.5","stim/no_47_1_b.png","j","pattern_response","true","j","pattern_27","2784.5","true","22","","","","","","","","","","","","","","","","","","",""
"","","","","","html-keyboard-response","74","155194","0.0-2.0-5.0-0.23","63e52076fc677ee3ccce9a4d","C3","batch3","","null","<p class=block-text>Trial 24 out of 78</p>","null","pattern_show_trial_num","","","","","","","","","","","","","","","","","","","","","","","","",""
"","","","","","image-keyboard-response","75","158755","0.0-2.0-5.0-1.23","63e52076fc677ee3ccce9a4d","C3","batch3","","3559.800000011921","stim/no_49_2_b.png","j","pattern_response","true","j","pattern_29","3559.800000011921","true","23","","","","","","","","","","","","","","","","","","",""
"","","","","","html-keyboard-response","76","160074","0.0-2.0-5.0-0.24","63e52076fc677ee3ccce9a4d","C3","batch3","","null","<p class=block-text>Trial 25 out of 78</p>","null","pattern_show_trial_num","","","","","","","","","","","","","","","","","","","","","","","","",""
"","","","","","image-keyboard-response","77","162835","0.0-2.0-5.0-1.24","63e52076fc677ee3ccce9a4d","C3","batch3","","2759.900000035763","stim/yes_44_ver_w1_w.png","j","pattern_response","false","f","pattern_66","2759.900000035763","false","23","","","","","","","","","","","","","","","","","","",""
"","","","","","html-keyboard-response","78","164162","0.0-2.0-5.0-0.25","63e52076fc677ee3ccce9a4d","C3","batch3","","null","<p class=block-text>Trial 26 out of 78</p>","null","pattern_show_trial_num","","","","","","","","","","","","","","","","","","","","","","","","",""
"","","","","","image-keyboard-response","79","172316","0.0-2.0-5.0-1.25","63e52076fc677ee3ccce9a4d","C3","batch3","","8152.099999964237","stim/yes_63_dia_b1.png","f","pattern_response","true","f","pattern_78","8152.099999964237","true","24","","","","","","","","","","","","","","","","","","",""
"","","","","","html-keyboard-response","80","173636","0.0-2.0-5.0-0.26","63e52076fc677ee3ccce9a4d","C3","batch3","","null","<p class=block-text>Trial 27 out of 78</p>","null","pattern_show_trial_num","","","","","","","","","","","","","","","","","","","","","","","","",""
"","","","","","image-keyboard-response","81","174803","0.0-2.0-5.0-1.26","63e52076fc677ee3ccce9a4d","C3","batch3","","1166.5","stim/yes_30_ver_b1_b.png","f","pattern_response","true","f","pattern_54","1166.5","true","25","","","","","","","","","","","","","","","","","","",""
"","","","","","html-keyboard-response","82","176121","0.0-2.0-5.0-0.27","63e52076fc677ee3ccce9a4d","C3","batch3","","null","<p class=block-text>Trial 28 out of 78</p>","null","pattern_show_trial_num","","","","","","","","","","","","","","","","","","","","","","","","",""
"","","","","","image-keyboard-response","83","177499","0.0-2.0-5.0-1.27","63e52076fc677ee3ccce9a4d","C3","batch3","","1377.5","stim/no_12_1.png","j","pattern_response","true","j","pattern_01","1377.5","true","26","","","","","","","","","","","","","","","","","","",""
"","","","","","html-keyboard-response","84","178816","0.0-2.0-5.0-0.28","63e52076fc677ee3ccce9a4d","C3","batch3","","null","<p class=block-text>Trial 29 out of 78</p>","null","pattern_show_trial_num","","","","","","","","","","","","","","","","","","","","","","","","",""
"","","","","","image-keyboard-response","85","185228","0.0-2.0-5.0-1.28","63e52076fc677ee3ccce9a4d","C3","batch3","","6410.600000023842","stim/no_51_1.png","j","pattern_response","true","j","pattern_31","6410.600000023842","true","27","","","","","","","","","","","","","","","","","","",""
"","","","","","html-keyboard-response","86","186554","0.0-2.0-5.0-0.29","63e52076fc677ee3ccce9a4d","C3","batch3","","null","<p class=block-text>Trial 30 out of 78</p>","null","pattern_show_trial_num","","","","","","","","","","","","","","","","","","","","","","","","",""
"","","","","","image-keyboard-response","87","187835","0.0-2.0-5.0-1.29","63e52076fc677ee3ccce9a4d","C3","batch3","","1279.5999999642372","stim/yes_37_hor_w1_w.png","f","pattern_response","true","f","pattern_60","1279.5999999642372","true","28","","","","","","","","","","","","","","","","","","",""
"","","","","","html-keyboard-response","88","189149","0.0-2.0-5.0-0.30","63e52076fc677ee3ccce9a4d","C3","batch3","","null","<p class=block-text>Trial 31 out of 78</p>","null","pattern_show_trial_num","","","","","","","","","","","","","","","","","","","","","","","","",""
"","","","","","image-keyboard-response","89","193251","0.0-2.0-5.0-1.30","63e52076fc677ee3ccce9a4d","C3","batch3","","4099.800000011921","stim/no_58_1_w.png","j","pattern_response","true","j","pattern_35","4099.800000011921","true","29","","","","","","","","","","","","","","","","","","",""
"","","","","","html-keyboard-response","90","194574","0.0-2.0-5.0-0.31","63e52076fc677ee3ccce9a4d","C3","batch3","","null","<p class=block-text>Trial 32 out of 78</p>","null","pattern_show_trial_num","","","","","","","","","","","","","","","","","","","","","","","","",""
"","","","","","image-keyboard-response","91","197644","0.0-2.0-5.0-1.31","63e52076fc677ee3ccce9a4d","C3","batch3","","3068.300000011921","stim/no_25_1_b.png","j","pattern_response","true","j","pattern_09","3068.300000011921","true","30","","","","","","","","","","","","","","","","","","",""
"","","","","","html-keyboard-response","92","198964","0.0-2.0-5.0-0.32","63e52076fc677ee3ccce9a4d","C3","batch3","","null","<p class=block-text>Trial 33 out of 78</p>","null","pattern_show_trial_num","","","","","","","","","","","","","","","","","","","","","","","","",""
"","","","","","image-keyboard-response","93","201884","0.0-2.0-5.0-1.32","63e52076fc677ee3ccce9a4d","C3","batch3","","2918.699999988079","stim/no_36_1_b.png","j","pattern_response","true","j","pattern_17","2918.699999988079","true","31","","","","","","","","","","","","","","","","","","",""
"","","","","","html-keyboard-response","94","203205","0.0-2.0-5.0-0.33","63e52076fc677ee3ccce9a4d","C3","batch3","","null","<p class=block-text>Trial 34 out of 78</p>","null","pattern_show_trial_num","","","","","","","","","","","","","","","","","","","","","","","","",""
"","","","","","image-keyboard-response","95","206875","0.0-2.0-5.0-1.33","63e52076fc677ee3ccce9a4d","C3","batch3","","3668.900000035763","stim/yes_46_ver_b1_b.png","j","pattern_response","false","f","pattern_68","3668.900000035763","false","31","","","","","","","","","","","","","","","","","","",""
"","","","","","html-keyboard-response","96","208197","0.0-2.0-5.0-0.34","63e52076fc677ee3ccce9a4d","C3","batch3","","null","<p class=block-text>Trial 35 out of 78</p>","null","pattern_show_trial_num","","","","","","","","","","","","","","","","","","","","","","","","",""
"","","","","","image-keyboard-response","97","210171","0.0-2.0-5.0-1.34","63e52076fc677ee3ccce9a4d","C3","batch3","","1972.300000011921","stim/yes_53_ver_b1_b.png","f","pattern_response","true","f","pattern_74","1972.300000011921","true","32","","","","","","","","","","","","","","","","","","",""
"","","","","","html-keyboard-response","98","211497","0.0-2.0-5.0-0.35","63e52076fc677ee3ccce9a4d","C3","batch3","","null","<p class=block-text>Trial 36 out of 78</p>","null","pattern_show_trial_num","","","","","","","","","","","","","","","","","","","","","","","","",""
"","","","","","image-keyboard-response","99","217259","0.0-2.0-5.0-1.35","63e52076fc677ee3ccce9a4d","C3","batch3","","5760.399999976158","stim/yes_51_dia_b1.png","j","pattern_response","false","f","pattern_72","5760.399999976158","false","32","","","","","","","","","","","","","","","","","","",""
"","","","","","html-keyboard-response","100","218574","0.0-2.0-5.0-0.36","63e52076fc677ee3ccce9a4d","C3","batch3","","null","<p class=block-text>Trial 37 out of 78</p>","null","pattern_show_trial_num","","","","","","","","","","","","","","","","","","","","","","","","",""
"","","","","","image-keyboard-response","101","222203","0.0-2.0-5.0-1.36","63e52076fc677ee3ccce9a4d","C3","batch3","","3627.900000035763","stim/yes_23_ver_b1.png","j","pattern_response","false","f","pattern_48","3627.900000035763","false","32","","","","","","","","","","","","","","","","","","",""
"","","","","","html-keyboard-response","102","223510","0.0-2.0-5.0-0.37","63e52076fc677ee3ccce9a4d","C3","batch3","","null","<p class=block-text>Trial 38 out of 78</p>","null","pattern_show_trial_num","","","","","","","","","","","","","","","","","","","","","","","","",""
"","","","","","image-keyboard-response","103","229291","0.0-2.0-5.0-1.37","63e52076fc677ee3ccce9a4d","C3","batch3","","5780.100000023842","stim/no_43_2_b.png","j","pattern_response","true","j","pattern_23","5780.100000023842","true","33","","","","","","","","","","","","","","","","","","",""
"","","","","","html-keyboard-response","104","230611","0.0-2.0-5.0-0.38","63e52076fc677ee3ccce9a4d","C3","batch3","","null","<p class=block-text>Trial 39 out of 78</p>","null","pattern_show_trial_num","","","","","","","","","","","","","","","","","","","","","","","","",""
"","","","","","image-keyboard-response","105","233963","0.0-2.0-5.0-1.38","63e52076fc677ee3ccce9a4d","C3","batch3","","3351.2000000476837","stim/yes_42_dia_w1_w.png","f","pattern_response","true","f","pattern_64","3351.2000000476837","true","34","","","","","","","","","","","","","","","","","","",""
"","","","","","image-keyboard-response","106","236667","0.0-2.0-6.0","63e52076fc677ee3ccce9a4d","C3","batch3","","2198.699999988079","stim/empty_board.png","j","attention_check","true","j","","","","","500","[""f"",""j""]","","","","","","","","","","","","","","","","",""
"","","","","","html-keyboard-response","107","237475","0.0-2.0-7.0-0.0","63e52076fc677ee3ccce9a4d","C3","batch3","","null","<p class=block-text>Trial 40 out of 78</p>","null","pattern_show_trial_num","","","","","","","","","","","","","","","","","","","","","","","","",""
"","","","","","image-keyboard-response","108","239347","0.0-2.0-7.0-1.0","63e52076fc677ee3ccce9a4d","C3","batch3","","1871.800000011921","stim/yes_45_hor_b2_b.png","f","pattern_response","true","f","pattern_67","1871.800000011921","true","35","","","","","","","","","","","","","","","","","","",""
"","","","","","html-keyboard-response","109","240667","0.0-2.0-7.0-0.1","63e52076fc677ee3ccce9a4d","C3","batch3","","null","<p class=block-text>Trial 41 out of 78</p>","null","pattern_show_trial_num","","","","","","","","","","","","","","","","","","","","","","","","",""
"","","","","","image-keyboard-response","110","242131","0.0-2.0-7.0-1.1","63e52076fc677ee3ccce9a4d","C3","batch3","","1462.699999988079","stim/yes_55_hor_w1_w.png","f","pattern_response","true","f","pattern_75","1462.699999988079","true","36","","","","","","","","","","","","","","","","","","",""
"","","","","","html-keyboard-response","111","243449","0.0-2.0-7.0-0.2","63e52076fc677ee3ccce9a4d","C3","batch3","","null","<p class=block-text>Trial 42 out of 78</p>","null","pattern_show_trial_num","","","","","","","","","","","","","","","","","","","","","","","","",""
"","","","","","image-keyboard-response","112","244755","0.0-2.0-7.0-1.2","63e52076fc677ee3ccce9a4d","C3","batch3","","1304.9000000357628","stim/yes_38_hor_b1_b.png","f","pattern_response","true","f","pattern_61","1304.9000000357628","true","37","","","","","","","","","","","","","","","","","","",""
"","","","","","html-keyboard-response","113","246069","0.0-2.0-7.0-0.3","63e52076fc677ee3ccce9a4d","C3","batch3","","null","<p class=block-text>Trial 43 out of 78</p>","null","pattern_show_trial_num","","","","","","","","","","","","","","","","","","","","","","","","",""
"","","","","","image-keyboard-response","114","247090","0.0-2.0-7.0-1.3","63e52076fc677ee3ccce9a4d","C3","batch3","","1020.1999999880791","stim/yes_31_hor_b1.png","f","pattern_response","true","f","pattern_55","1020.1999999880791","true","38","","","","","","","","","","","","","","","","","","",""
"","","","","","html-keyboard-response","115","248400","0.0-2.0-7.0-0.4","63e52076fc677ee3ccce9a4d","C3","batch3","","null","<p class=block-text>Trial 44 out of 78</p>","null","pattern_show_trial_num","","","","","","","","","","","","","","","","","","","","","","","","",""
"","","","","","image-keyboard-response","116","251955","0.0-2.0-7.0-1.4","63e52076fc677ee3ccce9a4d","C3","batch3","","3554.5","stim/no_50_1.png","j","pattern_response","true","j","pattern_30","3554.5","true","39","","","","","","","","","","","","","","","","","","",""
"","","","","","html-keyboard-response","117","253274","0.0-2.0-7.0-0.5","63e52076fc677ee3ccce9a4d","C3","batch3","","null","<p class=block-text>Trial 45 out of 78</p>","null","pattern_show_trial_num","","","","","","","","","","","","","","","","","","","","","","","","",""
"","","","","","image-keyboard-response","118","257035","0.0-2.0-7.0-1.5","63e52076fc677ee3ccce9a4d","C3","batch3","","3759.300000011921","stim/no_46_1_b.png","j","pattern_response","true","j","pattern_26","3759.300000011921","true","40","","","","","","","","","","","","","","","","","","",""
"","","","","","html-keyboard-response","119","258362","0.0-2.0-7.0-0.6","63e52076fc677ee3ccce9a4d","C3","batch3","","null","<p class=block-text>Trial 46 out of 78</p>","null","pattern_show_trial_num","","","","","","","","","","","","","","","","","","","","","","","","",""
"","","","","","image-keyboard-response","120","260475","0.0-2.0-7.0-1.6","63e52076fc677ee3ccce9a4d","C3","batch3","","2112.300000011921","stim/no_32_1_w.png","j","pattern_response","true","j","pattern_14","2112.300000011921","true","41","","","","","","","","","","","","","","","","","","",""
"","","","","","html-keyboard-response","121","261792","0.0-2.0-7.0-0.7","63e52076fc677ee3ccce9a4d","C3","batch3","","null","<p class=block-text>Trial 47 out of 78</p>","null","pattern_show_trial_num","","","","","","","","","","","","","","","","","","","","","","","","",""
"","","","","","image-keyboard-response","122","264810","0.0-2.0-7.0-1.7","63e52076fc677ee3ccce9a4d","C3","batch3","","3017.800000011921","stim/no_29_1_b.png","j","pattern_response","true","j","pattern_12","3017.800000011921","true","42","","","","","","","","","","","","","","","","","","",""
"","","","","","html-keyboard-response","123","266132","0.0-2.0-7.0-0.8","63e52076fc677ee3ccce9a4d","C3","batch3","","null","<p class=block-text>Trial 48 out of 78</p>","null","pattern_show_trial_num","","","","","","","","","","","","","","","","","","","","","","","","",""
"","","","","","image-keyboard-response","124","267882","0.0-2.0-7.0-1.8","63e52076fc677ee3ccce9a4d","C3","batch3","","1749.300000011921","stim/yes_29_ver_w1.png","f","pattern_response","true","f","pattern_53","1749.300000011921","true","43","","","","","","","","","","","","","","","","","","",""
"","","","","","html-keyboard-response","125","269189","0.0-2.0-7.0-0.9","63e52076fc677ee3ccce9a4d","C3","batch3","","null","<p class=block-text>Trial 49 out of 78</p>","null","pattern_show_trial_num","","","","","","","","","","","","","","","","","","","","","","","","",""
"","","","","","image-keyboard-response","126","273739","0.0-2.0-7.0-1.9","63e52076fc677ee3ccce9a4d","C3","batch3","","4548.5","stim/no_26_1_w.png","j","pattern_response","true","j","pattern_10","4548.5","true","44","","","","","","","","","","","","","","","","","","",""
"","","","","","html-keyboard-response","127","275062","0.0-2.0-7.0-0.10","63e52076fc677ee3ccce9a4d","C3","batch3","","null","<p class=block-text>Trial 50 out of 78</p>","null","pattern_show_trial_num","","","","","","","","","","","","","","","","","","","","","","","","",""
"","","","","","image-keyboard-response","128","277739","0.0-2.0-7.0-1.10","63e52076fc677ee3ccce9a4d","C3","batch3","","2675.7000000476837","stim/no_23_1.png","j","pattern_response","true","j","pattern_08","2675.7000000476837","true","45","","","","","","","","","","","","","","","","","","",""
"","","","","","html-keyboard-response","129","279058","0.0-2.0-7.0-0.11","63e52076fc677ee3ccce9a4d","C3","batch3","","null","<p class=block-text>Trial 51 out of 78</p>","null","pattern_show_trial_num","","","","","","","","","","","","","","","","","","","","","","","","",""
"","","","","","image-keyboard-response","130","283010","0.0-2.0-7.0-1.11","63e52076fc677ee3ccce9a4d","C3","batch3","","3950.7999999523163","stim/no_38_1_b.png","j","pattern_response","true","j","pattern_20","3950.7999999523163","true","46","","","","","","","","","","","","","","","","","","",""
"","","","","","html-keyboard-response","131","284327","0.0-2.0-7.0-0.12","63e52076fc677ee3ccce9a4d","C3","batch3","","null","<p class=block-text>Trial 52 out of 78</p>","null","pattern_show_trial_num","","","","","","","","","","","","","","","","","","","","","","","","",""
"","","","","","image-keyboard-response","132","289099","0.0-2.0-7.0-1.12","63e52076fc677ee3ccce9a4d","C3","batch3","","4770.300000011921","stim/no_55_1_w.png","j","pattern_response","true","j","pattern_34","4770.300000011921","true","47","","","","","","","","","","","","","","","","","","",""
"","","","","","html-keyboard-response","133","290415","0.0-2.0-7.0-0.13","63e52076fc677ee3ccce9a4d","C3","batch3","","null","<p class=block-text>Trial 53 out of 78</p>","null","pattern_show_trial_num","","","","","","","","","","","","","","","","","","","","","","","","",""
"","","","","","image-keyboard-response","134","292907","0.0-2.0-7.0-1.13","63e52076fc677ee3ccce9a4d","C3","batch3","","2490.399999976158","stim/yes_60_ver_b1_b.png","f","pattern_response","true","f","pattern_77","2490.399999976158","true","48","","","","","","","","","","","","","","","","","","",""
"","","","","","html-keyboard-response","135","294229","0.0-2.0-7.0-0.14","63e52076fc677ee3ccce9a4d","C3","batch3","","null","<p class=block-text>Trial 54 out of 78</p>","null","pattern_show_trial_num","","","","","","","","","","","","","","","","","","","","","","","","",""
"","","","","","image-keyboard-response","136","295875","0.0-2.0-7.0-1.14","63e52076fc677ee3ccce9a4d","C3","batch3","","1645","stim/yes_17_dia_w1.png","f","pattern_response","true","f","pattern_45","1645","true","49","","","","","","","","","","","","","","","","","","",""
"","","","","","html-keyboard-response","137","297201","0.0-2.0-7.0-0.15","63e52076fc677ee3ccce9a4d","C3","batch3","","null","<p class=block-text>Trial 55 out of 78</p>","null","pattern_show_trial_num","","","","","","","","","","","","","","","","","","","","","","","","",""
"","","","","","image-keyboard-response","138","300330","0.0-2.0-7.0-1.15","63e52076fc677ee3ccce9a4d","C3","batch3","","3128.399999976158","stim/yes_35_dia_b1.png","f","pattern_response","true","f","pattern_57","3128.399999976158","true","50","","","","","","","","","","","","","","","","","","",""
"","","","","","html-keyboard-response","139","301654","0.0-2.0-7.0-0.16","63e52076fc677ee3ccce9a4d","C3","batch3","","null","<p class=block-text>Trial 56 out of 78</p>","null","pattern_show_trial_num","","","","","","","","","","","","","","","","","","","","","","","","",""
"","","","","","image-keyboard-response","140","309050","0.0-2.0-7.0-1.16","63e52076fc677ee3ccce9a4d","C3","batch3","","7395.899999976158","stim/yes_48_dia_w1_w.png","j","pattern_response","false","f","pattern_69","7395.899999976158","false","50","","","","","","","","","","","","","","","","","","",""
"","","","","","html-keyboard-response","141","310364","0.0-2.0-7.0-0.17","63e52076fc677ee3ccce9a4d","C3","batch3","","null","<p class=block-text>Trial 57 out of 78</p>","null","pattern_show_trial_num","","","","","","","","","","","","","","","","","","","","","","","","",""
"","","","","","image-keyboard-response","142","313403","0.0-2.0-7.0-1.17","63e52076fc677ee3ccce9a4d","C3","batch3","","3037.699999988079","stim/yes_22_ver_w1.png","f","pattern_response","true","f","pattern_47","3037.699999988079","true","51","","","","","","","","","","","","","","","","","","",""
"","","","","","html-keyboard-response","143","314718","0.0-2.0-7.0-0.18","63e52076fc677ee3ccce9a4d","C3","batch3","","null","<p class=block-text>Trial 58 out of 78</p>","null","pattern_show_trial_num","","","","","","","","","","","","","","","","","","","","","","","","",""
"","","","","","image-keyboard-response","144","319594","0.0-2.0-7.0-1.18","63e52076fc677ee3ccce9a4d","C3","batch3","","4875.299999952316","stim/no_42_1_w.png","j","pattern_response","true","j","pattern_22","4875.299999952316","true","52","","","","","","","","","","","","","","","","","","",""
"","","","","","html-keyboard-response","145","320920","0.0-2.0-7.0-0.19","63e52076fc677ee3ccce9a4d","C3","batch3","","null","<p class=block-text>Trial 59 out of 78</p>","null","pattern_show_trial_num","","","","","","","","","","","","","","","","","","","","","","","","",""
"","","","","","image-keyboard-response","146","322210","0.0-2.0-7.0-1.19","63e52076fc677ee3ccce9a4d","C3","batch3","","1288.5","stim/yes_52_ver_w1.png","f","pattern_response","true","f","pattern_73","1288.5","true","53","","","","","","","","","","","","","","","","","","",""
"","","","","","html-keyboard-response","147","323525","0.0-2.0-7.0-0.20","63e52076fc677ee3ccce9a4d","C3","batch3","","null","<p class=block-text>Trial 60 out of 78</p>","null","pattern_show_trial_num","","","","","","","","","","","","","","","","","","","","","","","","",""
"","","","","","image-keyboard-response","148","325187","0.0-2.0-7.0-1.20","63e52076fc677ee3ccce9a4d","C3","batch3","","1660.800000011921","stim/no_20_1_w.png","j","pattern_response","true","j","pattern_06","1660.800000011921","true","54","","","","","","","","","","","","","","","","","","",""
"","","","","","html-keyboard-response","149","326508","0.0-2.0-7.0-0.21","63e52076fc677ee3ccce9a4d","C3","batch3","","null","<p class=block-text>Trial 61 out of 78</p>","null","pattern_show_trial_num","","","","","","","","","","","","","","","","","","","","","","","","",""
"","","","","","image-keyboard-response","150","330683","0.0-2.0-7.0-1.21","63e52076fc677ee3ccce9a4d","C3","batch3","","4173.5","stim/no_52_1.png","j","pattern_response","true","j","pattern_32","4173.5","true","55","","","","","","","","","","","","","","","","","","",""
"","","","","","html-keyboard-response","151","332002","0.0-2.0-7.0-0.22","63e52076fc677ee3ccce9a4d","C3","batch3","","null","<p class=block-text>Trial 62 out of 78</p>","null","pattern_show_trial_num","","","","","","","","","","","","","","","","","","","","","","","","",""
"","","","","","image-keyboard-response","152","335370","0.0-2.0-7.0-1.22","63e52076fc677ee3ccce9a4d","C3","batch3","","3366.699999988079","stim/no_36_2_w.png","j","pattern_response","true","j","pattern_18","3366.699999988079","true","56","","","","","","","","","","","","","","","","","","",""
"","","","","","html-keyboard-response","153","336682","0.0-2.0-7.0-0.23","63e52076fc677ee3ccce9a4d","C3","batch3","","null","<p class=block-text>Trial 63 out of 78</p>","null","pattern_show_trial_num","","","","","","","","","","","","","","","","","","","","","","","","",""
"","","","","","image-keyboard-response","154","344075","0.0-2.0-7.0-1.23","63e52076fc677ee3ccce9a4d","C3","batch3","","7385.5","stim/no_70_2.png","j","pattern_response","true","j","pattern_40","7385.5","true","57","","","","","","","","","","","","","","","","","","",""
"","","","","","html-keyboard-response","155","345390","0.0-2.0-7.0-0.24","63e52076fc677ee3ccce9a4d","C3","batch3","","null","<p class=block-text>Trial 64 out of 78</p>","null","pattern_show_trial_num","","","","","","","","","","","","","","","","","","","","","","","","",""
"","","","","","image-keyboard-response","156","350698","0.0-2.0-7.0-1.24","63e52076fc677ee3ccce9a4d","C3","batch3","","5307.900000035763","stim/no_44_1.png","j","pattern_response","true","j","pattern_24","5307.900000035763","true","58","","","","","","","","","","","","","","","","","","",""
"","","","","","html-keyboard-response","157","352020","0.0-2.0-7.0-0.25","63e52076fc677ee3ccce9a4d","C3","batch3","","null","<p class=block-text>Trial 65 out of 78</p>","null","pattern_show_trial_num","","","","","","","","","","","","","","","","","","","","","","","","",""
"","","","","","image-keyboard-response","158","353658","0.0-2.0-7.0-1.25","63e52076fc677ee3ccce9a4d","C3","batch3","","1636.800000011921","stim/yes_43_ver_w1_w.png","f","pattern_response","true","f","pattern_65","1636.800000011921","true","59","","","","","","","","","","","","","","","","","","",""
"","","","","","html-keyboard-response","159","354974","0.0-2.0-7.0-0.26","63e52076fc677ee3ccce9a4d","C3","batch3","","null","<p class=block-text>Trial 66 out of 78</p>","null","pattern_show_trial_num","","","","","","","","","","","","","","","","","","","","","","","","",""
"","","","","","image-keyboard-response","160","361339","0.0-2.0-7.0-1.26","63e52076fc677ee3ccce9a4d","C3","batch3","","6363.699999988079","stim/no_62_1_w.png","j","pattern_response","true","j","pattern_36","6363.699999988079","true","60","","","","","","","","","","","","","","","","","","",""
"","","","","","html-keyboard-response","161","362647","0.0-2.0-7.0-0.27","63e52076fc677ee3ccce9a4d","C3","batch3","","null","<p class=block-text>Trial 67 out of 78</p>","null","pattern_show_trial_num","","","","","","","","","","","","","","","","","","","","","","","","",""
"","","","","","image-keyboard-response","162","364011","0.0-2.0-7.0-1.27","63e52076fc677ee3ccce9a4d","C3","batch3","","1363","stim/no_13_2_b.png","j","pattern_response","true","j","pattern_02","1363","true","61","","","","","","","","","","","","","","","","","","",""
"","","","","","html-keyboard-response","163","365323","0.0-2.0-7.0-0.28","63e52076fc677ee3ccce9a4d","C3","batch3","","null","<p class=block-text>Trial 68 out of 78</p>","null","pattern_show_trial_num","","","","","","","","","","","","","","","","","","","","","","","","",""
"","","","","","image-keyboard-response","164","366379","0.0-2.0-7.0-1.28","63e52076fc677ee3ccce9a4d","C3","batch3","","1055.6000000238419","stim/yes_28_ver_b1.png","f","pattern_response","true","f","pattern_51","1055.6000000238419","true","62","","","","","","","","","","","","","","","","","","",""
"","","","","","html-keyboard-response","165","367704","0.0-2.0-7.0-0.29","63e52076fc677ee3ccce9a4d","C3","batch3","","null","<p class=block-text>Trial 69 out of 78</p>","null","pattern_show_trial_num","","","","","","","","","","","","","","","","","","","","","","","","",""
"","","","","","image-keyboard-response","166","375131","0.0-2.0-7.0-1.29","63e52076fc677ee3ccce9a4d","C3","batch3","","7426.399999976158","stim/no_65_1_b.png","j","pattern_response","true","j","pattern_38","7426.399999976158","true","63","","","","","","","","","","","","","","","","","","",""
"","","","","","html-keyboard-response","167","376449","0.0-2.0-7.0-0.30","63e52076fc677ee3ccce9a4d","C3","batch3","","null","<p class=block-text>Trial 70 out of 78</p>","null","pattern_show_trial_num","","","","","","","","","","","","","","","","","","","","","","","","",""
"","","","","","image-keyboard-response","168","377395","0.0-2.0-7.0-1.30","63e52076fc677ee3ccce9a4d","C3","batch3","","943.8999999761581","stim/yes_25_hor_b1_b.png","f","pattern_response","true","f","pattern_49","943.8999999761581","true","64","","","","","","","","","","","","","","","","","","",""
"","","","","","html-keyboard-response","169","378710","0.0-2.0-7.0-0.31","63e52076fc677ee3ccce9a4d","C3","batch3","","null","<p class=block-text>Trial 71 out of 78</p>","null","pattern_show_trial_num","","","","","","","","","","","","","","","","","","","","","","","","",""
"","","","","","image-keyboard-response","170","382131","0.0-2.0-7.0-1.31","63e52076fc677ee3ccce9a4d","C3","batch3","","3419.900000035763","stim/no_34_1_b.png","j","pattern_response","true","j","pattern_16","3419.900000035763","true","65","","","","","","","","","","","","","","","","","","",""
"","","","","","html-keyboard-response","171","383433","0.0-2.0-7.0-0.32","63e52076fc677ee3ccce9a4d","C3","batch3","","null","<p class=block-text>Trial 72 out of 78</p>","null","pattern_show_trial_num","","","","","","","","","","","","","","","","","","","","","","","","",""
"","","","","","image-keyboard-response","172","388043","0.0-2.0-7.0-1.32","63e52076fc677ee3ccce9a4d","C3","batch3","","4609.5","stim/yes_50_dia_w1.png","j","pattern_response","false","f","pattern_71","4609.5","false","65","","","","","","","","","","","","","","","","","","",""
"","","","","","html-keyboard-response","173","389362","0.0-2.0-7.0-0.33","63e52076fc677ee3ccce9a4d","C3","batch3","","null","<p class=block-text>Trial 73 out of 78</p>","null","pattern_show_trial_num","","","","","","","","","","","","","","","","","","","","","","","","",""
"","","","","","image-keyboard-response","174","390642","0.0-2.0-7.0-1.33","63e52076fc677ee3ccce9a4d","C3","batch3","","1279.5999999642372","stim/yes_67_hor_b1.png","f","pattern_response","true","f","pattern_79","1279.5999999642372","true","66","","","","","","","","","","","","","","","","","","",""
"","","","","","html-keyboard-response","175","391955","0.0-2.0-7.0-0.34","63e52076fc677ee3ccce9a4d","C3","batch3","","null","<p class=block-text>Trial 74 out of 78</p>","null","pattern_show_trial_num","","","","","","","","","","","","","","","","","","","","","","","","",""
"","","","","","image-keyboard-response","176","393682","0.0-2.0-7.0-1.34","63e52076fc677ee3ccce9a4d","C3","batch3","","1726","stim/yes_37_dia_w1.png","f","pattern_response","true","f","pattern_59","1726","true","67","","","","","","","","","","","","","","","","","","",""
"","","","","","html-keyboard-response","177","394999","0.0-2.0-7.0-0.35","63e52076fc677ee3ccce9a4d","C3","batch3","","null","<p class=block-text>Trial 75 out of 78</p>","null","pattern_show_trial_num","","","","","","","","","","","","","","","","","","","","","","","","",""
"","","","","","image-keyboard-response","178","398396","0.0-2.0-7.0-1.35","63e52076fc677ee3ccce9a4d","C3","batch3","","3395.199999988079","stim/yes_40_dia_b1_b.png","j","pattern_response","false","f","pattern_63","3395.199999988079","false","67","","","","","","","","","","","","","","","","","","",""
"","","","","","html-keyboard-response","179","399706","0.0-2.0-7.0-0.36","63e52076fc677ee3ccce9a4d","C3","batch3","","null","<p class=block-text>Trial 76 out of 78</p>","null","pattern_show_trial_num","","","","","","","","","","","","","","","","","","","","","","","","",""
"","","","","","image-keyboard-response","180","403563","0.0-2.0-7.0-1.36","63e52076fc677ee3ccce9a4d","C3","batch3","","3855.300000011921","stim/no_48_1_w.png","j","pattern_response","true","j","pattern_28","3855.300000011921","true","68","","","","","","","","","","","","","","","","","","",""
"","","","","","html-keyboard-response","181","404874","0.0-2.0-7.0-0.37","63e52076fc677ee3ccce9a4d","C3","batch3","","null","<p class=block-text>Trial 77 out of 78</p>","null","pattern_show_trial_num","","","","","","","","","","","","","","","","","","","","","","","","",""
"","","","","","image-keyboard-response","182","405835","0.0-2.0-7.0-1.37","63e52076fc677ee3ccce9a4d","C3","batch3","","959.5999999642372","stim/yes_14_hor_b1_w.png","f","pattern_response","true","f","pattern_43","959.5999999642372","true","69","","","","","","","","","","","","","","","","","","",""
"","","","","","html-keyboard-response","183","407147","0.0-2.0-7.0-0.38","63e52076fc677ee3ccce9a4d","C3","batch3","","null","<p class=block-text>Trial 78 out of 78</p>","null","pattern_show_trial_num","","","","","","","","","","","","","","","","","","","","","","","","",""
"","","","","","image-keyboard-response","184","408827","0.0-2.0-7.0-1.38","63e52076fc677ee3ccce9a4d","C3","batch3","","1679.5","stim/no_17_1_w.png","j","pattern_response","true","j","pattern_04","1679.5","true","70","","","","","","","","","","","","","","","","","","",""
"","","","","","html-button-response","185","413366","0.0-2.0-8.0","63e52076fc677ee3ccce9a4d","C3","batch3","","4030.900000035763","<p class = block-text>This concludes the 4-in-a-row detection game.Thank you for your responses!<br>
            You responded correctly on 90% of the trials.<br>
            When you are ready, press ""Continue"" button to continue </p>","0","","","","","","","","","","","","","","","","","","","","","","","","","",""
"true","","","","","fullscreen","186","419973","0.0-3.0-0.0","63e52076fc677ee3ccce9a4d","C3","batch3","","","","","spm_fullscreen","","","","","","","","","","","","","","","","","","","","","","","","",""
"","","","","","html-button-response","187","429576","0.0-3.0-1.0","63e52076fc677ee3ccce9a4d","C3","batch3","","9602.399999976158","<p class = block-text><b>Instructions</b> <br>This is a widely used intelligence test in research. <br>In this test, a figure with a missing piece will be presented.<br>Below the figure are alternative pieces to complete the figure, only one of which is correct.<br> Different figures might involve different principles for obtaining the missing piece<br>Your job is to select the most logical piece to complete the figure.</p>","0","","","","","","","","","","","","","","","","","","","","","","","","","",""
"","","","","","html-keyboard-response","188","430378","0.0-3.0-2.0-0.0","63e52076fc677ee3ccce9a4d","C3","batch3","","null","<p class=block-text>Trial 1 out of 60</p>","null","spm_show_trial_num","","","","","","","","","","","","","","","","","","","","","","","","",""
"","","","","","image-button-response","189","439782","0.0-3.0-2.0-1.0","63e52076fc677ee3ccce9a4d","C3","batch3","","9403.399999976158","img/question_1_1.jpeg","5","spm_respsonse","0","4","mat_01","","","","","","0","9403.399999976158","","","","","","","","","","","","","","",""
"","","","","","html-keyboard-response","190","440854","0.0-3.0-2.0-0.1","63e52076fc677ee3ccce9a4d","C3","batch3","","null","<p class=block-text>Trial 2 out of 60</p>","null","spm_show_trial_num","","","","","","","","","","","","","","","","","","","","","","","","",""
"","","","","","image-button-response","191","443210","0.0-3.0-2.0-1.1","63e52076fc677ee3ccce9a4d","C3","batch3","","2354.300000011921","img/question_1_2.jpeg","4","spm_respsonse","1","5","mat_02","","","","","","1","2354.300000011921","","","","","","","","","","","","","","",""
"","","","","","html-keyboard-response","192","444280","0.0-3.0-2.0-0.2","63e52076fc677ee3ccce9a4d","C3","batch3","","null","<p class=block-text>Trial 3 out of 60</p>","null","spm_show_trial_num","","","","","","","","","","","","","","","","","","","","","","","","",""
"","","","","","image-button-response","193","451062","0.0-3.0-2.0-1.2","63e52076fc677ee3ccce9a4d","C3","batch3","","6781","img/question_1_3.jpeg","0","spm_respsonse","1","1","mat_03","","","","","","1","6781","","","","","","","","","","","","","","",""
"","","","","","html-keyboard-response","194","452129","0.0-3.0-2.0-0.3","63e52076fc677ee3ccce9a4d","C3","batch3","","null","<p class=block-text>Trial 4 out of 60</p>","null","spm_show_trial_num","","","","","","","","","","","","","","","","","","","","","","","","",""
"","","","","","image-button-response","195","454754","0.0-3.0-2.0-1.3","63e52076fc677ee3ccce9a4d","C3","batch3","","2624","img/question_1_4.jpeg","1","spm_respsonse","1","2","mat_04","","","","","","1","2624","","","","","","","","","","","","","","",""
"","","","","","html-keyboard-response","196","455817","0.0-3.0-2.0-0.4","63e52076fc677ee3ccce9a4d","C3","batch3","","null","<p class=block-text>Trial 5 out of 60</p>","null","spm_show_trial_num","","","","","","","","","","","","","","","","","","","","","","","","",""
"","","","","","image-button-response","197","458344","0.0-3.0-2.0-1.4","63e52076fc677ee3ccce9a4d","C3","batch3","","2526.300000011921","img/question_1_5.jpeg","5","spm_respsonse","1","6","mat_05","","","","","","1","2526.300000011921","","","","","","","","","","","","","","",""
"","","","","","html-keyboard-response","198","459418","0.0-3.0-2.0-0.5","63e52076fc677ee3ccce9a4d","C3","batch3","","null","<p class=block-text>Trial 6 out of 60</p>","null","spm_show_trial_num","","","","","","","","","","","","","","","","","","","","","","","","",""
"","","","","","image-button-response","199","462514","0.0-3.0-2.0-1.5","63e52076fc677ee3ccce9a4d","C3","batch3","","3094.400000035763","img/question_1_6.jpeg","2","spm_respsonse","1","3","mat_06","","","","","","1","3094.400000035763","","","","","","","","","","","","","","",""
"","","","","","html-keyboard-response","200","463577","0.0-3.0-2.0-0.6","63e52076fc677ee3ccce9a4d","C3","batch3","","null","<p class=block-text>Trial 7 out of 60</p>","null","spm_show_trial_num","","","","","","","","","","","","","","","","","","","","","","","","",""
"","","","","","image-button-response","201","468526","0.0-3.0-2.0-1.6","63e52076fc677ee3ccce9a4d","C3","batch3","","4947.800000011921","img/question_1_7.jpeg","5","spm_respsonse","1","6","mat_07","","","","","","1","4947.800000011921","","","","","","","","","","","","","","",""
"","","","","","html-keyboard-response","202","469595","0.0-3.0-2.0-0.7","63e52076fc677ee3ccce9a4d","C3","batch3","","null","<p class=block-text>Trial 8 out of 60</p>","null","spm_show_trial_num","","","","","","","","","","","","","","","","","","","","","","","","",""
"","","","","","image-button-response","203","472216","0.0-3.0-2.0-1.7","63e52076fc677ee3ccce9a4d","C3","batch3","","2619.800000011921","img/question_1_8.jpeg","0","spm_respsonse","0","2","mat_08","","","","","","0","2619.800000011921","","","","","","","","","","","","","","",""
"","","","","","html-keyboard-response","204","473288","0.0-3.0-2.0-0.8","63e52076fc677ee3ccce9a4d","C3","batch3","","null","<p class=block-text>Trial 9 out of 60</p>","null","spm_show_trial_num","","","","","","","","","","","","","","","","","","","","","","","","",""
"","","","","","image-button-response","205","477106","0.0-3.0-2.0-1.8","63e52076fc677ee3ccce9a4d","C3","batch3","","3816.699999988079","img/question_1_9.jpeg","0","spm_respsonse","1","1","mat_09","","","","","","1","3816.699999988079","","","","","","","","","","","","","","",""
"","","","","","html-keyboard-response","206","478170","0.0-3.0-2.0-0.9","63e52076fc677ee3ccce9a4d","C3","batch3","","null","<p class=block-text>Trial 10 out of 60</p>","null","spm_show_trial_num","","","","","","","","","","","","","","","","","","","","","","","","",""
"","","","","","image-button-response","207","480820","0.0-3.0-2.0-1.9","63e52076fc677ee3ccce9a4d","C3","batch3","","2648.300000011921","img/question_1_10.jpeg","2","spm_respsonse","1","3","mat_10","","","","","","1","2648.300000011921","","","","","","","","","","","","","","",""
"","","","","","html-keyboard-response","208","481886","0.0-3.0-2.0-0.10","63e52076fc677ee3ccce9a4d","C3","batch3","","null","<p class=block-text>Trial 11 out of 60</p>","null","spm_show_trial_num","","","","","","","","","","","","","","","","","","","","","","","","",""
"","","","","","image-button-response","209","489028","0.0-3.0-2.0-1.10","63e52076fc677ee3ccce9a4d","C3","batch3","","7141.100000023842","img/question_1_11.jpeg","3","spm_respsonse","1","4","mat_11","","","","","","1","7141.100000023842","","","","","","","","","","","","","","",""
"","","","","","html-keyboard-response","210","490086","0.0-3.0-2.0-0.11","63e52076fc677ee3ccce9a4d","C3","batch3","","null","<p class=block-text>Trial 12 out of 60</p>","null","spm_show_trial_num","","","","","","","","","","","","","","","","","","","","","","","","",""
"","","","","","image-button-response","211","497060","0.0-3.0-2.0-1.11","63e52076fc677ee3ccce9a4d","C3","batch3","","6972.700000047684","img/question_1_12.jpeg","0","spm_respsonse","0","5","mat_12","","","","","","0","6972.700000047684","","","","","","","","","","","","","","",""
"","","","","","html-keyboard-response","212","498112","0.0-3.0-2.0-0.12","63e52076fc677ee3ccce9a4d","C3","batch3","","null","<p class=block-text>Trial 13 out of 60</p>","null","spm_show_trial_num","","","","","","","","","","","","","","","","","","","","","","","","",""
"","","","","","image-button-response","213","500810","0.0-3.0-2.0-1.12","63e52076fc677ee3ccce9a4d","C3","batch3","","2696.600000023842","img/question_2_1.jpeg","1","spm_respsonse","1","2","mat_13","","","","","","1","2696.600000023842","","","","","","","","","","","","","","",""
"","","","","","html-keyboard-response","214","501885","0.0-3.0-2.0-0.13","63e52076fc677ee3ccce9a4d","C3","batch3","","null","<p class=block-text>Trial 14 out of 60</p>","null","spm_show_trial_num","","","","","","","","","","","","","","","","","","","","","","","","",""
"","","","","","image-button-response","215","506412","0.0-3.0-2.0-1.13","63e52076fc677ee3ccce9a4d","C3","batch3","","4526.599999964237","img/question_2_2.jpeg","5","spm_respsonse","1","6","mat_14","","","","","","1","4526.599999964237","","","","","","","","","","","","","","",""
"","","","","","html-keyboard-response","216","507480","0.0-3.0-2.0-0.14","63e52076fc677ee3ccce9a4d","C3","batch3","","null","<p class=block-text>Trial 15 out of 60</p>","null","spm_show_trial_num","","","","","","","","","","","","","","","","","","","","","","","","",""
"","","","","","image-button-response","217","510064","0.0-3.0-2.0-1.14","63e52076fc677ee3ccce9a4d","C3","batch3","","2583.100000023842","img/question_2_3.jpeg","0","spm_respsonse","1","1","mat_15","","","","","","1","2583.100000023842","","","","","","","","","","","","","","",""
"","","","","","html-keyboard-response","218","511126","0.0-3.0-2.0-0.15","63e52076fc677ee3ccce9a4d","C3","batch3","","null","<p class=block-text>Trial 16 out of 60</p>","null","spm_show_trial_num","","","","","","","","","","","","","","","","","","","","","","","","",""
"","","","","","image-button-response","219","513732","0.0-3.0-2.0-1.15","63e52076fc677ee3ccce9a4d","C3","batch3","","2604.5","img/question_2_4.jpeg","1","spm_respsonse","1","2","mat_16","","","","","","1","2604.5","","","","","","","","","","","","","","",""
"","","","","","html-keyboard-response","220","514792","0.0-3.0-2.0-0.16","63e52076fc677ee3ccce9a4d","C3","batch3","","null","<p class=block-text>Trial 17 out of 60</p>","null","spm_show_trial_num","","","","","","","","","","","","","","","","","","","","","","","","",""
"","","","","","image-button-response","221","517608","0.0-3.0-2.0-1.16","63e52076fc677ee3ccce9a4d","C3","batch3","","2815.100000023842","img/question_2_5.jpeg","0","spm_respsonse","1","1","mat_17","","","","","","1","2815.100000023842","","","","","","","","","","","","","","",""
"","","","","","html-keyboard-response","222","518673","0.0-3.0-2.0-0.17","63e52076fc677ee3ccce9a4d","C3","batch3","","null","<p class=block-text>Trial 18 out of 60</p>","null","spm_show_trial_num","","","","","","","","","","","","","","","","","","","","","","","","",""
"","","","","","image-button-response","223","522334","0.0-3.0-2.0-1.17","63e52076fc677ee3ccce9a4d","C3","batch3","","3659.399999976158","img/question_2_6.jpeg","2","spm_respsonse","1","3","mat_18","","","","","","1","3659.399999976158","","","","","","","","","","","","","","",""
"","","","","","html-keyboard-response","224","523397","0.0-3.0-2.0-0.18","63e52076fc677ee3ccce9a4d","C3","batch3","","null","<p class=block-text>Trial 19 out of 60</p>","null","spm_show_trial_num","","","","","","","","","","","","","","","","","","","","","","","","",""
"","","","","","image-button-response","225","528648","0.0-3.0-2.0-1.18","63e52076fc677ee3ccce9a4d","C3","batch3","","5250.300000011921","img/question_2_7.jpeg","0","spm_respsonse","0","5","mat_19","","","","","","0","5250.300000011921","","","","","","","","","","","","","","",""
"","","","","","html-keyboard-response","226","529701","0.0-3.0-2.0-0.19","63e52076fc677ee3ccce9a4d","C3","batch3","","null","<p class=block-text>Trial 20 out of 60</p>","null","spm_show_trial_num","","","","","","","","","","","","","","","","","","","","","","","","",""
"","","","","","image-button-response","227","533350","0.0-3.0-2.0-1.19","63e52076fc677ee3ccce9a4d","C3","batch3","","3648","img/question_2_8.jpeg","5","spm_respsonse","1","6","mat_20","","","","","","1","3648","","","","","","","","","","","","","","",""
"","","","","","html-keyboard-response","228","534415","0.0-3.0-2.0-0.20","63e52076fc677ee3ccce9a4d","C3","batch3","","null","<p class=block-text>Trial 21 out of 60</p>","null","spm_show_trial_num","","","","","","","","","","","","","","","","","","","","","","","","",""
"","","","","","image-button-response","229","539966","0.0-3.0-2.0-1.20","63e52076fc677ee3ccce9a4d","C3","batch3","","5549.699999988079","img/question_2_9.jpeg","3","spm_respsonse","1","4","mat_21","","","","","","1","5549.699999988079","","","","","","","","","","","","","","",""
"","","","","","html-keyboard-response","230","541040","0.0-3.0-2.0-0.21","63e52076fc677ee3ccce9a4d","C3","batch3","","null","<p class=block-text>Trial 22 out of 60</p>","null","spm_show_trial_num","","","","","","","","","","","","","","","","","","","","","","","","",""
"","","","","","image-button-response","231","546210","0.0-3.0-2.0-1.21","63e52076fc677ee3ccce9a4d","C3","batch3","","5168.399999976158","img/question_2_10.jpeg","2","spm_respsonse","1","3","mat_22","","","","","","1","5168.399999976158","","","","","","","","","","","","","","",""
"","","","","","html-keyboard-response","232","547270","0.0-3.0-2.0-0.22","63e52076fc677ee3ccce9a4d","C3","batch3","","null","<p class=block-text>Trial 23 out of 60</p>","null","spm_show_trial_num","","","","","","","","","","","","","","","","","","","","","","","","",""
"","","","","","image-button-response","233","550450","0.0-3.0-2.0-1.22","63e52076fc677ee3ccce9a4d","C3","batch3","","3177.899999976158","img/question_2_11.jpeg","3","spm_respsonse","1","4","mat_23","","","","","","1","3177.899999976158","","","","","","","","","","","","","","",""
"","","","","","html-keyboard-response","234","551522","0.0-3.0-2.0-0.23","63e52076fc677ee3ccce9a4d","C3","batch3","","null","<p class=block-text>Trial 24 out of 60</p>","null","spm_show_trial_num","","","","","","","","","","","","","","","","","","","","","","","","",""
"","","","","","image-button-response","235","557629","0.0-3.0-2.0-1.23","63e52076fc677ee3ccce9a4d","C3","batch3","","6105","img/question_2_12.jpeg","1","spm_respsonse","0","5","mat_24","","","","","","0","6105","","","","","","","","","","","","","","",""
"","","","","","html-button-response","236","559719","0.0-3.0-3.0","63e52076fc677ee3ccce9a4d","C3","batch3","","1838.6000000238419","<p class = block-text>Attention check: Please choose 1<br></p>","0","attention_check","true","","","","","","","","","","","","","","","","","","","","","","","",""
"","","","","","html-keyboard-response","237","560520","0.0-3.0-4.0-0.0","63e52076fc677ee3ccce9a4d","C3","batch3","","null","<p class=block-text>Trial 25 out of 60</p>","null","spm_show_trial_num","","","","","","","","","","","","","","","","","","","","","","","","",""
"","","","","","image-button-response","238","567355","0.0-3.0-4.0-1.0","63e52076fc677ee3ccce9a4d","C3","batch3","","6832.899999976158","img/question_3_1.jpeg","7","spm_respsonse","1","8","mat_25","","","","","","1","6832.899999976158","","","","","","","","","","","","","","",""
"","","","","","html-keyboard-response","239","568406","0.0-3.0-4.0-0.1","63e52076fc677ee3ccce9a4d","C3","batch3","","null","<p class=block-text>Trial 26 out of 60</p>","null","spm_show_trial_num","","","","","","","","","","","","","","","","","","","","","","","","",""
"","","","","","image-button-response","240","574047","0.0-3.0-4.0-1.1","63e52076fc677ee3ccce9a4d","C3","batch3","","5639.099999964237","img/question_3_2.jpeg","1","spm_respsonse","1","2","mat_26","","","","","","1","5639.099999964237","","","","","","","","","","","","","","",""
"","","","","","html-keyboard-response","241","575112","0.0-3.0-4.0-0.2","63e52076fc677ee3ccce9a4d","C3","batch3","","null","<p class=block-text>Trial 27 out of 60</p>","null","spm_show_trial_num","","","","","","","","","","","","","","","","","","","","","","","","",""
"","","","","","image-button-response","242","582363","0.0-3.0-4.0-1.2","63e52076fc677ee3ccce9a4d","C3","batch3","","7249.5","img/question_3_3.jpeg","2","spm_respsonse","1","3","mat_27","","","","","","1","7249.5","","","","","","","","","","","","","","",""
"","","","","","html-keyboard-response","243","583417","0.0-3.0-4.0-0.3","63e52076fc677ee3ccce9a4d","C3","batch3","","null","<p class=block-text>Trial 28 out of 60</p>","null","spm_show_trial_num","","","","","","","","","","","","","","","","","","","","","","","","",""
"","","","","","image-button-response","244","593923","0.0-3.0-4.0-1.3","63e52076fc677ee3ccce9a4d","C3","batch3","","10504.800000011921","img/question_3_4.jpeg","7","spm_respsonse","1","8","mat_28","","","","","","1","10504.800000011921","","","","","","","","","","","","","","",""
"","","","","","html-keyboard-response","245","594978","0.0-3.0-4.0-0.4","63e52076fc677ee3ccce9a4d","C3","batch3","","null","<p class=block-text>Trial 29 out of 60</p>","null","spm_show_trial_num","","","","","","","","","","","","","","","","","","","","","","","","",""
"","","","","","image-button-response","246","608977","0.0-3.0-4.0-1.4","63e52076fc677ee3ccce9a4d","C3","batch3","","13998.300000011921","img/question_3_5.jpeg","6","spm_respsonse","1","7","mat_29","","","","","","1","13998.300000011921","","","","","","","","","","","","","","",""
"","","","","","html-keyboard-response","247","610037","0.0-3.0-4.0-0.5","63e52076fc677ee3ccce9a4d","C3","batch3","","null","<p class=block-text>Trial 30 out of 60</p>","null","spm_show_trial_num","","","","","","","","","","","","","","","","","","","","","","","","",""
"","","","","","image-button-response","248","617108","0.0-3.0-4.0-1.5","63e52076fc677ee3ccce9a4d","C3","batch3","","7071.100000023842","img/question_3_6.jpeg","3","spm_respsonse","1","4","mat_30","","","","","","1","7071.100000023842","","","","","","","","","","","","","","",""
"","","","","","html-keyboard-response","249","618174","0.0-3.0-4.0-0.6","63e52076fc677ee3ccce9a4d","C3","batch3","","null","<p class=block-text>Trial 31 out of 60</p>","null","spm_show_trial_num","","","","","","","","","","","","","","","","","","","","","","","","",""
"","","","","","image-button-response","250","624386","0.0-3.0-4.0-1.6","63e52076fc677ee3ccce9a4d","C3","batch3","","6211.099999964237","img/question_3_7.jpeg","4","spm_respsonse","1","5","mat_31","","","","","","1","6211.099999964237","","","","","","","","","","","","","","",""
"","","","","","html-keyboard-response","251","625441","0.0-3.0-4.0-0.7","63e52076fc677ee3ccce9a4d","C3","batch3","","null","<p class=block-text>Trial 32 out of 60</p>","null","spm_show_trial_num","","","","","","","","","","","","","","","","","","","","","","","","",""
"","","","","","image-button-response","252","652058","0.0-3.0-4.0-1.7","63e52076fc677ee3ccce9a4d","C3","batch3","","26615.19999998808","img/question_3_8.jpeg","0","spm_respsonse","1","1","mat_32","","","","","","1","26615.19999998808","","","","","","","","","","","","","","",""
"","","","","","html-keyboard-response","253","653110","0.0-3.0-4.0-0.8","63e52076fc677ee3ccce9a4d","C3","batch3","","null","<p class=block-text>Trial 33 out of 60</p>","null","spm_show_trial_num","","","","","","","","","","","","","","","","","","","","","","","","",""
"","","","","","image-button-response","254","659632","0.0-3.0-4.0-1.8","63e52076fc677ee3ccce9a4d","C3","batch3","","6520.800000011921","img/question_3_9.jpeg","0","spm_respsonse","0","7","mat_33","","","","","","0","6520.800000011921","","","","","","","","","","","","","","",""
"","","","","","html-keyboard-response","255","660683","0.0-3.0-4.0-0.9","63e52076fc677ee3ccce9a4d","C3","batch3","","null","<p class=block-text>Trial 34 out of 60</p>","null","spm_show_trial_num","","","","","","","","","","","","","","","","","","","","","","","","",""
"","","","","","image-button-response","256","669374","0.0-3.0-4.0-1.9","63e52076fc677ee3ccce9a4d","C3","batch3","","8688.599999964237","img/question_3_10.jpeg","5","spm_respsonse","1","6","mat_34","","","","","","1","8688.599999964237","","","","","","","","","","","","","","",""
"","","","","","html-keyboard-response","257","670434","0.0-3.0-4.0-0.10","63e52076fc677ee3ccce9a4d","C3","batch3","","null","<p class=block-text>Trial 35 out of 60</p>","null","spm_show_trial_num","","","","","","","","","","","","","","","","","","","","","","","","",""
"","","","","","image-button-response","258","682914","0.0-3.0-4.0-1.10","63e52076fc677ee3ccce9a4d","C3","batch3","","12478.800000011921","img/question_3_11.jpeg","0","spm_respsonse","1","1","mat_35","","","","","","1","12478.800000011921","","","","","","","","","","","","","","",""
"","","","","","html-keyboard-response","259","683977","0.0-3.0-4.0-0.11","63e52076fc677ee3ccce9a4d","C3","batch3","","null","<p class=block-text>Trial 36 out of 60</p>","null","spm_show_trial_num","","","","","","","","","","","","","","","","","","","","","","","","",""
"","","","","","image-button-response","260","699646","0.0-3.0-4.0-1.11","63e52076fc677ee3ccce9a4d","C3","batch3","","15667.599999964237","img/question_3_12.jpeg","1","spm_respsonse","1","2","mat_36","","","","","","1","15667.599999964237","","","","","","","","","","","","","","",""
"","","","","","html-keyboard-response","261","700702","0.0-3.0-4.0-0.12","63e52076fc677ee3ccce9a4d","C3","batch3","","null","<p class=block-text>Trial 37 out of 60</p>","null","spm_show_trial_num","","","","","","","","","","","","","","","","","","","","","","","","",""
"","","","","","image-button-response","262","703568","0.0-3.0-4.0-1.12","63e52076fc677ee3ccce9a4d","C3","batch3","","2864.600000023842","img/question_4_1.jpeg","2","spm_respsonse","1","3","mat_37","","","","","","1","2864.600000023842","","","","","","","","","","","","","","",""
"","","","","","html-keyboard-response","263","704630","0.0-3.0-4.0-0.13","63e52076fc677ee3ccce9a4d","C3","batch3","","null","<p class=block-text>Trial 38 out of 60</p>","null","spm_show_trial_num","","","","","","","","","","","","","","","","","","","","","","","","",""
"","","","","","image-button-response","264","709788","0.0-3.0-4.0-1.13","63e52076fc677ee3ccce9a4d","C3","batch3","","5156.799999952316","img/question_4_2.jpeg","3","spm_respsonse","1","4","mat_38","","","","","","1","5156.799999952316","","","","","","","","","","","","","","",""
"","","","","","html-keyboard-response","265","710844","0.0-3.0-4.0-0.14","63e52076fc677ee3ccce9a4d","C3","batch3","","null","<p class=block-text>Trial 39 out of 60</p>","null","spm_show_trial_num","","","","","","","","","","","","","","","","","","","","","","","","",""
"","","","","","image-button-response","266","715320","0.0-3.0-4.0-1.14","63e52076fc677ee3ccce9a4d","C3","batch3","","4474.699999988079","img/question_4_3.jpeg","2","spm_respsonse","1","3","mat_39","","","","","","1","4474.699999988079","","","","","","","","","","","","","","",""
"","","","","","html-keyboard-response","267","716372","0.0-3.0-4.0-0.15","63e52076fc677ee3ccce9a4d","C3","batch3","","null","<p class=block-text>Trial 40 out of 60</p>","null","spm_show_trial_num","","","","","","","","","","","","","","","","","","","","","","","","",""
"","","","","","image-button-response","268","723542","0.0-3.0-4.0-1.15","63e52076fc677ee3ccce9a4d","C3","batch3","","7168.300000011921","img/question_4_4.jpeg","6","spm_respsonse","1","7","mat_40","","","","","","1","7168.300000011921","","","","","","","","","","","","","","",""
"","","","","","html-keyboard-response","269","724604","0.0-3.0-4.0-0.16","63e52076fc677ee3ccce9a4d","C3","batch3","","null","<p class=block-text>Trial 41 out of 60</p>","null","spm_show_trial_num","","","","","","","","","","","","","","","","","","","","","","","","",""
"","","","","","image-button-response","270","734016","0.0-3.0-4.0-1.16","63e52076fc677ee3ccce9a4d","C3","batch3","","9410.099999964237","img/question_4_5.jpeg","1","spm_respsonse","0","8","mat_41","","","","","","0","9410.099999964237","","","","","","","","","","","","","","",""
"","","","","","html-keyboard-response","271","735068","0.0-3.0-4.0-0.17","63e52076fc677ee3ccce9a4d","C3","batch3","","null","<p class=block-text>Trial 42 out of 60</p>","null","spm_show_trial_num","","","","","","","","","","","","","","","","","","","","","","","","",""
"","","","","","image-button-response","272","746211","0.0-3.0-4.0-1.17","63e52076fc677ee3ccce9a4d","C3","batch3","","11140.699999988079","img/question_4_6.jpeg","5","spm_respsonse","1","6","mat_42","","","","","","1","11140.699999988079","","","","","","","","","","","","","","",""
"","","","","","html-keyboard-response","273","747273","0.0-3.0-4.0-0.18","63e52076fc677ee3ccce9a4d","C3","batch3","","null","<p class=block-text>Trial 43 out of 60</p>","null","spm_show_trial_num","","","","","","","","","","","","","","","","","","","","","","","","",""
"","","","","","image-button-response","274","761003","0.0-3.0-4.0-1.18","63e52076fc677ee3ccce9a4d","C3","batch3","","13728","img/question_4_7.jpeg","4","spm_respsonse","1","5","mat_43","","","","","","1","13728","","","","","","","","","","","","","","",""
"","","","","","html-keyboard-response","275","762056","0.0-3.0-4.0-0.19","63e52076fc677ee3ccce9a4d","C3","batch3","","null","<p class=block-text>Trial 44 out of 60</p>","null","spm_show_trial_num","","","","","","","","","","","","","","","","","","","","","","","","",""
"","","","","","image-button-response","276","778809","0.0-3.0-4.0-1.19","63e52076fc677ee3ccce9a4d","C3","batch3","","16750.80000001192","img/question_4_8.jpeg","7","spm_respsonse","0","4","mat_44","","","","","","0","16750.80000001192","","","","","","","","","","","","","","",""
"","","","","","html-keyboard-response","277","779861","0.0-3.0-4.0-0.20","63e52076fc677ee3ccce9a4d","C3","batch3","","null","<p class=block-text>Trial 45 out of 60</p>","null","spm_show_trial_num","","","","","","","","","","","","","","","","","","","","","","","","",""
"","","","","","image-button-response","278","799703","0.0-3.0-4.0-1.20","63e52076fc677ee3ccce9a4d","C3","batch3","","19840.799999952316","img/question_4_9.jpeg","0","spm_respsonse","1","1","mat_45","","","","","","1","19840.799999952316","","","","","","","","","","","","","","",""
"","","","","","html-keyboard-response","279","800756","0.0-3.0-4.0-0.21","63e52076fc677ee3ccce9a4d","C3","batch3","","null","<p class=block-text>Trial 46 out of 60</p>","null","spm_show_trial_num","","","","","","","","","","","","","","","","","","","","","","","","",""
"","","","","","image-button-response","280","824034","0.0-3.0-4.0-1.21","63e52076fc677ee3ccce9a4d","C3","batch3","","23276.80000001192","img/question_4_10.jpeg","1","spm_respsonse","1","2","mat_46","","","","","","1","23276.80000001192","","","","","","","","","","","","","","",""
"","","","","","html-keyboard-response","281","825087","0.0-3.0-4.0-0.22","63e52076fc677ee3ccce9a4d","C3","batch3","","null","<p class=block-text>Trial 47 out of 60</p>","null","spm_show_trial_num","","","","","","","","","","","","","","","","","","","","","","","","",""
"","","","","","image-button-response","282","853894","0.0-3.0-4.0-1.22","63e52076fc677ee3ccce9a4d","C3","batch3","","28806.099999964237","img/question_4_11.jpeg","7","spm_respsonse","0","5","mat_47","","","","","","0","28806.099999964237","","","","","","","","","","","","","","",""
"","","","","","html-keyboard-response","283","854952","0.0-3.0-4.0-0.23","63e52076fc677ee3ccce9a4d","C3","batch3","","null","<p class=block-text>Trial 48 out of 60</p>","null","spm_show_trial_num","","","","","","","","","","","","","","","","","","","","","","","","",""
"","","","","","image-button-response","284","885827","0.0-3.0-4.0-1.23","63e52076fc677ee3ccce9a4d","C3","batch3","","30872.600000023842","img/question_4_12.jpeg","3","spm_respsonse","0","6","mat_48","","","","","","0","30872.600000023842","","","","","","","","","","","","","","",""
"","","","","","html-keyboard-response","285","886895","0.0-3.0-4.0-0.24","63e52076fc677ee3ccce9a4d","C3","batch3","","null","<p class=block-text>Trial 49 out of 60</p>","null","spm_show_trial_num","","","","","","","","","","","","","","","","","","","","","","","","",""
"","","","","","image-button-response","286","896014","0.0-3.0-4.0-1.24","63e52076fc677ee3ccce9a4d","C3","batch3","","9117.100000023842","img/question_5_1.jpeg","0","spm_respsonse","0","7","mat_49","","","","","","0","9117.100000023842","","","","","","","","","","","","","","",""
"","","","","","html-keyboard-response","287","897066","0.0-3.0-4.0-0.25","63e52076fc677ee3ccce9a4d","C3","batch3","","null","<p class=block-text>Trial 50 out of 60</p>","null","spm_show_trial_num","","","","","","","","","","","","","","","","","","","","","","","","",""
"","","","","","image-button-response","288","905437","0.0-3.0-4.0-1.25","63e52076fc677ee3ccce9a4d","C3","batch3","","8369.300000011921","img/question_5_2.jpeg","5","spm_respsonse","1","6","mat_50","","","","","","1","8369.300000011921","","","","","","","","","","","","","","",""
"","","","","","html-keyboard-response","289","906508","0.0-3.0-4.0-0.26","63e52076fc677ee3ccce9a4d","C3","batch3","","null","<p class=block-text>Trial 51 out of 60</p>","null","spm_show_trial_num","","","","","","","","","","","","","","","","","","","","","","","","",""
"","","","","","image-button-response","290","921241","0.0-3.0-4.0-1.26","63e52076fc677ee3ccce9a4d","C3","batch3","","14730.699999988079","img/question_5_3.jpeg","7","spm_respsonse","1","8","mat_51","","","","","","1","14730.699999988079","","","","","","","","","","","","","","",""
"","","","","","html-keyboard-response","291","922292","0.0-3.0-4.0-0.27","63e52076fc677ee3ccce9a4d","C3","batch3","","null","<p class=block-text>Trial 52 out of 60</p>","null","spm_show_trial_num","","","","","","","","","","","","","","","","","","","","","","","","",""
"","","","","","image-button-response","292","936009","0.0-3.0-4.0-1.27","63e52076fc677ee3ccce9a4d","C3","batch3","","13715","img/question_5_4.jpeg","5","spm_respsonse","0","2","mat_52","","","","","","0","13715","","","","","","","","","","","","","","",""
"","","","","","html-keyboard-response","293","937065","0.0-3.0-4.0-0.28","63e52076fc677ee3ccce9a4d","C3","batch3","","null","<p class=block-text>Trial 53 out of 60</p>","null","spm_show_trial_num","","","","","","","","","","","","","","","","","","","","","","","","",""
"","","","","","image-button-response","294","947007","0.0-3.0-4.0-1.28","63e52076fc677ee3ccce9a4d","C3","batch3","","9941","img/question_5_5.jpeg","0","spm_respsonse","1","1","mat_53","","","","","","1","9941","","","","","","","","","","","","","","",""
"","","","","","html-keyboard-response","295","948065","0.0-3.0-4.0-0.29","63e52076fc677ee3ccce9a4d","C3","batch3","","null","<p class=block-text>Trial 54 out of 60</p>","null","spm_show_trial_num","","","","","","","","","","","","","","","","","","","","","","","","",""
"","","","","","image-button-response","296","972431","0.0-3.0-4.0-1.29","63e52076fc677ee3ccce9a4d","C3","batch3","","24364.80000001192","img/question_5_6.jpeg","1","spm_respsonse","0","5","mat_54","","","","","","0","24364.80000001192","","","","","","","","","","","","","","",""
"","","","","","html-keyboard-response","297","973491","0.0-3.0-4.0-0.30","63e52076fc677ee3ccce9a4d","C3","batch3","","null","<p class=block-text>Trial 55 out of 60</p>","null","spm_show_trial_num","","","","","","","","","","","","","","","","","","","","","","","","",""
"","","","","","image-button-response","298","995105","0.0-3.0-4.0-1.30","63e52076fc677ee3ccce9a4d","C3","batch3","","21612.599999964237","img/question_5_7.jpeg","5","spm_respsonse","0","1","mat_55","","","","","","0","21612.599999964237","","","","","","","","","","","","","","",""
"","","","","","html-keyboard-response","299","996158","0.0-3.0-4.0-0.31","63e52076fc677ee3ccce9a4d","C3","batch3","","null","<p class=block-text>Trial 56 out of 60</p>","null","spm_show_trial_num","","","","","","","","","","","","","","","","","","","","","","","","",""
"","","","","","image-button-response","300","1021170","0.0-3.0-4.0-1.31","63e52076fc677ee3ccce9a4d","C3","batch3","","25010.69999998808","img/question_5_8.jpeg","5","spm_respsonse","1","6","mat_56","","","","","","1","25010.69999998808","","","","","","","","","","","","","","",""
"","","","","","html-keyboard-response","301","1022236","0.0-3.0-4.0-0.32","63e52076fc677ee3ccce9a4d","C3","batch3","","null","<p class=block-text>Trial 57 out of 60</p>","null","spm_show_trial_num","","","","","","","","","","","","","","","","","","","","","","","","",""
"","","","","","image-button-response","302","1047862","0.0-3.0-4.0-1.32","63e52076fc677ee3ccce9a4d","C3","batch3","","25625.600000023842","img/question_5_9.jpeg","3","spm_respsonse","0","3","mat_57","","","","","","0","25625.600000023842","","","","","","","","","","","","","","",""
"","","","","","html-keyboard-response","303","1048922","0.0-3.0-4.0-0.33","63e52076fc677ee3ccce9a4d","C3","batch3","","null","<p class=block-text>Trial 58 out of 60</p>","null","spm_show_trial_num","","","","","","","","","","","","","","","","","","","","","","","","",""
"","","","","","image-button-response","304","1057104","0.0-3.0-4.0-1.33","63e52076fc677ee3ccce9a4d","C3","batch3","","8180.900000035763","img/question_5_10.jpeg","6","spm_respsonse","0","2","mat_58","","","","","","0","8180.900000035763","","","","","","","","","","","","","","",""
"","","","","","html-keyboard-response","305","1058158","0.0-3.0-4.0-0.34","63e52076fc677ee3ccce9a4d","C3","batch3","","null","<p class=block-text>Trial 59 out of 60</p>","null","spm_show_trial_num","","","","","","","","","","","","","","","","","","","","","","","","",""
"","","","","","image-button-response","306","1078392","0.0-3.0-4.0-1.34","63e52076fc677ee3ccce9a4d","C3","batch3","","20231.80000001192","img/question_5_11.jpeg","2","spm_respsonse","0","4","mat_59","","","","","","0","20231.80000001192","","","","","","","","","","","","","","",""
"","","","","","html-keyboard-response","307","1079443","0.0-3.0-4.0-0.35","63e52076fc677ee3ccce9a4d","C3","batch3","","null","<p class=block-text>Trial 60 out of 60</p>","null","spm_show_trial_num","","","","","","","","","","","","","","","","","","","","","","","","",""
"","","","","","image-button-response","308","1094424","0.0-3.0-4.0-1.35","63e52076fc677ee3ccce9a4d","C3","batch3","","14978.199999988079","img/question_5_12.jpeg","2","spm_respsonse","0","5","mat_60","","","","","","0","14978.199999988079","","","","","","","","","","","","","","",""
"","","","","","html-button-response","309","1096992","0.0-3.0-5.0","63e52076fc677ee3ccce9a4d","C3","batch3","","2307.5","<p class= block-text>This concludes the Standard Progressive Matrix game. Thank you for your responses!<br> When you are ready, click the button continue</p>","0","spm_goodbye","","","","","","","","","","","","","","","","","","","","","","","","",""
"true","","","","","fullscreen","310","1102262","0.0-4.0-0.0","63e52076fc677ee3ccce9a4d","C3","batch3","","","","","","","","","","","","","","","","","","","","","","","","","","","","","",""
"","","","","","instructions","311","1145601","0.0-4.0-1.0-0.0-0.0","63e52076fc677ee3ccce9a4d","C3","batch3","[{""page_index"":0,""viewing_time"":8541},{""page_index"":1,""viewing_time"":4222.300000011921},{""page_index"":2,""viewing_time"":4509.899999976158},{""page_index"":3,""viewing_time"":10053.900000035763},{""page_index"":4,""viewing_time"":6560.199999988079},{""page_index"":5,""viewing_time"":6573.899999976158},{""page_index"":6,""viewing_time"":2875.900000035763}]","43337.30000001192","","","tol-instructions","","","","","","","","","","","","","","","","","","","","","","","","",""
"","","","","","html-button-response","312","1146599","0.0-4.0-1.0-1.0-0.0","63e52076fc677ee3ccce9a4d","C3","batch3","","997.3999999761581","<p class=block-text> Let's answer a few questions <br>","0","tol_enter_quiz","","","","","","","","","","","","","","","","","","","","","","","","",""
"","","","","","html-button-response","313","1155981","0.0-4.0-1.0-1.0-1.0","63e52076fc677ee3ccce9a4d","C3","batch3","","9381.400000035763","<p class = block-text>True or False: You can only move the ball on top of a peg. <br></p>","1","tol_quiz","false","","","","","","","","","","","","","","","","","","","","","","","",""
"","","","","","html-button-response","314","1157119","0.0-4.0-1.0-1.0-2.0","63e52076fc677ee3ccce9a4d","C3","batch3","","1137.3999999761581","<p class = block-text>Incorrect. Remember, you can only move the ball on top of a peg.</p>","0","tol_quiz_feedback","","","","","","","","","","","","","","","","","","","","","","","","",""
"","","","","","html-button-response","315","1158883","0.0-4.0-1.0-1.0-3.0","63e52076fc677ee3ccce9a4d","C3","batch3","","1763.300000011921","<p class = block-text>True or False: You should try to match your board with the target board with fewest moves possible. <br></p>","0","tol_quiz","true","","","","","","","","","","","","","","","","","","","","","","","",""
"","","","","","html-button-response","316","1159763","0.0-4.0-1.0-1.0-4.0","63e52076fc677ee3ccce9a4d","C3","batch3","","879.6999999880791","<p class = block-text>Correct! </p>","0","tol_quiz_feedback","","","","","","","","","","","","","","","","","","","","","","","","",""
"","","","","","html-button-response","317","1160599","0.0-4.0-1.0-2.0-0.0","63e52076fc677ee3ccce9a4d","C3","batch3","","835.3999999761581","<p class = block-text>You made too many incorrect choices.</p><p class = block-text>You will now repeat the instructions and quiz</p>","0","","","","","","","","","","","","","","","","","","","","","","","","","",""
"","","","","","instructions","318","1165347","0.0-4.0-1.1-0.1-0.1","63e52076fc677ee3ccce9a4d","C3","batch3","[{""page_index"":0,""viewing_time"":1035.1000000238419},{""page_index"":1,""viewing_time"":480},{""page_index"":2,""viewing_time"":666.0999999642372},{""page_index"":3,""viewing_time"":586.1000000238419},{""page_index"":4,""viewing_time"":487.89999997615814},{""page_index"":5,""viewing_time"":480.10000002384186},{""page_index"":6,""viewing_time"":1012.1000000238419}]","4747.400000035763","","","tol-instructions","","","","","","","","","","","","","","","","","","","","","","","","",""
"","","","","","html-button-response","319","1166105","0.0-4.0-1.1-1.1-0.1","63e52076fc677ee3ccce9a4d","C3","batch3","","757.3999999761581","<p class=block-text> Let's answer a few questions <br>","0","tol_enter_quiz","","","","","","","","","","","","","","","","","","","","","","","","",""
"","","","","","html-button-response","320","1167165","0.0-4.0-1.1-1.1-1.1","63e52076fc677ee3ccce9a4d","C3","batch3","","1059.0999999642372","<p class = block-text>True or False: You can only move the ball on top of a peg. <br></p>","0","tol_quiz","true","","","","","","","","","","","","","","","","","","","","","","","",""
"","","","","","html-button-response","321","1167823","0.0-4.0-1.1-1.1-2.1","63e52076fc677ee3ccce9a4d","C3","batch3","","657.8000000119209","<p class = block-text>Correct! You can only move the ball on top of a peg.</p>","0","tol_quiz_feedback","","","","","","","","","","","","","","","","","","","","","","","","",""
"","","","","","html-button-response","322","1169895","0.0-4.0-1.1-1.1-3.1","63e52076fc677ee3ccce9a4d","C3","batch3","","2071.399999976158","<p class = block-text>True or False: You should try to match your board with the target board with fewest moves possible. <br></p>","0","tol_quiz","true","","","","","","","","","","","","","","","","","","","","","","","",""
"","","","","","html-button-response","323","1170514","0.0-4.0-1.1-1.1-4.1","63e52076fc677ee3ccce9a4d","C3","batch3","","619.3999999761581","<p class = block-text>Correct! </p>","0","tol_quiz_feedback","","","","","","","","","","","","","","","","","","","","","","","","",""
"","","","","","html-button-response","324","1172425","0.0-4.0-2.0","63e52076fc677ee3ccce9a4d","C3","batch3","","1909.5","<p class=block-text> Now that you've understood the game, let's practice a few easier examples before we start!<br> <br>","0","","","","","","","","","","","","","","","","","","","","","","","","","",""
"","","","","","single-stim-button","325","1176378","0.0-4.0-3.0-0.0","63e52076fc677ee3ccce9a4d","C3","batch3","","3952","","","tol_practice","","","","","","","","","","","tol_peg_2","3952","3952","0","[[1,2,0],[0,0],[0]]","1","[[1,2,0],[0,0],[3]]","practice","3952","","","","","",""
"","","","","","single-stim-button","326","1177693","0.0-4.0-3.0-1.0","63e52076fc677ee3ccce9a4d","C3","batch3","","1314","","","tol_practice","","","","","","","","","","","tol_peg_3","1314","1314","0","[[1,2,0],[0,0],[3]]","1","[[1,2,0],[0,0],[3]]","practice","1314","","","","","",""
"","","","","","poldrack-single-stim","327","1178695","0.0-4.0-4.0","63e52076fc677ee3ccce9a4d","C3","batch3","","-1","","","tol_feedback","true","","","","","","","","","","","1000","1000","500","","","","","","-1","none","true","","0",""
"","","","","","single-stim-button","328","1181821","0.0-4.0-5.0-0.0","63e52076fc677ee3ccce9a4d","C3","batch3","","3126","","","tol_practice","","","","","","","","","","","tol_peg_1","3126","3126","0","[[1,0,0],[3,0],[0]]","2","[[0,0,0],[3,1],[2]]","practice","3126","","","","","",""
"","","","","","single-stim-button","329","1182997","0.0-4.0-5.0-1.0","63e52076fc677ee3ccce9a4d","C3","batch3","","1176","","","tol_practice","","","","","","","","","","","tol_peg_3","1176","1176","0","[[1,0,0],[3,0],[2]]","2","[[0,0,0],[3,1],[2]]","practice","1176","","","","","",""
"","","","","","single-stim-button","330","1189765","0.0-4.0-5.1-0.1","63e52076fc677ee3ccce9a4d","C3","batch3","","6768","","","tol_practice","","","","","","","","","","","tol_peg_1","6768","6768","0","[[0,0,0],[3,0],[2]]","3","[[0,0,0],[3,1],[2]]","practice","6768","","","","","",""
"","","","","","single-stim-button","331","1190297","0.0-4.0-5.1-1.1","63e52076fc677ee3ccce9a4d","C3","batch3","","532","","","tol_practice","","","","","","","","","","","tol_peg_2","532","532","0","[[0,0,0],[3,1],[2]]","3","[[0,0,0],[3,1],[2]]","practice","532","","","","","",""
"","","","","","poldrack-single-stim","332","1191298","0.0-4.0-6.0","63e52076fc677ee3ccce9a4d","C3","batch3","","-1","","","tol_feedback","true","","","","","","","","","","","1000","1000","500","","","","","","-1","none","true","","0",""
"","","","","","single-stim-button","333","1193715","0.0-4.0-7.0-0.0","63e52076fc677ee3ccce9a4d","C3","batch3","","2415","","","tol_practice","","","","","","","","","","","tol_peg_2","2415","2415","0","[[1,2,0],[0,0],[0]]","4","[[1,0,0],[2,0],[3]]","practice","2415","","","","","",""
"","","","","","single-stim-button","334","1194357","0.0-4.0-7.0-1.0","63e52076fc677ee3ccce9a4d","C3","batch3","","642","","","tol_practice","","","","","","","","","","","tol_peg_3","642","642","0","[[1,2,0],[0,0],[3]]","4","[[1,0,0],[2,0],[3]]","practice","642","","","","","",""
"","","","","","single-stim-button","335","1195101","0.0-4.0-7.1-0.1","63e52076fc677ee3ccce9a4d","C3","batch3","","742","","","tol_practice","","","","","","","","","","","tol_peg_1","742","742","0","[[1,0,0],[0,0],[3]]","5","[[1,0,0],[2,0],[3]]","practice","742","","","","","",""
"","","","","","single-stim-button","336","1195649","0.0-4.0-7.1-1.1","63e52076fc677ee3ccce9a4d","C3","batch3","","547","","","tol_practice","","","","","","","","","","","tol_peg_2","547","547","0","[[1,0,0],[2,0],[3]]","5","[[1,0,0],[2,0],[3]]","practice","547","","","","","",""
"","","","","","poldrack-single-stim","337","1196650","0.0-4.0-8.0","63e52076fc677ee3ccce9a4d","C3","batch3","","-1","","","tol_feedback","true","","","","","","","","","","","1000","1000","500","","","","","","-1","none","true","","0",""
"","","","","","html-button-response","338","1199423","0.0-4.0-9.0","63e52076fc677ee3ccce9a4d","C3","batch3","","2771.7999999523163","<div class = centerbox><p class = center-block-text>Great job! You are done with practice trials<br>You are about to start official trials.<br> <br> Problem <strong>1</strong> out of 25 problems</p></div>","0","tol_instruction","","","","","","","","","","","","","","","","","","","","","","","","",""
"","","","","","single-stim-button","339","1204249","0.0-4.0-10.0-0.0","63e52076fc677ee3ccce9a4d","C3","batch3","","3825","","","tol_tohand","","","","","","","","","","","tol_peg_2","3825","3825","0","[[1,2,0],[0,0],[0]]","1","[[1,3,0],[2,0],[0]]","0","0","","","","","","3"
"","","","","","single-stim-button","340","1204775","0.0-4.0-10.0-1.0","63e52076fc677ee3ccce9a4d","C3","batch3","","526","","","tol_toboard","","","","","","","","","","","tol_peg_3","526","526","0","[[1,2,0],[0,0],[3]]","1","[[1,3,0],[2,0],[0]]","0","0","","","","","","3"
"","","","","","single-stim-button","341","1205657","0.0-4.0-10.1-0.1","63e52076fc677ee3ccce9a4d","C3","batch3","","882","","","tol_tohand","","","","","","","","","","","tol_peg_1","882","882","0","[[1,0,0],[0,0],[3]]","2","[[1,3,0],[2,0],[0]]","0","0","","","","","","3"
"","","","","","single-stim-button","342","1206407","0.0-4.0-10.1-1.1","63e52076fc677ee3ccce9a4d","C3","batch3","","750","","","tol_toboard","","","","","","","","","","","tol_peg_2","750","750","0","[[1,0,0],[2,0],[3]]","2","[[1,3,0],[2,0],[0]]","0","0","","","","","","3"
"","","","","","single-stim-button","343","1207444","0.0-4.0-10.2-0.2","63e52076fc677ee3ccce9a4d","C3","batch3","","1037","","","tol_tohand","","","","","","","","","","","tol_peg_3","1037","1037","0","[[1,0,0],[2,0],[0]]","3","[[1,3,0],[2,0],[0]]","0","0","","","","","","3"
"","","","","","single-stim-button","344","1208039","0.0-4.0-10.2-1.2","63e52076fc677ee3ccce9a4d","C3","batch3","","595","","","tol_toboard","","","","","","","","","","","tol_peg_1","595","595","0","[[1,3,0],[2,0],[0]]","3","[[1,3,0],[2,0],[0]]","0","0","","","","","","3"
