"success","timeout","failed_images","failed_audio","failed_video","trial_type","trial_index","time_elapsed","internal_node_id","subject_id","study_id","session_id","task","rt","stimulus","response","item","answer","correct","spm_correct","spm_rt","view_history","mouse_click","stim_duration","block_duration","timing_post_trial","current_position","tol_num_moves_made","tol_target","tol_problem_id","tol_rt","key_press","possible_responses","tol_correct","preplanning","tol_rt_per_trial","tol_min_moves","fiar_detect_rt","fiar_detect_correct","total_correct_fiar_detect","post_trial_gap","choices"
"true","false","[]","[]","[]","preload","0","8178","0.0-0.0","63e857fe022e159687d56f41","C3","batch3","","","","","","","","","","","","","","","","","","","","","","","","","","","","","",""
"true","","","","","fullscreen","1","264996","0.0-1.0-0.0","63e857fe022e159687d56f41","C3","batch3","","","","","","","","","","","","","","","","","","","","","","","","","","","","","",""
"true","","","","","fullscreen","2","270243","0.0-2.0-0.0","63e857fe022e159687d56f41","C3","batch3","spm_fullscreen","","","","","","","","","","","","","","","","","","","","","","","","","","","","",""
"","","","","","html-button-response","3","297544","0.0-2.0-1.0","63e857fe022e159687d56f41","C3","batch3","","27298.30000001192","<p class = block-text><b>Instructions</b> <br>This is a widely used intelligence test in research. <br>In this test, a figure with a missing piece will be presented.<br>Below the figure are alternative pieces to complete the figure, only one of which is correct.<br> Different figures might involve different principles for obtaining the missing piece<br>Your job is to select the most logical piece to complete the figure.</p>","0","","","","","","","","","","","","","","","","","","","","","","","","","",""
"","","","","","html-keyboard-response","4","298359","0.0-2.0-2.0-0.0","63e857fe022e159687d56f41","C3","batch3","spm_show_trial_num","null","<p class=block-text>Trial 1 out of 60</p>","null","","","","","","","","","","","","","","","","","","","","","","","","","",""
"","","","","","image-button-response","5","308117","0.0-2.0-2.0-1.0","63e857fe022e159687d56f41","C3","batch3","spm_respsonse","9748.399999976158","img/question_1_1.jpeg","3","mat_01","4","1","1","9748.399999976158","","","","","","","","","","","","","","","","","","","","",""
"","","","","","html-keyboard-response","6","309180","0.0-2.0-2.0-0.1","63e857fe022e159687d56f41","C3","batch3","spm_show_trial_num","null","<p class=block-text>Trial 2 out of 60</p>","null","","","","","","","","","","","","","","","","","","","","","","","","","",""
"","","","","","image-button-response","7","314427","0.0-2.0-2.0-1.1","63e857fe022e159687d56f41","C3","batch3","spm_respsonse","5243.400000035763","img/question_1_2.jpeg","4","mat_02","5","1","1","5243.400000035763","","","","","","","","","","","","","","","","","","","","",""
"","","","","","html-keyboard-response","8","315491","0.0-2.0-2.0-0.2","63e857fe022e159687d56f41","C3","batch3","spm_show_trial_num","null","<p class=block-text>Trial 3 out of 60</p>","null","","","","","","","","","","","","","","","","","","","","","","","","","",""
"","","","","","image-button-response","9","321380","0.0-2.0-2.0-1.2","63e857fe022e159687d56f41","C3","batch3","spm_respsonse","5884.900000035763","img/question_1_3.jpeg","0","mat_03","1","1","1","5884.900000035763","","","","","","","","","","","","","","","","","","","","",""
"","","","","","html-keyboard-response","10","322435","0.0-2.0-2.0-0.3","63e857fe022e159687d56f41","C3","batch3","spm_show_trial_num","null","<p class=block-text>Trial 4 out of 60</p>","null","","","","","","","","","","","","","","","","","","","","","","","","","",""
"","","","","","image-button-response","11","328999","0.0-2.0-2.0-1.3","63e857fe022e159687d56f41","C3","batch3","spm_respsonse","6561.099999964237","img/question_1_4.jpeg","1","mat_04","2","1","1","6561.099999964237","","","","","","","","","","","","","","","","","","","","",""
"","","","","","html-keyboard-response","12","330065","0.0-2.0-2.0-0.4","63e857fe022e159687d56f41","C3","batch3","spm_show_trial_num","null","<p class=block-text>Trial 5 out of 60</p>","null","","","","","","","","","","","","","","","","","","","","","","","","","",""
"","","","","","image-button-response","13","340732","0.0-2.0-2.0-1.4","63e857fe022e159687d56f41","C3","batch3","spm_respsonse","10662.899999976158","img/question_1_5.jpeg","5","mat_05","6","1","1","10662.899999976158","","","","","","","","","","","","","","","","","","","","",""
"","","","","","html-keyboard-response","14","341786","0.0-2.0-2.0-0.5","63e857fe022e159687d56f41","C3","batch3","spm_show_trial_num","null","<p class=block-text>Trial 6 out of 60</p>","null","","","","","","","","","","","","","","","","","","","","","","","","","",""
"","","","","","image-button-response","15","349949","0.0-2.0-2.0-1.5","63e857fe022e159687d56f41","C3","batch3","spm_respsonse","8159.5","img/question_1_6.jpeg","2","mat_06","3","1","1","8159.5","","","","","","","","","","","","","","","","","","","","",""
"","","","","","html-keyboard-response","16","351011","0.0-2.0-2.0-0.6","63e857fe022e159687d56f41","C3","batch3","spm_show_trial_num","null","<p class=block-text>Trial 7 out of 60</p>","null","","","","","","","","","","","","","","","","","","","","","","","","","",""
"","","","","","image-button-response","17","360733","0.0-2.0-2.0-1.6","63e857fe022e159687d56f41","C3","batch3","spm_respsonse","9717.200000047684","img/question_1_7.jpeg","5","mat_07","6","1","1","9717.200000047684","","","","","","","","","","","","","","","","","","","","",""
"","","","","","html-keyboard-response","18","361799","0.0-2.0-2.0-0.7","63e857fe022e159687d56f41","C3","batch3","spm_show_trial_num","null","<p class=block-text>Trial 8 out of 60</p>","null","","","","","","","","","","","","","","","","","","","","","","","","","",""
"","","","","","image-button-response","19","376015","0.0-2.0-2.0-1.7","63e857fe022e159687d56f41","C3","batch3","spm_respsonse","14212.199999988079","img/question_1_8.jpeg","1","mat_08","2","1","1","14212.199999988079","","","","","","","","","","","","","","","","","","","","",""
"","","","","","html-keyboard-response","20","377069","0.0-2.0-2.0-0.8","63e857fe022e159687d56f41","C3","batch3","spm_show_trial_num","null","<p class=block-text>Trial 9 out of 60</p>","null","","","","","","","","","","","","","","","","","","","","","","","","","",""
"","","","","","image-button-response","21","390341","0.0-2.0-2.0-1.8","63e857fe022e159687d56f41","C3","batch3","spm_respsonse","13268.899999976158","img/question_1_9.jpeg","0","mat_09","1","1","1","13268.899999976158","","","","","","","","","","","","","","","","","","","","",""
"","","","","","html-keyboard-response","22","391405","0.0-2.0-2.0-0.9","63e857fe022e159687d56f41","C3","batch3","spm_show_trial_num","null","<p class=block-text>Trial 10 out of 60</p>","null","","","","","","","","","","","","","","","","","","","","","","","","","",""
"","","","","","image-button-response","23","399247","0.0-2.0-2.0-1.9","63e857fe022e159687d56f41","C3","batch3","spm_respsonse","7834.100000023842","img/question_1_10.jpeg","2","mat_10","3","1","1","7834.100000023842","","","","","","","","","","","","","","","","","","","","",""
"","","","","","html-keyboard-response","24","400310","0.0-2.0-2.0-0.10","63e857fe022e159687d56f41","C3","batch3","spm_show_trial_num","null","<p class=block-text>Trial 11 out of 60</p>","null","","","","","","","","","","","","","","","","","","","","","","","","","",""
"","","","","","image-button-response","25","451180","0.0-2.0-2.0-1.10","63e857fe022e159687d56f41","C3","batch3","spm_respsonse","50866.30000001192","img/question_1_11.jpeg","3","mat_11","4","1","1","50866.30000001192","","","","","","","","","","","","","","","","","","","","",""
"","","","","","html-keyboard-response","26","452255","0.0-2.0-2.0-0.11","63e857fe022e159687d56f41","C3","batch3","spm_show_trial_num","null","<p class=block-text>Trial 12 out of 60</p>","null","","","","","","","","","","","","","","","","","","","","","","","","","",""
"","","","","","image-button-response","27","464039","0.0-2.0-2.0-1.11","63e857fe022e159687d56f41","C3","batch3","spm_respsonse","11779.5","img/question_1_12.jpeg","4","mat_12","5","1","1","11779.5","","","","","","","","","","","","","","","","","","","","",""
"","","","","","html-keyboard-response","28","465111","0.0-2.0-2.0-0.12","63e857fe022e159687d56f41","C3","batch3","spm_show_trial_num","null","<p class=block-text>Trial 13 out of 60</p>","null","","","","","","","","","","","","","","","","","","","","","","","","","",""
"","","","","","image-button-response","29","469916","0.0-2.0-2.0-1.12","63e857fe022e159687d56f41","C3","batch3","spm_respsonse","4800.300000011921","img/question_2_1.jpeg","1","mat_13","2","1","1","4800.300000011921","","","","","","","","","","","","","","","","","","","","",""
"","","","","","html-keyboard-response","30","470993","0.0-2.0-2.0-0.13","63e857fe022e159687d56f41","C3","batch3","spm_show_trial_num","null","<p class=block-text>Trial 14 out of 60</p>","null","","","","","","","","","","","","","","","","","","","","","","","","","",""
"","","","","","image-button-response","31","475494","0.0-2.0-2.0-1.13","63e857fe022e159687d56f41","C3","batch3","spm_respsonse","4497.599999964237","img/question_2_2.jpeg","5","mat_14","6","1","1","4497.599999964237","","","","","","","","","","","","","","","","","","","","",""
"","","","","","html-keyboard-response","32","476572","0.0-2.0-2.0-0.14","63e857fe022e159687d56f41","C3","batch3","spm_show_trial_num","null","<p class=block-text>Trial 15 out of 60</p>","null","","","","","","","","","","","","","","","","","","","","","","","","","",""
"","","","","","image-button-response","33","481928","0.0-2.0-2.0-1.14","63e857fe022e159687d56f41","C3","batch3","spm_respsonse","5352.899999976158","img/question_2_3.jpeg","0","mat_15","1","1","1","5352.899999976158","","","","","","","","","","","","","","","","","","","","",""
"","","","","","html-keyboard-response","34","482993","0.0-2.0-2.0-0.15","63e857fe022e159687d56f41","C3","batch3","spm_show_trial_num","null","<p class=block-text>Trial 16 out of 60</p>","null","","","","","","","","","","","","","","","","","","","","","","","","","",""
"","","","","","image-button-response","35","488100","0.0-2.0-2.0-1.15","63e857fe022e159687d56f41","C3","batch3","spm_respsonse","5103.899999976158","img/question_2_4.jpeg","1","mat_16","2","1","1","5103.899999976158","","","","","","","","","","","","","","","","","","","","",""
"","","","","","html-keyboard-response","36","489157","0.0-2.0-2.0-0.16","63e857fe022e159687d56f41","C3","batch3","spm_show_trial_num","null","<p class=block-text>Trial 17 out of 60</p>","null","","","","","","","","","","","","","","","","","","","","","","","","","",""
"","","","","","image-button-response","37","494641","0.0-2.0-2.0-1.16","63e857fe022e159687d56f41","C3","batch3","spm_respsonse","5480.800000011921","img/question_2_5.jpeg","0","mat_17","1","1","1","5480.800000011921","","","","","","","","","","","","","","","","","","","","",""
"","","","","","html-keyboard-response","38","495705","0.0-2.0-2.0-0.17","63e857fe022e159687d56f41","C3","batch3","spm_show_trial_num","null","<p class=block-text>Trial 18 out of 60</p>","null","","","","","","","","","","","","","","","","","","","","","","","","","",""
"","","","","","image-button-response","39","510187","0.0-2.0-2.0-1.17","63e857fe022e159687d56f41","C3","batch3","spm_respsonse","14479","img/question_2_6.jpeg","2","mat_18","3","1","1","14479","","","","","","","","","","","","","","","","","","","","",""
"","","","","","html-keyboard-response","40","511253","0.0-2.0-2.0-0.18","63e857fe022e159687d56f41","C3","batch3","spm_show_trial_num","null","<p class=block-text>Trial 19 out of 60</p>","null","","","","","","","","","","","","","","","","","","","","","","","","","",""
"","","","","","image-button-response","41","520072","0.0-2.0-2.0-1.18","63e857fe022e159687d56f41","C3","batch3","spm_respsonse","8814","img/question_2_7.jpeg","4","mat_19","5","1","1","8814","","","","","","","","","","","","","","","","","","","","",""
"","","","","","html-keyboard-response","42","521149","0.0-2.0-2.0-0.19","63e857fe022e159687d56f41","C3","batch3","spm_show_trial_num","null","<p class=block-text>Trial 20 out of 60</p>","null","","","","","","","","","","","","","","","","","","","","","","","","","",""
"","","","","","image-button-response","43","531390","0.0-2.0-2.0-1.19","63e857fe022e159687d56f41","C3","batch3","spm_respsonse","10237.300000011921","img/question_2_8.jpeg","5","mat_20","6","1","1","10237.300000011921","","","","","","","","","","","","","","","","","","","","",""
"","","","","","html-keyboard-response","44","532458","0.0-2.0-2.0-0.20","63e857fe022e159687d56f41","C3","batch3","spm_show_trial_num","null","<p class=block-text>Trial 21 out of 60</p>","null","","","","","","","","","","","","","","","","","","","","","","","","","",""
"","","","","","image-button-response","45","539109","0.0-2.0-2.0-1.20","63e857fe022e159687d56f41","C3","batch3","spm_respsonse","6646.900000035763","img/question_2_9.jpeg","5","mat_21","4","0","0","6646.900000035763","","","","","","","","","","","","","","","","","","","","",""
"","","","","","html-keyboard-response","46","540175","0.0-2.0-2.0-0.21","63e857fe022e159687d56f41","C3","batch3","spm_show_trial_num","null","<p class=block-text>Trial 22 out of 60</p>","null","","","","","","","","","","","","","","","","","","","","","","","","","",""
"","","","","","image-button-response","47","545454","0.0-2.0-2.0-1.21","63e857fe022e159687d56f41","C3","batch3","spm_respsonse","5274.699999988079","img/question_2_10.jpeg","2","mat_22","3","1","1","5274.699999988079","","","","","","","","","","","","","","","","","","","","",""
"","","","","","html-keyboard-response","48","546514","0.0-2.0-2.0-0.22","63e857fe022e159687d56f41","C3","batch3","spm_show_trial_num","null","<p class=block-text>Trial 23 out of 60</p>","null","","","","","","","","","","","","","","","","","","","","","","","","","",""
"","","","","","image-button-response","49","554162","0.0-2.0-2.0-1.22","63e857fe022e159687d56f41","C3","batch3","spm_respsonse","7643.200000047684","img/question_2_11.jpeg","3","mat_23","4","1","1","7643.200000047684","","","","","","","","","","","","","","","","","","","","",""
"","","","","","html-keyboard-response","50","555223","0.0-2.0-2.0-0.23","63e857fe022e159687d56f41","C3","batch3","spm_show_trial_num","null","<p class=block-text>Trial 24 out of 60</p>","null","","","","","","","","","","","","","","","","","","","","","","","","","",""
"","","","","","image-button-response","51","570577","0.0-2.0-2.0-1.23","63e857fe022e159687d56f41","C3","batch3","spm_respsonse","15350","img/question_2_12.jpeg","2","mat_24","5","0","0","15350","","","","","","","","","","","","","","","","","","","","",""
"","","","","","html-button-response","52","572382","0.0-2.0-3.0","63e857fe022e159687d56f41","C3","batch3","attention_check","1551.300000011921","<p class = block-text>Attention check: Please choose 1<br></p>","0","","","true","","","","","","","","","","","","","","","","","","","","","","",""
"","","","","","html-keyboard-response","53","573190","0.0-2.0-4.0-0.0","63e857fe022e159687d56f41","C3","batch3","spm_show_trial_num","null","<p class=block-text>Trial 25 out of 60</p>","null","","","","","","","","","","","","","","","","","","","","","","","","","",""
"","","","","","image-button-response","54","582547","0.0-2.0-4.0-1.0","63e857fe022e159687d56f41","C3","batch3","spm_respsonse","9352.200000047684","img/question_3_1.jpeg","7","mat_25","8","1","1","9352.200000047684","","","","","","","","","","","","","","","","","","","","",""
"","","","","","html-keyboard-response","55","583615","0.0-2.0-4.0-0.1","63e857fe022e159687d56f41","C3","batch3","spm_show_trial_num","null","<p class=block-text>Trial 26 out of 60</p>","null","","","","","","","","","","","","","","","","","","","","","","","","","",""
"","","","","","image-button-response","56","595125","0.0-2.0-4.0-1.1","63e857fe022e159687d56f41","C3","batch3","spm_respsonse","11505.300000011921","img/question_3_2.jpeg","1","mat_26","2","1","1","11505.300000011921","","","","","","","","","","","","","","","","","","","","",""
"","","","","","html-keyboard-response","57","596198","0.0-2.0-4.0-0.2","63e857fe022e159687d56f41","C3","batch3","spm_show_trial_num","null","<p class=block-text>Trial 27 out of 60</p>","null","","","","","","","","","","","","","","","","","","","","","","","","","",""
"","","","","","image-button-response","58","617164","0.0-2.0-4.0-1.2","63e857fe022e159687d56f41","C3","batch3","spm_respsonse","20962.19999998808","img/question_3_3.jpeg","2","mat_27","3","1","1","20962.19999998808","","","","","","","","","","","","","","","","","","","","",""
"","","","","","html-keyboard-response","59","618246","0.0-2.0-4.0-0.3","63e857fe022e159687d56f41","C3","batch3","spm_show_trial_num","null","<p class=block-text>Trial 28 out of 60</p>","null","","","","","","","","","","","","","","","","","","","","","","","","","",""
"","","","","","image-button-response","60","663672","0.0-2.0-4.0-1.3","63e857fe022e159687d56f41","C3","batch3","spm_respsonse","45428.5","img/question_3_4.jpeg","2","mat_28","8","0","0","45428.5","","","","","","","","","","","","","","","","","","","","",""
"","","","","","html-keyboard-response","61","664727","0.0-2.0-4.0-0.4","63e857fe022e159687d56f41","C3","batch3","spm_show_trial_num","null","<p class=block-text>Trial 29 out of 60</p>","null","","","","","","","","","","","","","","","","","","","","","","","","","",""
"","","","","","image-button-response","62","696999","0.0-2.0-4.0-1.4","63e857fe022e159687d56f41","C3","batch3","spm_respsonse","32268.400000035763","img/question_3_5.jpeg","6","mat_29","7","1","1","32268.400000035763","","","","","","","","","","","","","","","","","","","","",""
"","","","","","html-keyboard-response","63","698071","0.0-2.0-4.0-0.5","63e857fe022e159687d56f41","C3","batch3","spm_show_trial_num","null","<p class=block-text>Trial 30 out of 60</p>","null","","","","","","","","","","","","","","","","","","","","","","","","","",""
"","","","","","image-button-response","64","724577","0.0-2.0-4.0-1.5","63e857fe022e159687d56f41","C3","batch3","spm_respsonse","26501.5","img/question_3_6.jpeg","3","mat_30","4","1","1","26501.5","","","","","","","","","","","","","","","","","","","","",""
"","","","","","html-keyboard-response","65","725630","0.0-2.0-4.0-0.6","63e857fe022e159687d56f41","C3","batch3","spm_show_trial_num","null","<p class=block-text>Trial 31 out of 60</p>","null","","","","","","","","","","","","","","","","","","","","","","","","","",""
"","","","","","image-button-response","66","749180","0.0-2.0-4.0-1.6","63e857fe022e159687d56f41","C3","batch3","spm_respsonse","23546","img/question_3_7.jpeg","4","mat_31","5","1","1","23546","","","","","","","","","","","","","","","","","","","","",""
"","","","","","html-keyboard-response","67","750254","0.0-2.0-4.0-0.7","63e857fe022e159687d56f41","C3","batch3","spm_show_trial_num","null","<p class=block-text>Trial 32 out of 60</p>","null","","","","","","","","","","","","","","","","","","","","","","","","","",""
"","","","","","image-button-response","68","947643","0.0-2.0-4.0-1.7","63e857fe022e159687d56f41","C3","batch3","spm_respsonse","197385.30000001192","img/question_3_8.jpeg","0","mat_32","1","1","1","197385.30000001192","","","","","","","","","","","","","","","","","","","","",""
"","","","","","html-keyboard-response","69","948696","0.0-2.0-4.0-0.8","63e857fe022e159687d56f41","C3","batch3","spm_show_trial_num","null","<p class=block-text>Trial 33 out of 60</p>","null","","","","","","","","","","","","","","","","","","","","","","","","","",""
"","","","","","image-button-response","70","966892","0.0-2.0-4.0-1.8","63e857fe022e159687d56f41","C3","batch3","spm_respsonse","18192","img/question_3_9.jpeg","6","mat_33","7","1","1","18192","","","","","","","","","","","","","","","","","","","","",""
"","","","","","html-keyboard-response","71","967963","0.0-2.0-4.0-0.9","63e857fe022e159687d56f41","C3","batch3","spm_show_trial_num","null","<p class=block-text>Trial 34 out of 60</p>","null","","","","","","","","","","","","","","","","","","","","","","","","","",""
"","","","","","image-button-response","72","1001533","0.0-2.0-4.0-1.9","63e857fe022e159687d56f41","C3","batch3","spm_respsonse","33566.09999996424","img/question_3_10.jpeg","5","mat_34","6","1","1","33566.09999996424","","","","","","","","","","","","","","","","","","","","",""
"","","","","","html-keyboard-response","73","1002588","0.0-2.0-4.0-0.10","63e857fe022e159687d56f41","C3","batch3","spm_show_trial_num","null","<p class=block-text>Trial 35 out of 60</p>","null","","","","","","","","","","","","","","","","","","","","","","","","","",""
"","","","","","image-button-response","74","1065545","0.0-2.0-4.0-1.10","63e857fe022e159687d56f41","C3","batch3","spm_respsonse","62954.60000002384","img/question_3_11.jpeg","0","mat_35","1","1","1","62954.60000002384","","","","","","","","","","","","","","","","","","","","",""
"","","","","","html-keyboard-response","75","1066607","0.0-2.0-4.0-0.11","63e857fe022e159687d56f41","C3","batch3","spm_show_trial_num","null","<p class=block-text>Trial 36 out of 60</p>","null","","","","","","","","","","","","","","","","","","","","","","","","","",""
"","","","","","image-button-response","76","1149758","0.0-2.0-4.0-1.11","63e857fe022e159687d56f41","C3","batch3","spm_respsonse","83145.69999998808","img/question_3_12.jpeg","3","mat_36","2","0","0","83145.69999998808","","","","","","","","","","","","","","","","","","","","",""
"","","","","","html-keyboard-response","77","1150820","0.0-2.0-4.0-0.12","63e857fe022e159687d56f41","C3","batch3","spm_show_trial_num","null","<p class=block-text>Trial 37 out of 60</p>","null","","","","","","","","","","","","","","","","","","","","","","","","","",""
"","","","","","image-button-response","78","1157854","0.0-2.0-4.0-1.12","63e857fe022e159687d56f41","C3","batch3","spm_respsonse","7028.900000035763","img/question_4_1.jpeg","2","mat_37","3","1","1","7028.900000035763","","","","","","","","","","","","","","","","","","","","",""
"","","","","","html-keyboard-response","79","1158926","0.0-2.0-4.0-0.13","63e857fe022e159687d56f41","C3","batch3","spm_show_trial_num","null","<p class=block-text>Trial 38 out of 60</p>","null","","","","","","","","","","","","","","","","","","","","","","","","","",""
"","","","","","image-button-response","80","1199716","0.0-2.0-4.0-1.13","63e857fe022e159687d56f41","C3","batch3","spm_respsonse","40785","img/question_4_2.jpeg","3","mat_38","4","1","1","40785","","","","","","","","","","","","","","","","","","","","",""
"","","","","","html-keyboard-response","81","1200769","0.0-2.0-4.0-0.14","63e857fe022e159687d56f41","C3","batch3","spm_show_trial_num","null","<p class=block-text>Trial 39 out of 60</p>","null","","","","","","","","","","","","","","","","","","","","","","","","","",""
"","","","","","image-button-response","82","1214553","0.0-2.0-4.0-1.14","63e857fe022e159687d56f41","C3","batch3","spm_respsonse","13779.799999952316","img/question_4_3.jpeg","2","mat_39","3","1","1","13779.799999952316","","","","","","","","","","","","","","","","","","","","",""
"","","","","","html-keyboard-response","83","1215619","0.0-2.0-4.0-0.15","63e857fe022e159687d56f41","C3","batch3","spm_show_trial_num","null","<p class=block-text>Trial 40 out of 60</p>","null","","","","","","","","","","","","","","","","","","","","","","","","","",""
"","","","","","image-button-response","84","1230623","0.0-2.0-4.0-1.15","63e857fe022e159687d56f41","C3","batch3","spm_respsonse","14999.100000023842","img/question_4_4.jpeg","6","mat_40","7","1","1","14999.100000023842","","","","","","","","","","","","","","","","","","","","",""
"","","","","","html-keyboard-response","85","1231697","0.0-2.0-4.0-0.16","63e857fe022e159687d56f41","C3","batch3","spm_show_trial_num","null","<p class=block-text>Trial 41 out of 60</p>","null","","","","","","","","","","","","","","","","","","","","","","","","","",""
"","","","","","image-button-response","86","1264273","0.0-2.0-4.0-1.16","63e857fe022e159687d56f41","C3","batch3","spm_respsonse","32572.600000023842","img/question_4_5.jpeg","3","mat_41","8","0","0","32572.600000023842","","","","","","","","","","","","","","","","","","","","",""
"","","","","","html-keyboard-response","87","1265334","0.0-2.0-4.0-0.17","63e857fe022e159687d56f41","C3","batch3","spm_show_trial_num","null","<p class=block-text>Trial 42 out of 60</p>","null","","","","","","","","","","","","","","","","","","","","","","","","","",""
"","","","","","image-button-response","88","1287949","0.0-2.0-4.0-1.17","63e857fe022e159687d56f41","C3","batch3","spm_respsonse","22611.099999964237","img/question_4_6.jpeg","5","mat_42","6","1","1","22611.099999964237","","","","","","","","","","","","","","","","","","","","",""
"","","","","","html-keyboard-response","89","1289004","0.0-2.0-4.0-0.18","63e857fe022e159687d56f41","C3","batch3","spm_show_trial_num","null","<p class=block-text>Trial 43 out of 60</p>","null","","","","","","","","","","","","","","","","","","","","","","","","","",""
"","","","","","image-button-response","90","1303600","0.0-2.0-4.0-1.18","63e857fe022e159687d56f41","C3","batch3","spm_respsonse","14592.399999976158","img/question_4_7.jpeg","4","mat_43","5","1","1","14592.399999976158","","","","","","","","","","","","","","","","","","","","",""
"","","","","","html-keyboard-response","91","1304661","0.0-2.0-4.0-0.19","63e857fe022e159687d56f41","C3","batch3","spm_show_trial_num","null","<p class=block-text>Trial 44 out of 60</p>","null","","","","","","","","","","","","","","","","","","","","","","","","","",""
"","","","","","image-button-response","92","1320639","0.0-2.0-4.0-1.19","63e857fe022e159687d56f41","C3","batch3","spm_respsonse","15974","img/question_4_8.jpeg","3","mat_44","4","1","1","15974","","","","","","","","","","","","","","","","","","","","",""
"","","","","","html-keyboard-response","93","1321702","0.0-2.0-4.0-0.20","63e857fe022e159687d56f41","C3","batch3","spm_show_trial_num","null","<p class=block-text>Trial 45 out of 60</p>","null","","","","","","","","","","","","","","","","","","","","","","","","","",""
"","","","","","image-button-response","94","1365615","0.0-2.0-4.0-1.20","63e857fe022e159687d56f41","C3","batch3","spm_respsonse","43908.5","img/question_4_9.jpeg","0","mat_45","1","1","1","43908.5","","","","","","","","","","","","","","","","","","","","",""
"","","","","","html-keyboard-response","95","1366679","0.0-2.0-4.0-0.21","63e857fe022e159687d56f41","C3","batch3","spm_show_trial_num","null","<p class=block-text>Trial 46 out of 60</p>","null","","","","","","","","","","","","","","","","","","","","","","","","","",""
"","","","","","image-button-response","96","1382131","0.0-2.0-4.0-1.21","63e857fe022e159687d56f41","C3","batch3","spm_respsonse","15447.699999988079","img/question_4_10.jpeg","1","mat_46","2","1","1","15447.699999988079","","","","","","","","","","","","","","","","","","","","",""
"","","","","","html-keyboard-response","97","1383188","0.0-2.0-4.0-0.22","63e857fe022e159687d56f41","C3","batch3","spm_show_trial_num","null","<p class=block-text>Trial 47 out of 60</p>","null","","","","","","","","","","","","","","","","","","","","","","","","","",""
"","","","","","image-button-response","98","1510501","0.0-2.0-4.0-1.22","63e857fe022e159687d56f41","C3","batch3","spm_respsonse","127309.19999998808","img/question_4_11.jpeg","1","mat_47","5","0","0","127309.19999998808","","","","","","","","","","","","","","","","","","","","",""
"","","","","","html-keyboard-response","99","1511569","0.0-2.0-4.0-0.23","63e857fe022e159687d56f41","C3","batch3","spm_show_trial_num","null","<p class=block-text>Trial 48 out of 60</p>","null","","","","","","","","","","","","","","","","","","","","","","","","","",""
"","","","","","image-button-response","100","1690759","0.0-2.0-4.0-1.23","63e857fe022e159687d56f41","C3","batch3","spm_respsonse","179186.69999998808","img/question_4_12.jpeg","7","mat_48","6","0","0","179186.69999998808","","","","","","","","","","","","","","","","","","","","",""
"","","","","","html-keyboard-response","101","1691817","0.0-2.0-4.0-0.24","63e857fe022e159687d56f41","C3","batch3","spm_show_trial_num","null","<p class=block-text>Trial 49 out of 60</p>","null","","","","","","","","","","","","","","","","","","","","","","","","","",""
"","","","","","image-button-response","102","1740963","0.0-2.0-4.0-1.24","63e857fe022e159687d56f41","C3","batch3","spm_respsonse","49141.5","img/question_5_1.jpeg","6","mat_49","7","1","1","49141.5","","","","","","","","","","","","","","","","","","","","",""
"","","","","","html-keyboard-response","103","1742019","0.0-2.0-4.0-0.25","63e857fe022e159687d56f41","C3","batch3","spm_show_trial_num","null","<p class=block-text>Trial 50 out of 60</p>","null","","","","","","","","","","","","","","","","","","","","","","","","","",""
"","","","","","image-button-response","104","1850131","0.0-2.0-4.0-1.25","63e857fe022e159687d56f41","C3","batch3","spm_respsonse","108107.10000002384","img/question_5_2.jpeg","5","mat_50","6","1","1","108107.10000002384","","","","","","","","","","","","","","","","","","","","",""
"","","","","","html-keyboard-response","105","1851194","0.0-2.0-4.0-0.26","63e857fe022e159687d56f41","C3","batch3","spm_show_trial_num","null","<p class=block-text>Trial 51 out of 60</p>","null","","","","","","","","","","","","","","","","","","","","","","","","","",""
"","","","","","image-button-response","106","1919919","0.0-2.0-4.0-1.26","63e857fe022e159687d56f41","C3","batch3","spm_respsonse","68720.79999995232","img/question_5_3.jpeg","7","mat_51","8","1","1","68720.79999995232","","","","","","","","","","","","","","","","","","","","",""
"","","","","","html-keyboard-response","107","1920975","0.0-2.0-4.0-0.27","63e857fe022e159687d56f41","C3","batch3","spm_show_trial_num","null","<p class=block-text>Trial 52 out of 60</p>","null","","","","","","","","","","","","","","","","","","","","","","","","","",""
"","","","","","image-button-response","108","1940216","0.0-2.0-4.0-1.27","63e857fe022e159687d56f41","C3","batch3","spm_respsonse","19237.5","img/question_5_4.jpeg","1","mat_52","2","1","1","19237.5","","","","","","","","","","","","","","","","","","","","",""
"","","","","","html-keyboard-response","109","1941275","0.0-2.0-4.0-0.28","63e857fe022e159687d56f41","C3","batch3","spm_show_trial_num","null","<p class=block-text>Trial 53 out of 60</p>","null","","","","","","","","","","","","","","","","","","","","","","","","","",""
"","","","","","image-button-response","110","1973629","0.0-2.0-4.0-1.28","63e857fe022e159687d56f41","C3","batch3","spm_respsonse","32350.69999998808","img/question_5_5.jpeg","0","mat_53","1","1","1","32350.69999998808","","","","","","","","","","","","","","","","","","","","",""
"","","","","","html-keyboard-response","111","1974686","0.0-2.0-4.0-0.29","63e857fe022e159687d56f41","C3","batch3","spm_show_trial_num","null","<p class=block-text>Trial 54 out of 60</p>","null","","","","","","","","","","","","","","","","","","","","","","","","","",""
"","","","","","image-button-response","112","2267070","0.0-2.0-4.0-1.29","63e857fe022e159687d56f41","C3","batch3","spm_respsonse","292379.8000000119","img/question_5_6.jpeg","0","mat_54","5","0","0","292379.8000000119","","","","","","","","","","","","","","","","","","","","",""
"","","","","","html-keyboard-response","113","2268130","0.0-2.0-4.0-0.30","63e857fe022e159687d56f41","C3","batch3","spm_show_trial_num","null","<p class=block-text>Trial 55 out of 60</p>","null","","","","","","","","","","","","","","","","","","","","","","","","","",""
"","","","","","image-button-response","114","2298835","0.0-2.0-4.0-1.30","63e857fe022e159687d56f41","C3","batch3","spm_respsonse","30700.600000023842","img/question_5_7.jpeg","0","mat_55","1","1","1","30700.600000023842","","","","","","","","","","","","","","","","","","","","",""
"","","","","","html-keyboard-response","115","2299894","0.0-2.0-4.0-0.31","63e857fe022e159687d56f41","C3","batch3","spm_show_trial_num","null","<p class=block-text>Trial 56 out of 60</p>","null","","","","","","","","","","","","","","","","","","","","","","","","","",""
"","","","","","image-button-response","116","2432009","0.0-2.0-4.0-1.31","63e857fe022e159687d56f41","C3","batch3","spm_respsonse","132111.09999996424","img/question_5_8.jpeg","5","mat_56","6","1","1","132111.09999996424","","","","","","","","","","","","","","","","","","","","",""
"","","","","","html-keyboard-response","117","2433074","0.0-2.0-4.0-0.32","63e857fe022e159687d56f41","C3","batch3","spm_show_trial_num","null","<p class=block-text>Trial 57 out of 60</p>","null","","","","","","","","","","","","","","","","","","","","","","","","","",""
"","","","","","image-button-response","118","2693223","0.0-2.0-4.0-1.32","63e857fe022e159687d56f41","C3","batch3","spm_respsonse","260143.5","img/question_5_9.jpeg","2","mat_57","3","1","1","260143.5","","","","","","","","","","","","","","","","","","","","",""
"","","","","","html-keyboard-response","119","2694278","0.0-2.0-4.0-0.33","63e857fe022e159687d56f41","C3","batch3","spm_show_trial_num","null","<p class=block-text>Trial 58 out of 60</p>","null","","","","","","","","","","","","","","","","","","","","","","","","","",""
"","","","","","image-button-response","120","2868406","0.0-2.0-4.0-1.33","63e857fe022e159687d56f41","C3","batch3","spm_respsonse","174124.19999998808","img/question_5_10.jpeg","6","mat_58","2","0","0","174124.19999998808","","","","","","","","","","","","","","","","","","","","",""
"","","","","","html-keyboard-response","121","2869476","0.0-2.0-4.0-0.34","63e857fe022e159687d56f41","C3","batch3","spm_show_trial_num","null","<p class=block-text>Trial 59 out of 60</p>","null","","","","","","","","","","","","","","","","","","","","","","","","","",""
"","","","","","image-button-response","122","2957574","0.0-2.0-4.0-1.34","63e857fe022e159687d56f41","C3","batch3","spm_respsonse","88095.5","img/question_5_11.jpeg","0","mat_59","4","0","0","88095.5","","","","","","","","","","","","","","","","","","","","",""
"","","","","","html-keyboard-response","123","2958638","0.0-2.0-4.0-0.35","63e857fe022e159687d56f41","C3","batch3","spm_show_trial_num","null","<p class=block-text>Trial 60 out of 60</p>","null","","","","","","","","","","","","","","","","","","","","","","","","","",""
"","","","","","image-button-response","124","3120812","0.0-2.0-4.0-1.35","63e857fe022e159687d56f41","C3","batch3","spm_respsonse","162170.40000003576","img/question_5_12.jpeg","6","mat_60","5","0","0","162170.40000003576","","","","","","","","","","","","","","","","","","","","",""
"","","","","","html-button-response","125","3122711","0.0-2.0-5.0","63e857fe022e159687d56f41","C3","batch3","spm_goodbye","1629.800000011921","<p class= block-text>This concludes the Standard Progressive Matrix game. Thank you for your responses!<br> When you are ready, click the button continue</p>","0","","","","","","","","","","","","","","","","","","","","","","","","","",""
"true","","","","","fullscreen","126","3125299","0.0-3.0-0.0","63e857fe022e159687d56f41","C3","batch3","","","","","","","","","","","","","","","","","","","","","","","","","","","","","",""
"","","","","","instructions","127","3223398","0.0-3.0-1.0-0.0-0.0","63e857fe022e159687d56f41","C3","batch3","tol-instructions","98097.90000003576","","","","","","","","[{""page_index"":0,""viewing_time"":13183.600000023842},{""page_index"":1,""viewing_time"":12116},{""page_index"":2,""viewing_time"":10799.899999976158},{""page_index"":3,""viewing_time"":9859.900000035763},{""page_index"":4,""viewing_time"":15002.5},{""page_index"":5,""viewing_time"":33401.89999997616},{""page_index"":6,""viewing_time"":3733.300000011921}]","","","","","","","","","","","","","","","","","","","",""
"","","","","","html-button-response","128","3224491","0.0-3.0-1.0-1.0-0.0","63e857fe022e159687d56f41","C3","batch3","tol_enter_quiz","1091.699999988079","<p class=block-text> Let's answer a few questions <br>","0","","","","","","","","","","","","","","","","","","","","","","","","","",""
"","","","","","html-button-response","129","3228004","0.0-3.0-1.0-1.0-1.0","63e857fe022e159687d56f41","C3","batch3","tol_quiz","3510.899999976158","<p class = block-text>True or False: You can only move the ball on top of a peg. <br></p>","1","","","false","","","","","","","","","","","","","","","","","","","","","","",""
"","","","","","html-button-response","130","3232692","0.0-3.0-1.0-1.0-2.0","63e857fe022e159687d56f41","C3","batch3","tol_quiz_feedback","4685.899999976158","<p class = block-text>Incorrect. Remember, you can only move the ball on top of a peg.</p>","0","","","","","","","","","","","","","","","","","","","","","","","","","",""
"","","","","","html-button-response","131","3236724","0.0-3.0-1.0-1.0-3.0","63e857fe022e159687d56f41","C3","batch3","tol_quiz","4030.300000011921","<p class = block-text>True or False: You should try to match your board with the target board with fewest moves possible. <br></p>","0","","","true","","","","","","","","","","","","","","","","","","","","","","",""
"","","","","","html-button-response","132","3237444","0.0-3.0-1.0-1.0-4.0","63e857fe022e159687d56f41","C3","batch3","tol_quiz_feedback","717.3000000119209","<p class = block-text>Correct! </p>","0","","","","","","","","","","","","","","","","","","","","","","","","","",""
"","","","","","html-button-response","133","3239084","0.0-3.0-1.0-2.0-0.0","63e857fe022e159687d56f41","C3","batch3","","1637.1000000238419","<p class = block-text>You made too many incorrect choices.</p><p class = block-text>You will now repeat the instructions and quiz</p>","0","","","","","","","","","","","","","","","","","","","","","","","","","",""
"","","","","","instructions","134","3246365","0.0-3.0-1.1-0.1-0.1","63e857fe022e159687d56f41","C3","batch3","tol-instructions","7280.600000023842","","","","","","","","[{""page_index"":0,""viewing_time"":1202.3999999761581},{""page_index"":1,""viewing_time"":958.8000000119209},{""page_index"":2,""viewing_time"":471.4000000357628},{""page_index"":3,""viewing_time"":695.3999999761581},{""page_index"":4,""viewing_time"":802.8999999761581},{""page_index"":5,""viewing_time"":689.3000000119209},{""page_index"":6,""viewing_time"":2460}]","","","","","","","","","","","","","","","","","","","",""
"","","","","","html-button-response","135","3247063","0.0-3.0-1.1-1.1-0.1","63e857fe022e159687d56f41","C3","batch3","tol_enter_quiz","694.8999999761581","<p class=block-text> Let's answer a few questions <br>","0","","","","","","","","","","","","","","","","","","","","","","","","","",""
"","","","","","html-button-response","136","3249796","0.0-3.0-1.1-1.1-1.1","63e857fe022e159687d56f41","C3","batch3","tol_quiz","2730.5","<p class = block-text>True or False: You can only move the ball on top of a peg. <br></p>","0","","","true","","","","","","","","","","","","","","","","","","","","","","",""
"","","","","","html-button-response","137","3250905","0.0-3.0-1.1-1.1-2.1","63e857fe022e159687d56f41","C3","batch3","tol_quiz_feedback","1107.300000011921","<p class = block-text>Correct! You can only move the ball on top of a peg.</p>","0","","","","","","","","","","","","","","","","","","","","","","","","","",""
"","","","","","html-button-response","138","3252045","0.0-3.0-1.1-1.1-3.1","63e857fe022e159687d56f41","C3","batch3","tol_quiz","1138.300000011921","<p class = block-text>True or False: You should try to match your board with the target board with fewest moves possible. <br></p>","0","","","true","","","","","","","","","","","","","","","","","","","","","","",""
"","","","","","html-button-response","139","3252639","0.0-3.0-1.1-1.1-4.1","63e857fe022e159687d56f41","C3","batch3","tol_quiz_feedback","592.1999999880791","<p class = block-text>Correct! </p>","0","","","","","","","","","","","","","","","","","","","","","","","","","",""
"","","","","","html-button-response","140","3254536","0.0-3.0-2.0","63e857fe022e159687d56f41","C3","batch3","","1896.0999999642372","<p class=block-text> Now that you've understood the game, let's practice a few easier examples before we start!<br> <br>","0","","","","","","","","","","","","","","","","","","","","","","","","","",""
"","","","","","single-stim-button","141","3260290","0.0-3.0-3.0-0.0","63e857fe022e159687d56f41","C3","batch3","tol_practice","5751","","","","","","","","","tol_peg_2","5751","5751","0","[[1,2,0],[0,0],[0]]","1","[[1,2,0],[0,0],[3]]","practice","5751","","","","","","","","","","",""
"","","","","","single-stim-button","142","3262108","0.0-3.0-3.0-1.0","63e857fe022e159687d56f41","C3","batch3","tol_practice","1816","","","","","","","","","tol_peg_3","1816","1816","0","[[1,2,0],[0,0],[3]]","1","[[1,2,0],[0,0],[3]]","practice","1816","","","","","","","","","","",""
"","","","","","poldrack-single-stim","143","3263122","0.0-3.0-4.0","63e857fe022e159687d56f41","C3","batch3","tol_feedback","-1","","","","","true","","","","","1000","1000","500","","","","","","-1","none","true","","0","","","","","",""
"","","","","","single-stim-button","144","3267022","0.0-3.0-5.0-0.0","63e857fe022e159687d56f41","C3","batch3","tol_practice","3899","","","","","","","","","tol_peg_1","3899","3899","0","[[1,0,0],[3,0],[0]]","2","[[0,0,0],[3,1],[2]]","practice","3899","","","","","","","","","","",""
"","","","","","single-stim-button","145","3274257","0.0-3.0-5.0-1.0","63e857fe022e159687d56f41","C3","batch3","tol_practice","7233","","","","","","","","","tol_peg_3","7233","7233","0","[[1,0,0],[3,0],[2]]","2","[[0,0,0],[3,1],[2]]","practice","7233","","","","","","","","","","",""
"","","","","","single-stim-button","146","3275702","0.0-3.0-5.1-0.1","63e857fe022e159687d56f41","C3","batch3","tol_practice","1443","","","","","","","","","tol_peg_1","1443","1443","0","[[0,0,0],[3,0],[2]]","3","[[0,0,0],[3,1],[2]]","practice","1443","","","","","","","","","","",""
"","","","","","single-stim-button","147","3276649","0.0-3.0-5.1-1.1","63e857fe022e159687d56f41","C3","batch3","tol_practice","945","","","","","","","","","tol_peg_2","945","945","0","[[0,0,0],[3,1],[2]]","3","[[0,0,0],[3,1],[2]]","practice","945","","","","","","","","","","",""
"","","","","","poldrack-single-stim","148","3277652","0.0-3.0-6.0","63e857fe022e159687d56f41","C3","batch3","tol_feedback","-1","","","","","true","","","","","1000","1000","500","","","","","","-1","none","true","","0","","","","","",""
"","","","","","single-stim-button","149","3281036","0.0-3.0-7.0-0.0","63e857fe022e159687d56f41","C3","batch3","tol_practice","3383","","","","","","","","","tol_peg_2","3383","3383","0","[[1,2,0],[0,0],[0]]","4","[[1,0,0],[2,0],[3]]","practice","3383","","","","","","","","","","",""
"","","","","","single-stim-button","150","3281803","0.0-3.0-7.0-1.0","63e857fe022e159687d56f41","C3","batch3","tol_practice","766","","","","","","","","","tol_peg_3","766","766","0","[[1,2,0],[0,0],[3]]","4","[[1,0,0],[2,0],[3]]","practice","766","","","","","","","","","","",""
"","","","","","single-stim-button","151","3283185","0.0-3.0-7.1-0.1","63e857fe022e159687d56f41","C3","batch3","tol_practice","1380","","","","","","","","","tol_peg_1","1380","1380","0","[[1,0,0],[0,0],[3]]","5","[[1,0,0],[2,0],[3]]","practice","1380","","","","","","","","","","",""
"","","","","","single-stim-button","152","3283967","0.0-3.0-7.1-1.1","63e857fe022e159687d56f41","C3","batch3","tol_practice","782","","","","","","","","","tol_peg_2","782","782","0","[[1,0,0],[2,0],[3]]","5","[[1,0,0],[2,0],[3]]","practice","782","","","","","","","","","","",""
"","","","","","poldrack-single-stim","153","3284971","0.0-3.0-8.0","63e857fe022e159687d56f41","C3","batch3","tol_feedback","-1","","","","","true","","","","","1000","1000","500","","","","","","-1","none","true","","0","","","","","",""
"","","","","","html-button-response","154","3288047","0.0-3.0-9.0","63e857fe022e159687d56f41","C3","batch3","tol_instruction","3074.600000023842","<div class = centerbox><p class = center-block-text>Great job! You are done with practice trials<br>You are about to start official trials.<br> <br> Problem <strong>1</strong> out of 25 problems</p></div>","0","","","","","","","","","","","","","","","","","","","","","","","","","",""
"","","","","","single-stim-button","155","3292139","0.0-3.0-10.0-0.0","63e857fe022e159687d56f41","C3","batch3","tol_tohand","3078","","","","","","","","","tol_peg_1","3078","3078","0","[[1,0,0],[3,0],[0]]","1","[[1,3,0],[2,0],[0]]","0","0","","","","","","3","","","","",""
"","","","","","single-stim-button","156","3295185","0.0-3.0-10.0-1.0","63e857fe022e159687d56f41","C3","batch3","tol_toboard","3045","","","","","","","","","tol_peg_3","3045","3045","0","[[1,0,0],[3,0],[2]]","1","[[1,3,0],[2,0],[0]]","0","0","","","","","","3","","","","",""
"","","","","","single-stim-button","157","3297374","0.0-3.0-10.1-0.1","63e857fe022e159687d56f41","C3","batch3","tol_tohand","2187","","","","","","","","","tol_peg_2","2187","2187","0","[[1,0,0],[0,0],[2]]","2","[[1,3,0],[2,0],[0]]","0","0","","","","","","3","","","","",""
"","","","","","single-stim-button","158","3298570","0.0-3.0-10.1-1.1","63e857fe022e159687d56f41","C3","batch3","tol_toboard","1194","","","","","","","","","tol_peg_1","1194","1194","0","[[1,3,0],[0,0],[2]]","2","[[1,3,0],[2,0],[0]]","0","0","","","","","","3","","","","",""
"","","","","","single-stim-button","159","3299874","0.0-3.0-10.2-0.2","63e857fe022e159687d56f41","C3","batch3","tol_tohand","1303","","","","","","","","","tol_peg_3","1303","1303","0","[[1,3,0],[0,0],[0]]","3","[[1,3,0],[2,0],[0]]","0","0","","","","","","3","","","","",""
"","","","","","single-stim-button","160","3300874","0.0-3.0-10.2-1.2","63e857fe022e159687d56f41","C3","batch3","tol_toboard","999","","","","","","","","","tol_peg_2","999","999","0","[[1,3,0],[2,0],[0]]","3","[[1,3,0],[2,0],[0]]","0","0","","","","","","3","","","","",""
"","","","","","poldrack-single-stim","161","3301879","0.0-3.0-11.0","63e857fe022e159687d56f41","C3","batch3","tol_feedback","-1","","","","","true","","","","","1000","1000","500","","","","","","-1","none","true","3078","6568","","","","","",""
"","","","","","html-button-response","162","3302654","0.0-3.0-12.0","63e857fe022e159687d56f41","C3","batch3","tol_trial_num","773","<div class = centerbox><p class = center-block-text>problem <strong>2</strong> out of 25 problems</p></div>","0","","","","","","","","","","","","","","","","","","","","","","","","","",""
"","","","","","single-stim-button","163","3305483","0.0-3.0-13.0-0.0","63e857fe022e159687d56f41","C3","batch3","tol_tohand","2828","","","","","","","","","tol_peg_2","2828","2828","0","[[1,2,0],[0,0],[0]]","1","[[2,1,3],[0,0],[0]]","1","0","","","","","","5","","","","",""
"","","","","","single-stim-button","164","3306600","0.0-3.0-13.0-1.0","63e857fe022e159687d56f41","C3","batch3","tol_toboard","1115","","","","","","","","","tol_peg_1","1115","1115","0","[[1,2,3],[0,0],[0]]","1","[[2,1,3],[0,0],[0]]","1","0","","","","","","5","","","","",""
"","","","","","single-stim-button","165","3312553","0.0-3.0-13.1-0.1","63e857fe022e159687d56f41","C3","batch3","tol_tohand","5951","","","","","","","","","tol_peg_1","5951","5951","0","[[1,2,0],[0,0],[0]]","2","[[2,1,3],[0,0],[0]]","1","0","","","","","","5","","","","",""
"","","","","","single-stim-button","166","3315497","0.0-3.0-13.1-1.1","63e857fe022e159687d56f41","C3","batch3","tol_toboard","2942","","","","","","","","","tol_peg_1","2942","2942","0","[[1,2,3],[0,0],[0]]","2","[[2,1,3],[0,0],[0]]","1","0","","","","","","5","","","","",""
"","","","","","single-stim-button","167","3316390","0.0-3.0-13.2-0.2","63e857fe022e159687d56f41","C3","batch3","tol_tohand","892","","","","","","","","","tol_peg_1","892","892","0","[[1,2,0],[0,0],[0]]","3","[[2,1,3],[0,0],[0]]","1","0","","","","","","5","","","","",""
"","","","","","single-stim-button","168","3322795","0.0-3.0-13.2-1.2","63e857fe022e159687d56f41","C3","batch3","tol_toboard","6404","","","","","","","","","tol_peg_1","6404","6404","0","[[1,2,3],[0,0],[0]]","3","[[2,1,3],[0,0],[0]]","1","0","","","","","","5","","","","",""
"","","","","","single-stim-button","169","3324046","0.0-3.0-13.3-0.3","63e857fe022e159687d56f41","C3","batch3","tol_tohand","1249","","","","","","","","","tol_peg_1","1249","1249","0","[[1,2,0],[0,0],[0]]","4","[[2,1,3],[0,0],[0]]","1","0","","","","","","5","","","","",""
"","","","","","single-stim-button","170","3324796","0.0-3.0-13.3-1.3","63e857fe022e159687d56f41","C3","batch3","tol_toboard","748","","","","","","","","","tol_peg_3","748","748","0","[[1,2,0],[0,0],[3]]","4","[[2,1,3],[0,0],[0]]","1","0","","","","","","5","","","","",""
"","","","","","single-stim-button","171","3325483","0.0-3.0-13.4-0.4","63e857fe022e159687d56f41","C3","batch3","tol_tohand","686","","","","","","","","","tol_peg_1","686","686","0","[[1,0,0],[0,0],[3]]","5","[[2,1,3],[0,0],[0]]","1","0","","","","","","5","","","","",""
"","","","","","single-stim-button","172","3327062","0.0-3.0-13.4-1.4","63e857fe022e159687d56f41","C3","batch3","tol_toboard","1578","","","","","","","","","tol_peg_2","1578","1578","0","[[1,0,0],[2,0],[3]]","5","[[2,1,3],[0,0],[0]]","1","0","","","","","","5","","","","",""
"","","","","","single-stim-button","173","3328740","0.0-3.0-13.5-0.5","63e857fe022e159687d56f41","C3","batch3","tol_tohand","1677","","","","","","","","","tol_peg_1","1677","1677","0","[[0,0,0],[2,0],[3]]","6","[[2,1,3],[0,0],[0]]","1","0","","","","","","5","","","","",""
"","","","","","single-stim-button","174","3334951","0.0-3.0-13.5-1.5","63e857fe022e159687d56f41","C3","batch3","tol_toboard","6209","","","","","","","","","tol_peg_1","6209","6209","0","[[1,0,0],[2,0],[3]]","6","[[2,1,3],[0,0],[0]]","1","0","","","","","","5","","","","",""
"","","","","","single-stim-button","175","3335958","0.0-3.0-13.6-0.6","63e857fe022e159687d56f41","C3","batch3","tol_tohand","1006","","","","","","","","","tol_peg_3","1006","1006","0","[[1,0,0],[2,0],[0]]","7","[[2,1,3],[0,0],[0]]","1","0","","","","","","5","","","","",""
"","","","","","single-stim-button","176","3341928","0.0-3.0-13.6-1.6","63e857fe022e159687d56f41","C3","batch3","tol_toboard","5969","","","","","","","","","tol_peg_2","5969","5969","0","[[1,0,0],[2,3],[0]]","7","[[2,1,3],[0,0],[0]]","1","0","","","","","","5","","","","",""
"","","","","","single-stim-button","177","3343569","0.0-3.0-13.7-0.7","63e857fe022e159687d56f41","C3","batch3","tol_tohand","1640","","","","","","","","","tol_peg_1","1640","1640","0","[[0,0,0],[2,3],[0]]","8","[[2,1,3],[0,0],[0]]","1","0","","","","","","5","","","","",""
"","","","","","single-stim-button","178","3345067","0.0-3.0-13.7-1.7","63e857fe022e159687d56f41","C3","batch3","tol_toboard","1497","","","","","","","","","tol_peg_3","1497","1497","0","[[0,0,0],[2,3],[1]]","8","[[2,1,3],[0,0],[0]]","1","0","","","","","","5","","","","",""
"","","","","","single-stim-button","179","3345671","0.0-3.0-13.8-0.8","63e857fe022e159687d56f41","C3","batch3","tol_tohand","602","","","","","","","","","tol_peg_2","602","602","0","[[0,0,0],[2,0],[1]]","9","[[2,1,3],[0,0],[0]]","1","0","","","","","","5","","","","",""
"","","","","","single-stim-button","180","3348990","0.0-3.0-13.8-1.8","63e857fe022e159687d56f41","C3","batch3","tol_toboard","3317","","","","","","","","","tol_peg_2","3317","3317","0","[[0,0,0],[2,3],[1]]","9","[[2,1,3],[0,0],[0]]","1","0","","","","","","5","","","","",""
"","","","","","single-stim-button","181","3358225","0.0-3.0-13.9-0.9","63e857fe022e159687d56f41","C3","batch3","tol_tohand","9234","","","","","","","","","tol_peg_2","9234","9234","0","[[0,0,0],[2,0],[1]]","10","[[2,1,3],[0,0],[0]]","1","0","","","","","","5","","","","",""
"","","","","","single-stim-button","182","3359998","0.0-3.0-13.9-1.9","63e857fe022e159687d56f41","C3","batch3","tol_toboard","1771","","","","","","","","","tol_peg_1","1771","1771","0","[[3,0,0],[2,0],[1]]","10","[[2,1,3],[0,0],[0]]","1","0","","","","","","5","","","","",""
"","","","","","single-stim-button","183","3362850","0.0-3.0-13.10-0.10","63e857fe022e159687d56f41","C3","batch3","tol_tohand","2851","","","","","","","","","tol_peg_3","2851","2851","0","[[3,0,0],[2,0],[0]]","11","[[2,1,3],[0,0],[0]]","1","0","","","","","","5","","","","",""
"","","","","","single-stim-button","184","3363468","0.0-3.0-13.10-1.10","63e857fe022e159687d56f41","C3","batch3","tol_toboard","616","","","","","","","","","tol_peg_2","616","616","0","[[3,0,0],[2,1],[0]]","11","[[2,1,3],[0,0],[0]]","1","0","","","","","","5","","","","",""
"","","","","","single-stim-button","185","3364498","0.0-3.0-13.11-0.11","63e857fe022e159687d56f41","C3","batch3","tol_tohand","1029","","","","","","","","","tol_peg_1","1029","1029","0","[[0,0,0],[2,1],[0]]","12","[[2,1,3],[0,0],[0]]","1","0","","","","","","5","","","","",""
"","","","","","single-stim-button","186","3366021","0.0-3.0-13.11-1.11","63e857fe022e159687d56f41","C3","batch3","tol_toboard","1522","","","","","","","","","tol_peg_3","1522","1522","0","[[0,0,0],[2,1],[3]]","12","[[2,1,3],[0,0],[0]]","1","0","","","","","","5","","","","",""
"","","","","","single-stim-button","187","3372615","0.0-3.0-13.12-0.12","63e857fe022e159687d56f41","C3","batch3","tol_tohand","6592","","","","","","","","","tol_peg_2","6592","6592","0","[[0,0,0],[2,0],[3]]","13","[[2,1,3],[0,0],[0]]","1","0","","","","","","5","","","","",""
"","","","","","single-stim-button","188","3373184","0.0-3.0-13.12-1.12","63e857fe022e159687d56f41","C3","batch3","tol_toboard","568","","","","","","","","","tol_peg_1","568","568","0","[[1,0,0],[2,0],[3]]","13","[[2,1,3],[0,0],[0]]","1","0","","","","","","5","","","","",""
"","","","","","single-stim-button","189","3374642","0.0-3.0-13.13-0.13","63e857fe022e159687d56f41","C3","batch3","tol_tohand","1457","","","","","","","","","tol_peg_2","1457","1457","0","[[1,0,0],[0,0],[3]]","14","[[2,1,3],[0,0],[0]]","1","0","","","","","","5","","","","",""
"","","","","","single-stim-button","190","3380403","0.0-3.0-13.13-1.13","63e857fe022e159687d56f41","C3","batch3","tol_toboard","5760","","","","","","","","","tol_peg_2","5760","5760","0","[[1,0,0],[2,0],[3]]","14","[[2,1,3],[0,0],[0]]","1","0","","","","","","5","","","","",""
"","","","","","single-stim-button","191","3380927","0.0-3.0-13.14-0.14","63e857fe022e159687d56f41","C3","batch3","tol_tohand","523","","","","","","","","","tol_peg_3","523","523","0","[[1,0,0],[2,0],[0]]","15","[[2,1,3],[0,0],[0]]","1","0","","","","","","5","","","","",""
"","","","","","single-stim-button","192","3382718","0.0-3.0-13.14-1.14","63e857fe022e159687d56f41","C3","batch3","tol_toboard","1789","","","","","","","","","tol_peg_1","1789","1789","0","[[1,3,0],[2,0],[0]]","15","[[2,1,3],[0,0],[0]]","1","0","","","","","","5","","","","",""
"","","","","","single-stim-button","193","3383231","0.0-3.0-13.15-0.15","63e857fe022e159687d56f41","C3","batch3","tol_tohand","512","","","","","","","","","tol_peg_2","512","512","0","[[1,3,0],[0,0],[0]]","16","[[2,1,3],[0,0],[0]]","1","0","","","","","","5","","","","",""
"","","","","","single-stim-button","194","3383874","0.0-3.0-13.15-1.15","63e857fe022e159687d56f41","C3","batch3","tol_toboard","642","","","","","","","","","tol_peg_1","642","642","0","[[1,3,2],[0,0],[0]]","16","[[2,1,3],[0,0],[0]]","1","0","","","","","","5","","","","",""
"","","","","","single-stim-button","195","3387333","0.0-3.0-13.16-0.16","63e857fe022e159687d56f41","C3","batch3","tol_tohand","3458","","","","","","","","","tol_peg_1","3458","3458","0","[[1,3,0],[0,0],[0]]","17","[[2,1,3],[0,0],[0]]","1","0","","","","","","5","","","","",""
"","","","","","single-stim-button","196","3389443","0.0-3.0-13.16-1.16","63e857fe022e159687d56f41","C3","batch3","tol_toboard","2108","","","","","","","","","tol_peg_3","2108","2108","0","[[1,3,0],[0,0],[2]]","17","[[2,1,3],[0,0],[0]]","1","0","","","","","","5","","","","",""
"","","","","","single-stim-button","197","3390810","0.0-3.0-13.17-0.17","63e857fe022e159687d56f41","C3","batch3","tol_tohand","1367","","","","","","","","","tol_peg_1","1367","1367","0","[[1,0,0],[0,0],[2]]","18","[[2,1,3],[0,0],[0]]","1","0","","","","","","5","","","","",""
"","","","","","single-stim-button","198","3392029","0.0-3.0-13.17-1.17","63e857fe022e159687d56f41","C3","batch3","tol_toboard","1217","","","","","","","","","tol_peg_2","1217","1217","0","[[1,0,0],[3,0],[2]]","18","[[2,1,3],[0,0],[0]]","1","0","","","","","","5","","","","",""
"","","","","","single-stim-button","199","3392662","0.0-3.0-13.18-0.18","63e857fe022e159687d56f41","C3","batch3","tol_tohand","631","","","","","","","","","tol_peg_1","631","631","0","[[0,0,0],[3,0],[2]]","19","[[2,1,3],[0,0],[0]]","1","0","","","","","","5","","","","",""
"","","","","","single-stim-button","200","3393264","0.0-3.0-13.18-1.18","63e857fe022e159687d56f41","C3","batch3","tol_toboard","601","","","","","","","","","tol_peg_2","601","601","0","[[0,0,0],[3,1],[2]]","19","[[2,1,3],[0,0],[0]]","1","0","","","","","","5","","","","",""
"","","","","","single-stim-button","201","3395810","0.0-3.0-13.19-0.19","63e857fe022e159687d56f41","C3","batch3","tol_tohand","2544","","","","","","","","","tol_peg_2","2544","2544","0","[[0,0,0],[3,0],[2]]","20","[[2,1,3],[0,0],[0]]","1","0","","","","","","5","","","","",""
"","","","","","single-stim-button","202","3396333","0.0-3.0-13.19-1.19","63e857fe022e159687d56f41","C3","batch3","tol_toboard","522","","","","","","","","","tol_peg_2","522","522","0","[[0,0,0],[3,1],[2]]","20","[[2,1,3],[0,0],[0]]","1","0","","","","","","5","","","","",""
"","","","","","single-stim-button","203","3396895","0.0-3.0-13.20-0.20","63e857fe022e159687d56f41","C3","batch3","tol_tohand","562","","","","","","","","","tol_peg_2","562","562","0","[[0,0,0],[3,0],[2]]","21","[[2,1,3],[0,0],[0]]","1","0","","","","","","5","","","","",""
"","","","","","single-stim-button","204","3397443","0.0-3.0-13.20-1.20","63e857fe022e159687d56f41","C3","batch3","tol_toboard","546","","","","","","","","","tol_peg_1","546","546","0","[[1,0,0],[3,0],[2]]","21","[[2,1,3],[0,0],[0]]","1","0","","","","","","5","","","","",""
"","","","","","single-stim-button","205","3398568","0.0-3.0-13.21-0.21","63e857fe022e159687d56f41","C3","batch3","tol_tohand","1123","","","","","","","","","tol_peg_2","1123","1123","0","[[1,0,0],[0,0],[2]]","22","[[2,1,3],[0,0],[0]]","1","0","","","","","","5","","","","",""
"","","","","","single-stim-button","206","3399365","0.0-3.0-13.21-1.21","63e857fe022e159687d56f41","C3","batch3","tol_toboard","796","","","","","","","","","tol_peg_1","796","796","0","[[1,3,0],[0,0],[2]]","22","[[2,1,3],[0,0],[0]]","1","0","","","","","","5","","","","",""
"","","","","","single-stim-button","207","3400414","0.0-3.0-13.22-0.22","63e857fe022e159687d56f41","C3","batch3","tol_tohand","1048","","","","","","","","","tol_peg_1","1048","1048","0","[[1,0,0],[0,0],[2]]","23","[[2,1,3],[0,0],[0]]","1","0","","","","","","5","","","","",""
"","","","","","single-stim-button","208","3401920","0.0-3.0-13.22-1.22","63e857fe022e159687d56f41","C3","batch3","tol_toboard","1505","","","","","","","","","tol_peg_2","1505","1505","0","[[1,0,0],[3,0],[2]]","23","[[2,1,3],[0,0],[0]]","1","0","","","","","","5","","","","",""
"","","","","","single-stim-button","209","3405584","0.0-3.0-13.23-0.23","63e857fe022e159687d56f41","C3","batch3","tol_tohand","3663","","","","","","","","","tol_peg_1","3663","3663","0","[[0,0,0],[3,0],[2]]","24","[[2,1,3],[0,0],[0]]","1","0","","","","","","5","","","","",""
"","","","","","single-stim-button","210","3406248","0.0-3.0-13.23-1.23","63e857fe022e159687d56f41","C3","batch3","tol_toboard","662","","","","","","","","","tol_peg_2","662","662","0","[[0,0,0],[3,1],[2]]","24","[[2,1,3],[0,0],[0]]","1","0","","","","","","5","","","","",""
"","","","","","single-stim-button","211","3407139","0.0-3.0-13.24-0.24","63e857fe022e159687d56f41","C3","batch3","tol_tohand","889","","","","","","","","","tol_peg_3","889","889","0","[[0,0,0],[3,1],[0]]","25","[[2,1,3],[0,0],[0]]","1","0","","","","","","5","","","","",""
"","","","","","single-stim-button","212","3408232","0.0-3.0-13.24-1.24","63e857fe022e159687d56f41","C3","batch3","tol_toboard","1092","","","","","","","","","tol_peg_1","1092","1092","0","[[2,0,0],[3,1],[0]]","25","[[2,1,3],[0,0],[0]]","1","0","","","","","","5","","","","",""
"","","","","","single-stim-button","213","3409639","0.0-3.0-13.25-0.25","63e857fe022e159687d56f41","C3","batch3","tol_tohand","1406","","","","","","","","","tol_peg_2","1406","1406","0","[[2,0,0],[3,0],[0]]","26","[[2,1,3],[0,0],[0]]","1","0","","","","","","5","","","","",""
"","","","","","single-stim-button","214","3410342","0.0-3.0-13.25-1.25","63e857fe022e159687d56f41","C3","batch3","tol_toboard","701","","","","","","","","","tol_peg_1","701","701","0","[[2,1,0],[3,0],[0]]","26","[[2,1,3],[0,0],[0]]","1","0","","","","","","5","","","","",""
"","","","","","single-stim-button","215","3410943","0.0-3.0-13.26-0.26","63e857fe022e159687d56f41","C3","batch3","tol_tohand","599","","","","","","","","","tol_peg_2","599","599","0","[[2,1,0],[0,0],[0]]","27","[[2,1,3],[0,0],[0]]","1","0","","","","","","5","","","","",""
"","","","","","single-stim-button","216","3411481","0.0-3.0-13.26-1.26","63e857fe022e159687d56f41","C3","batch3","tol_toboard","537","","","","","","","","","tol_peg_1","537","537","0","[[2,1,3],[0,0],[0]]","27","[[2,1,3],[0,0],[0]]","1","0","","","","","","5","","","","",""
"","","","","","poldrack-single-stim","217","3412483","0.0-3.0-14.0","63e857fe022e159687d56f41","C3","batch3","tol_feedback","-1","","","","","true","","","","","1000","1000","500","","","","","","-1","none","true","2828","56019","","","","","",""
"","","","","","html-button-response","218","3413403","0.0-3.0-15.0","63e857fe022e159687d56f41","C3","batch3","tol_trial_num","918.5999999642372","<div class = centerbox><p class = center-block-text>problem <strong>3</strong> out of 25 problems</p></div>","0","","","","","","","","","","","","","","","","","","","","","","","","","",""
"","","","","","single-stim-button","219","3418447","0.0-3.0-16.0-0.0","63e857fe022e159687d56f41","C3","batch3","tol_tohand","5042","","","","","","","","","tol_peg_3","5042","5042","0","[[2,3,0],[0,0],[0]]","1","[[1,2,0],[3,0],[0]]","2","0","","","","","","4","","","","",""
"","","","","","single-stim-button","220","3419499","0.0-3.0-16.0-1.0","63e857fe022e159687d56f41","C3","batch3","tol_toboard","1050","","","","","","","","","tol_peg_2","1050","1050","0","[[2,3,0],[1,0],[0]]","1","[[1,2,0],[3,0],[0]]","2","0","","","","","","4","","","","",""
"","","","","","single-stim-button","221","3426279","0.0-3.0-16.1-0.1","63e857fe022e159687d56f41","C3","batch3","tol_tohand","6780","","","","","","","","","tol_peg_1","6780","6780","0","[[2,0,0],[1,0],[0]]","2","[[1,2,0],[3,0],[0]]","2","0","","","","","","4","","","","",""
"","","","","","single-stim-button","222","3427218","0.0-3.0-16.1-1.1","63e857fe022e159687d56f41","C3","batch3","tol_toboard","938","","","","","","","","","tol_peg_3","938","938","0","[[2,0,0],[1,0],[3]]","2","[[1,2,0],[3,0],[0]]","2","0","","","","","","4","","","","",""
"","","","","","single-stim-button","223","3427997","0.0-3.0-16.2-0.2","63e857fe022e159687d56f41","C3","batch3","tol_tohand","777","","","","","","","","","tol_peg_2","777","777","0","[[2,0,0],[0,0],[3]]","3","[[1,2,0],[3,0],[0]]","2","0","","","","","","4","","","","",""
"","","","","","single-stim-button","224","3431006","0.0-3.0-16.2-1.2","63e857fe022e159687d56f41","C3","batch3","tol_toboard","3007","","","","","","","","","tol_peg_2","3007","3007","0","[[2,0,0],[1,0],[3]]","3","[[1,2,0],[3,0],[0]]","2","0","","","","","","4","","","","",""
"","","","","","single-stim-button","225","3436309","0.0-3.0-16.3-0.3","63e857fe022e159687d56f41","C3","batch3","tol_tohand","5303","","","","","","","","","tol_peg_3","5303","5303","0","[[2,0,0],[1,0],[0]]","4","[[1,2,0],[3,0],[0]]","2","0","","","","","","4","","","","",""
"","","","","","single-stim-button","226","3436832","0.0-3.0-16.3-1.3","63e857fe022e159687d56f41","C3","batch3","tol_toboard","522","","","","","","","","","tol_peg_2","522","522","0","[[2,0,0],[1,3],[0]]","4","[[1,2,0],[3,0],[0]]","2","0","","","","","","4","","","","",""
"","","","","","single-stim-button","227","3438599","0.0-3.0-16.4-0.4","63e857fe022e159687d56f41","C3","batch3","tol_tohand","1766","","","","","","","","","tol_peg_1","1766","1766","0","[[0,0,0],[1,3],[0]]","5","[[1,2,0],[3,0],[0]]","2","0","","","","","","4","","","","",""
"","","","","","single-stim-button","228","3439256","0.0-3.0-16.4-1.4","63e857fe022e159687d56f41","C3","batch3","tol_toboard","655","","","","","","","","","tol_peg_3","655","655","0","[[0,0,0],[1,3],[2]]","5","[[1,2,0],[3,0],[0]]","2","0","","","","","","4","","","","",""
"","","","","","single-stim-button","229","3443748","0.0-3.0-16.5-0.5","63e857fe022e159687d56f41","C3","batch3","tol_tohand","4491","","","","","","","","","tol_peg_3","4491","4491","0","[[0,0,0],[1,3],[0]]","6","[[1,2,0],[3,0],[0]]","2","0","","","","","","4","","","","",""
"","","","","","single-stim-button","230","3445810","0.0-3.0-16.5-1.5","63e857fe022e159687d56f41","C3","batch3","tol_toboard","2060","","","","","","","","","tol_peg_1","2060","2060","0","[[2,0,0],[1,3],[0]]","6","[[1,2,0],[3,0],[0]]","2","0","","","","","","4","","","","",""
"","","","","","single-stim-button","231","3449951","0.0-3.0-16.6-0.6","63e857fe022e159687d56f41","C3","batch3","tol_tohand","4140","","","","","","","","","tol_peg_2","4140","4140","0","[[2,0,0],[1,0],[0]]","7","[[1,2,0],[3,0],[0]]","2","0","","","","","","4","","","","",""
"","","","","","single-stim-button","232","3450841","0.0-3.0-16.6-1.6","63e857fe022e159687d56f41","C3","batch3","tol_toboard","889","","","","","","","","","tol_peg_1","889","889","0","[[2,3,0],[1,0],[0]]","7","[[1,2,0],[3,0],[0]]","2","0","","","","","","4","","","","",""
"","","","","","single-stim-button","233","3452075","0.0-3.0-16.7-0.7","63e857fe022e159687d56f41","C3","batch3","tol_tohand","1232","","","","","","","","","tol_peg_2","1232","1232","0","[[2,3,0],[0,0],[0]]","8","[[1,2,0],[3,0],[0]]","2","0","","","","","","4","","","","",""
"","","","","","single-stim-button","234","3452952","0.0-3.0-16.7-1.7","63e857fe022e159687d56f41","C3","batch3","tol_toboard","875","","","","","","","","","tol_peg_1","875","875","0","[[2,3,1],[0,0],[0]]","8","[[1,2,0],[3,0],[0]]","2","0","","","","","","4","","","","",""
"","","","","","single-stim-button","235","3458684","0.0-3.0-16.8-0.8","63e857fe022e159687d56f41","C3","batch3","tol_tohand","5731","","","","","","","","","tol_peg_1","5731","5731","0","[[2,3,0],[0,0],[0]]","9","[[1,2,0],[3,0],[0]]","2","0","","","","","","4","","","","",""
"","","","","","single-stim-button","236","3460146","0.0-3.0-16.8-1.8","63e857fe022e159687d56f41","C3","batch3","tol_toboard","1460","","","","","","","","","tol_peg_1","1460","1460","0","[[2,3,1],[0,0],[0]]","9","[[1,2,0],[3,0],[0]]","2","0","","","","","","4","","","","",""
"","","","","","single-stim-button","237","3460951","0.0-3.0-16.9-0.9","63e857fe022e159687d56f41","C3","batch3","tol_tohand","804","","","","","","","","","tol_peg_1","804","804","0","[[2,3,0],[0,0],[0]]","10","[[1,2,0],[3,0],[0]]","2","0","","","","","","4","","","","",""
"","","","","","single-stim-button","238","3461631","0.0-3.0-16.9-1.9","63e857fe022e159687d56f41","C3","batch3","tol_toboard","678","","","","","","","","","tol_peg_3","678","678","0","[[2,3,0],[0,0],[1]]","10","[[1,2,0],[3,0],[0]]","2","0","","","","","","4","","","","",""
"","","","","","single-stim-button","239","3463608","0.0-3.0-16.10-0.10","63e857fe022e159687d56f41","C3","batch3","tol_tohand","1975","","","","","","","","","tol_peg_1","1975","1975","0","[[2,0,0],[0,0],[1]]","11","[[1,2,0],[3,0],[0]]","2","0","","","","","","4","","","","",""
"","","","","","single-stim-button","240","3467139","0.0-3.0-16.10-1.10","63e857fe022e159687d56f41","C3","batch3","tol_toboard","3529","","","","","","","","","tol_peg_2","3529","3529","0","[[2,0,0],[3,0],[1]]","11","[[1,2,0],[3,0],[0]]","2","0","","","","","","4","","","","",""
"","","","","","single-stim-button","241","3467989","0.0-3.0-16.11-0.11","63e857fe022e159687d56f41","C3","batch3","tol_tohand","848","","","","","","","","","tol_peg_1","848","848","0","[[0,0,0],[3,0],[1]]","12","[[1,2,0],[3,0],[0]]","2","0","","","","","","4","","","","",""
"","","","","","single-stim-button","242","3470287","0.0-3.0-16.11-1.11","63e857fe022e159687d56f41","C3","batch3","tol_toboard","2297","","","","","","","","","tol_peg_2","2297","2297","0","[[0,0,0],[3,2],[1]]","12","[[1,2,0],[3,0],[0]]","2","0","","","","","","4","","","","",""
"","","","","","single-stim-button","243","3470841","0.0-3.0-16.12-0.12","63e857fe022e159687d56f41","C3","batch3","tol_tohand","552","","","","","","","","","tol_peg_3","552","552","0","[[0,0,0],[3,2],[0]]","13","[[1,2,0],[3,0],[0]]","2","0","","","","","","4","","","","",""
"","","","","","single-stim-button","244","3471997","0.0-3.0-16.12-1.12","63e857fe022e159687d56f41","C3","batch3","tol_toboard","1155","","","","","","","","","tol_peg_1","1155","1155","0","[[1,0,0],[3,2],[0]]","13","[[1,2,0],[3,0],[0]]","2","0","","","","","","4","","","","",""
"","","","","","single-stim-button","245","3472836","0.0-3.0-16.13-0.13","63e857fe022e159687d56f41","C3","batch3","tol_tohand","838","","","","","","","","","tol_peg_2","838","838","0","[[1,0,0],[3,0],[0]]","14","[[1,2,0],[3,0],[0]]","2","0","","","","","","4","","","","",""
"","","","","","single-stim-button","246","3473389","0.0-3.0-16.13-1.13","63e857fe022e159687d56f41","C3","batch3","tol_toboard","552","","","","","","","","","tol_peg_1","552","552","0","[[1,2,0],[3,0],[0]]","14","[[1,2,0],[3,0],[0]]","2","0","","","","","","4","","","","",""
"","","","","","poldrack-single-stim","247","3474391","0.0-3.0-17.0","63e857fe022e159687d56f41","C3","batch3","tol_feedback","-1","","","","","true","","","","","1000","1000","500","","","","","","-1","none","true","5042","40279","","","","","",""
"","","","","","html-button-response","248","3475022","0.0-3.0-18.0","63e857fe022e159687d56f41","C3","batch3","tol_trial_num","629","<div class = centerbox><p class = center-block-text>problem <strong>4</strong> out of 25 problems</p></div>","0","","","","","","","","","","","","","","","","","","","","","","","","","",""
"","","","","","single-stim-button","249","3481669","0.0-3.0-19.0-0.0","63e857fe022e159687d56f41","C3","batch3","tol_tohand","6644","","","","","","","","","tol_peg_2","6644","6644","0","[[3,0,0],[2,0],[0]]","1","[[3,0,0],[1,0],[2]]","3","0","","","","","","3","","","","",""
"","","","","","single-stim-button","250","3484459","0.0-3.0-19.0-1.0","63e857fe022e159687d56f41","C3","batch3","tol_toboard","2789","","","","","","","","","tol_peg_1","2789","2789","0","[[3,1,0],[2,0],[0]]","1","[[3,0,0],[1,0],[2]]","3","0","","","","","","3","","","","",""
"","","","","","single-stim-button","251","3484919","0.0-3.0-19.1-0.1","63e857fe022e159687d56f41","C3","batch3","tol_tohand","459","","","","","","","","","tol_peg_2","459","459","0","[[3,1,0],[0,0],[0]]","2","[[3,0,0],[1,0],[2]]","3","0","","","","","","3","","","","",""
"","","","","","single-stim-button","252","3485444","0.0-3.0-19.1-1.1","63e857fe022e159687d56f41","C3","batch3","tol_toboard","523","","","","","","","","","tol_peg_3","523","523","0","[[3,1,0],[0,0],[2]]","2","[[3,0,0],[1,0],[2]]","3","0","","","","","","3","","","","",""
"","","","","","single-stim-button","253","3486590","0.0-3.0-19.2-0.2","63e857fe022e159687d56f41","C3","batch3","tol_tohand","1146","","","","","","","","","tol_peg_1","1146","1146","0","[[3,0,0],[0,0],[2]]","3","[[3,0,0],[1,0],[2]]","3","0","","","","","","3","","","","",""
"","","","","","single-stim-button","254","3487710","0.0-3.0-19.2-1.2","63e857fe022e159687d56f41","C3","batch3","tol_toboard","1118","","","","","","","","","tol_peg_2","1118","1118","0","[[3,0,0],[1,0],[2]]","3","[[3,0,0],[1,0],[2]]","3","0","","","","","","3","","","","",""
"","","","","","poldrack-single-stim","255","3488718","0.0-3.0-20.0","63e857fe022e159687d56f41","C3","batch3","tol_feedback","-1","","","","","true","","","","","1000","1000","500","","","","","","-1","none","true","6644","8249","","","","","",""
"","","","","","html-button-response","256","3489730","0.0-3.0-21.0","63e857fe022e159687d56f41","C3","batch3","tol_trial_num","1010.2000000476837","<div class = centerbox><p class = center-block-text>problem <strong>5</strong> out of 25 problems</p></div>","0","","","","","","","","","","","","","","","","","","","","","","","","","",""
"","","","","","single-stim-button","257","3512474","0.0-3.0-22.0-0.0","63e857fe022e159687d56f41","C3","batch3","tol_tohand","22742","","","","","","","","","tol_peg_3","22742","22742","0","[[1,0,0],[2,0],[0]]","1","[[0,0,0],[1,2],[3]]","4","0","","","","","","7","","","","",""
"","","","","","single-stim-button","258","3517333","0.0-3.0-22.0-1.0","63e857fe022e159687d56f41","C3","batch3","tol_toboard","4857","","","","","","","","","tol_peg_1","4857","4857","0","[[1,3,0],[2,0],[0]]","1","[[0,0,0],[1,2],[3]]","4","0","","","","","","7","","","","",""
"","","","","","single-stim-button","259","3520709","0.0-3.0-22.1-0.1","63e857fe022e159687d56f41","C3","batch3","tol_tohand","3375","","","","","","","","","tol_peg_2","3375","3375","0","[[1,3,0],[0,0],[0]]","2","[[0,0,0],[1,2],[3]]","4","0","","","","","","7","","","","",""
"","","","","","single-stim-button","260","3521348","0.0-3.0-22.1-1.1","63e857fe022e159687d56f41","C3","batch3","tol_toboard","638","","","","","","","","","tol_peg_3","638","638","0","[[1,3,0],[0,0],[2]]","2","[[0,0,0],[1,2],[3]]","4","0","","","","","","7","","","","",""
"","","","","","single-stim-button","261","3521997","0.0-3.0-22.2-0.2","63e857fe022e159687d56f41","C3","batch3","tol_tohand","648","","","","","","","","","tol_peg_1","648","648","0","[[1,0,0],[0,0],[2]]","3","[[0,0,0],[1,2],[3]]","4","0","","","","","","7","","","","",""
"","","","","","single-stim-button","262","3524716","0.0-3.0-22.2-1.2","63e857fe022e159687d56f41","C3","batch3","tol_toboard","2717","","","","","","","","","tol_peg_2","2717","2717","0","[[1,0,0],[3,0],[2]]","3","[[0,0,0],[1,2],[3]]","4","0","","","","","","7","","","","",""
"","","","","","single-stim-button","263","3556685","0.0-3.0-22.3-0.3","63e857fe022e159687d56f41","C3","batch3","tol_tohand","31967","","","","","","","","","tol_peg_2","31967","31967","0","[[1,0,0],[0,0],[2]]","4","[[0,0,0],[1,2],[3]]","4","0","","","","","","7","","","","",""
"","","","","","single-stim-button","264","3559677","0.0-3.0-22.3-1.3","63e857fe022e159687d56f41","C3","batch3","tol_toboard","2991","","","","","","","","","tol_peg_1","2991","2991","0","[[1,3,0],[0,0],[2]]","4","[[0,0,0],[1,2],[3]]","4","0","","","","","","7","","","","",""
"","","","","","single-stim-button","265","3561538","0.0-3.0-22.4-0.4","63e857fe022e159687d56f41","C3","batch3","tol_tohand","1859","","","","","","","","","tol_peg_1","1859","1859","0","[[1,0,0],[0,0],[2]]","5","[[0,0,0],[1,2],[3]]","4","0","","","","","","7","","","","",""
"","","","","","single-stim-button","266","3562013","0.0-3.0-22.4-1.4","63e857fe022e159687d56f41","C3","batch3","tol_toboard","474","","","","","","","","","tol_peg_1","474","474","0","[[1,3,0],[0,0],[2]]","5","[[0,0,0],[1,2],[3]]","4","0","","","","","","7","","","","",""
"","","","","","single-stim-button","267","3562764","0.0-3.0-22.5-0.5","63e857fe022e159687d56f41","C3","batch3","tol_tohand","749","","","","","","","","","tol_peg_1","749","749","0","[[1,0,0],[0,0],[2]]","6","[[0,0,0],[1,2],[3]]","4","0","","","","","","7","","","","",""
"","","","","","single-stim-button","268","3566529","0.0-3.0-22.5-1.5","63e857fe022e159687d56f41","C3","batch3","tol_toboard","3764","","","","","","","","","tol_peg_1","3764","3764","0","[[1,3,0],[0,0],[2]]","6","[[0,0,0],[1,2],[3]]","4","0","","","","","","7","","","","",""
"","","","","","single-stim-button","269","3567288","0.0-3.0-22.6-0.6","63e857fe022e159687d56f41","C3","batch3","tol_tohand","757","","","","","","","","","tol_peg_3","757","757","0","[[1,3,0],[0,0],[0]]","7","[[0,0,0],[1,2],[3]]","4","0","","","","","","7","","","","",""
"","","","","","single-stim-button","270","3567921","0.0-3.0-22.6-1.6","63e857fe022e159687d56f41","C3","batch3","tol_toboard","632","","","","","","","","","tol_peg_2","632","632","0","[[1,3,0],[2,0],[0]]","7","[[0,0,0],[1,2],[3]]","4","0","","","","","","7","","","","",""
"","","","","","single-stim-button","271","3570013","0.0-3.0-22.7-0.7","63e857fe022e159687d56f41","C3","batch3","tol_tohand","2090","","","","","","","","","tol_peg_1","2090","2090","0","[[1,0,0],[2,0],[0]]","8","[[0,0,0],[1,2],[3]]","4","0","","","","","","7","","","","",""
"","","","","","single-stim-button","272","3571638","0.0-3.0-22.7-1.7","63e857fe022e159687d56f41","C3","batch3","tol_toboard","1624","","","","","","","","","tol_peg_3","1624","1624","0","[[1,0,0],[2,0],[3]]","8","[[0,0,0],[1,2],[3]]","4","0","","","","","","7","","","","",""
"","","","","","single-stim-button","273","3572215","0.0-3.0-22.8-0.8","63e857fe022e159687d56f41","C3","batch3","tol_tohand","575","","","","","","","","","tol_peg_2","575","575","0","[[1,0,0],[0,0],[3]]","9","[[0,0,0],[1,2],[3]]","4","0","","","","","","7","","","","",""
"","","","","","single-stim-button","274","3575551","0.0-3.0-22.8-1.8","63e857fe022e159687d56f41","C3","batch3","tol_toboard","3334","","","","","","","","","tol_peg_2","3334","3334","0","[[1,0,0],[2,0],[3]]","9","[[0,0,0],[1,2],[3]]","4","0","","","","","","7","","","","",""
"","","","","","single-stim-button","275","3577201","0.0-3.0-22.9-0.9","63e857fe022e159687d56f41","C3","batch3","tol_tohand","1649","","","","","","","","","tol_peg_3","1649","1649","0","[[1,0,0],[2,0],[0]]","10","[[0,0,0],[1,2],[3]]","4","0","","","","","","7","","","","",""
"","","","","","single-stim-button","276","3578411","0.0-3.0-22.9-1.9","63e857fe022e159687d56f41","C3","batch3","tol_toboard","1208","","","","","","","","","tol_peg_2","1208","1208","0","[[1,0,0],[2,3],[0]]","10","[[0,0,0],[1,2],[3]]","4","0","","","","","","7","","","","",""
"","","","","","single-stim-button","277","3579177","0.0-3.0-22.10-0.10","63e857fe022e159687d56f41","C3","batch3","tol_tohand","765","","","","","","","","","tol_peg_2","765","765","0","[[1,0,0],[2,0],[0]]","11","[[0,0,0],[1,2],[3]]","4","0","","","","","","7","","","","",""
"","","","","","single-stim-button","278","3579937","0.0-3.0-22.10-1.10","63e857fe022e159687d56f41","C3","batch3","tol_toboard","759","","","","","","","","","tol_peg_1","759","759","0","[[1,3,0],[2,0],[0]]","11","[[0,0,0],[1,2],[3]]","4","0","","","","","","7","","","","",""
"","","","","","single-stim-button","279","3581309","0.0-3.0-22.11-0.11","63e857fe022e159687d56f41","C3","batch3","tol_tohand","1372","","","","","","","","","tol_peg_2","1372","1372","0","[[1,3,0],[0,0],[0]]","12","[[0,0,0],[1,2],[3]]","4","0","","","","","","7","","","","",""
"","","","","","single-stim-button","280","3581988","0.0-3.0-22.11-1.11","63e857fe022e159687d56f41","C3","batch3","tol_toboard","678","","","","","","","","","tol_peg_3","678","678","0","[[1,3,0],[0,0],[2]]","12","[[0,0,0],[1,2],[3]]","4","0","","","","","","7","","","","",""
"","","","","","single-stim-button","281","3584465","0.0-3.0-22.12-0.12","63e857fe022e159687d56f41","C3","batch3","tol_tohand","2475","","","","","","","","","tol_peg_1","2475","2475","0","[[1,0,0],[0,0],[2]]","13","[[0,0,0],[1,2],[3]]","4","0","","","","","","7","","","","",""
"","","","","","single-stim-button","282","3585678","0.0-3.0-22.12-1.12","63e857fe022e159687d56f41","C3","batch3","tol_toboard","1211","","","","","","","","","tol_peg_1","1211","1211","0","[[1,3,0],[0,0],[2]]","13","[[0,0,0],[1,2],[3]]","4","0","","","","","","7","","","","",""
"","","","","","single-stim-button","283","3587201","0.0-3.0-22.13-0.13","63e857fe022e159687d56f41","C3","batch3","tol_tohand","1522","","","","","","","","","tol_peg_1","1522","1522","0","[[1,0,0],[0,0],[2]]","14","[[0,0,0],[1,2],[3]]","4","0","","","","","","7","","","","",""
"","","","","","single-stim-button","284","3590629","0.0-3.0-22.13-1.13","63e857fe022e159687d56f41","C3","batch3","tol_toboard","3425","","","","","","","","","tol_peg_2","3425","3425","0","[[1,0,0],[3,0],[2]]","14","[[0,0,0],[1,2],[3]]","4","0","","","","","","7","","","","",""
"","","","","","single-stim-button","285","3591426","0.0-3.0-22.14-0.14","63e857fe022e159687d56f41","C3","batch3","tol_tohand","796","","","","","","","","","tol_peg_3","796","796","0","[[1,0,0],[3,0],[0]]","15","[[0,0,0],[1,2],[3]]","4","0","","","","","","7","","","","",""
"","","","","","single-stim-button","286","3592309","0.0-3.0-22.14-1.14","63e857fe022e159687d56f41","C3","batch3","tol_toboard","881","","","","","","","","","tol_peg_1","881","881","0","[[1,2,0],[3,0],[0]]","15","[[0,0,0],[1,2],[3]]","4","0","","","","","","7","","","","",""
"","","","","","single-stim-button","287","3593153","0.0-3.0-22.15-0.15","63e857fe022e159687d56f41","C3","batch3","tol_tohand","842","","","","","","","","","tol_peg_2","842","842","0","[[1,2,0],[0,0],[0]]","16","[[0,0,0],[1,2],[3]]","4","0","","","","","","7","","","","",""
"","","","","","single-stim-button","288","3594029","0.0-3.0-22.15-1.15","63e857fe022e159687d56f41","C3","batch3","tol_toboard","874","","","","","","","","","tol_peg_3","874","874","0","[[1,2,0],[0,0],[3]]","16","[[0,0,0],[1,2],[3]]","4","0","","","","","","7","","","","",""
"","","","","","single-stim-button","289","3596646","0.0-3.0-22.16-0.16","63e857fe022e159687d56f41","C3","batch3","tol_tohand","2615","","","","","","","","","tol_peg_1","2615","2615","0","[[1,0,0],[0,0],[3]]","17","[[0,0,0],[1,2],[3]]","4","0","","","","","","7","","","","",""
"","","","","","single-stim-button","290","3597661","0.0-3.0-22.16-1.16","63e857fe022e159687d56f41","C3","batch3","tol_toboard","1014","","","","","","","","","tol_peg_2","1014","1014","0","[[1,0,0],[2,0],[3]]","17","[[0,0,0],[1,2],[3]]","4","0","","","","","","7","","","","",""
"","","","","","single-stim-button","291","3598990","0.0-3.0-22.17-0.17","63e857fe022e159687d56f41","C3","batch3","tol_tohand","1327","","","","","","","","","tol_peg_3","1327","1327","0","[[1,0,0],[2,0],[0]]","18","[[0,0,0],[1,2],[3]]","4","0","","","","","","7","","","","",""
"","","","","","single-stim-button","292","3599669","0.0-3.0-22.17-1.17","63e857fe022e159687d56f41","C3","batch3","tol_toboard","677","","","","","","","","","tol_peg_1","677","677","0","[[1,3,0],[2,0],[0]]","18","[[0,0,0],[1,2],[3]]","4","0","","","","","","7","","","","",""
"","","","","","single-stim-button","293","3601146","0.0-3.0-22.18-0.18","63e857fe022e159687d56f41","C3","batch3","tol_tohand","1475","","","","","","","","","tol_peg_2","1475","1475","0","[[1,3,0],[0,0],[0]]","19","[[0,0,0],[1,2],[3]]","4","0","","","","","","7","","","","",""
"","","","","","single-stim-button","294","3602677","0.0-3.0-22.18-1.18","63e857fe022e159687d56f41","C3","batch3","tol_toboard","1530","","","","","","","","","tol_peg_3","1530","1530","0","[[1,3,0],[0,0],[2]]","19","[[0,0,0],[1,2],[3]]","4","0","","","","","","7","","","","",""
"","","","","","single-stim-button","295","3603952","0.0-3.0-22.19-0.19","63e857fe022e159687d56f41","C3","batch3","tol_tohand","1273","","","","","","","","","tol_peg_3","1273","1273","0","[[1,3,0],[0,0],[0]]","20","[[0,0,0],[1,2],[3]]","4","0","","","","","","7","","","","",""
"","","","","","single-stim-button","296","3607590","0.0-3.0-22.19-1.19","63e857fe022e159687d56f41","C3","batch3","tol_toboard","3636","","","","","","","","","tol_peg_2","3636","3636","0","[[1,3,0],[2,0],[0]]","20","[[0,0,0],[1,2],[3]]","4","0","","","","","","7","","","","",""
"","","","","","single-stim-button","297","3608107","0.0-3.0-22.20-0.20","63e857fe022e159687d56f41","C3","batch3","tol_tohand","516","","","","","","","","","tol_peg_1","516","516","0","[[1,0,0],[2,0],[0]]","21","[[0,0,0],[1,2],[3]]","4","0","","","","","","7","","","","",""
"","","","","","single-stim-button","298","3608808","0.0-3.0-22.20-1.20","63e857fe022e159687d56f41","C3","batch3","tol_toboard","700","","","","","","","","","tol_peg_2","700","700","0","[[1,0,0],[2,3],[0]]","21","[[0,0,0],[1,2],[3]]","4","0","","","","","","7","","","","",""
"","","","","","single-stim-button","299","3609675","0.0-3.0-22.21-0.21","63e857fe022e159687d56f41","C3","batch3","tol_tohand","866","","","","","","","","","tol_peg_1","866","866","0","[[0,0,0],[2,3],[0]]","22","[[0,0,0],[1,2],[3]]","4","0","","","","","","7","","","","",""
"","","","","","single-stim-button","300","3611365","0.0-3.0-22.21-1.21","63e857fe022e159687d56f41","C3","batch3","tol_toboard","1688","","","","","","","","","tol_peg_3","1688","1688","0","[[0,0,0],[2,3],[1]]","22","[[0,0,0],[1,2],[3]]","4","0","","","","","","7","","","","",""
"","","","","","single-stim-button","301","3615107","0.0-3.0-22.22-0.22","63e857fe022e159687d56f41","C3","batch3","tol_tohand","3740","","","","","","","","","tol_peg_2","3740","3740","0","[[0,0,0],[2,0],[1]]","23","[[0,0,0],[1,2],[3]]","4","0","","","","","","7","","","","",""
"","","","","","single-stim-button","302","3616059","0.0-3.0-22.22-1.22","63e857fe022e159687d56f41","C3","batch3","tol_toboard","950","","","","","","","","","tol_peg_1","950","950","0","[[3,0,0],[2,0],[1]]","23","[[0,0,0],[1,2],[3]]","4","0","","","","","","7","","","","",""
"","","","","","single-stim-button","303","3616871","0.0-3.0-22.23-0.23","63e857fe022e159687d56f41","C3","batch3","tol_tohand","810","","","","","","","","","tol_peg_2","810","810","0","[[3,0,0],[0,0],[1]]","24","[[0,0,0],[1,2],[3]]","4","0","","","","","","7","","","","",""
"","","","","","single-stim-button","304","3617357","0.0-3.0-22.23-1.23","63e857fe022e159687d56f41","C3","batch3","tol_toboard","485","","","","","","","","","tol_peg_1","485","485","0","[[3,2,0],[0,0],[1]]","24","[[0,0,0],[1,2],[3]]","4","0","","","","","","7","","","","",""
"","","","","","single-stim-button","305","3618185","0.0-3.0-22.24-0.24","63e857fe022e159687d56f41","C3","batch3","tol_tohand","827","","","","","","","","","tol_peg_3","827","827","0","[[3,2,0],[0,0],[0]]","25","[[0,0,0],[1,2],[3]]","4","0","","","","","","7","","","","",""
"","","","","","single-stim-button","306","3619379","0.0-3.0-22.24-1.24","63e857fe022e159687d56f41","C3","batch3","tol_toboard","1193","","","","","","","","","tol_peg_2","1193","1193","0","[[3,2,0],[1,0],[0]]","25","[[0,0,0],[1,2],[3]]","4","0","","","","","","7","","","","",""
"","","","","","single-stim-button","307","3620161","0.0-3.0-22.25-0.25","63e857fe022e159687d56f41","C3","batch3","tol_tohand","780","","","","","","","","","tol_peg_1","780","780","0","[[3,0,0],[1,0],[0]]","26","[[0,0,0],[1,2],[3]]","4","0","","","","","","7","","","","",""
"","","","","","single-stim-button","308","3620747","0.0-3.0-22.25-1.25","63e857fe022e159687d56f41","C3","batch3","tol_toboard","585","","","","","","","","","tol_peg_2","585","585","0","[[3,0,0],[1,2],[0]]","26","[[0,0,0],[1,2],[3]]","4","0","","","","","","7","","","","",""
"","","","","","single-stim-button","309","3621521","0.0-3.0-22.26-0.26","63e857fe022e159687d56f41","C3","batch3","tol_tohand","773","","","","","","","","","tol_peg_1","773","773","0","[[0,0,0],[1,2],[0]]","27","[[0,0,0],[1,2],[3]]","4","0","","","","","","7","","","","",""
"","","","","","single-stim-button","310","3622308","0.0-3.0-22.26-1.26","63e857fe022e159687d56f41","C3","batch3","tol_toboard","786","","","","","","","","","tol_peg_3","786","786","0","[[0,0,0],[1,2],[3]]","27","[[0,0,0],[1,2],[3]]","4","0","","","","","","7","","","","",""
"","","","","","poldrack-single-stim","311","3623310","0.0-3.0-23.0","63e857fe022e159687d56f41","C3","batch3","tol_feedback","-1","","","","","true","","","","","1000","1000","500","","","","","","-1","none","true","22742","89185","","","","","",""
"","","","","","html-button-response","312","3624020","0.0-3.0-24.0","63e857fe022e159687d56f41","C3","batch3","tol_trial_num","707.6999999880791","<div class = centerbox><p class = center-block-text>problem <strong>6</strong> out of 25 problems</p></div>","0","","","","","","","","","","","","","","","","","","","","","","","","","",""
"","","","","","single-stim-button","313","3628778","0.0-3.0-25.0-0.0","63e857fe022e159687d56f41","C3","batch3","tol_tohand","4756","","","","","","","","","tol_peg_2","4756","4756","0","[[0,0,0],[1,0],[3]]","1","[[1,0,0],[2,3],[0]]","5","0","","","","","","6","","","","",""
"","","","","","single-stim-button","314","3629965","0.0-3.0-25.0-1.0","63e857fe022e159687d56f41","C3","batch3","tol_toboard","1185","","","","","","","","","tol_peg_2","1185","1185","0","[[0,0,0],[1,2],[3]]","1","[[1,0,0],[2,3],[0]]","5","0","","","","","","6","","","","",""
"","","","","","single-stim-button","315","3642200","0.0-3.0-25.1-0.1","63e857fe022e159687d56f41","C3","batch3","tol_tohand","12233","","","","","","","","","tol_peg_3","12233","12233","0","[[0,0,0],[1,2],[0]]","2","[[1,0,0],[2,3],[0]]","5","0","","","","","","6","","","","",""
"","","","","","single-stim-button","316","3642997","0.0-3.0-25.1-1.1","63e857fe022e159687d56f41","C3","batch3","tol_toboard","795","","","","","","","","","tol_peg_1","795","795","0","[[3,0,0],[1,2],[0]]","2","[[1,0,0],[2,3],[0]]","5","0","","","","","","6","","","","",""
"","","","","","single-stim-button","317","3644182","0.0-3.0-25.2-0.2","63e857fe022e159687d56f41","C3","batch3","tol_tohand","1184","","","","","","","","","tol_peg_2","1184","1184","0","[[3,0,0],[1,0],[0]]","3","[[1,0,0],[2,3],[0]]","5","0","","","","","","6","","","","",""
"","","","","","single-stim-button","318","3644692","0.0-3.0-25.2-1.2","63e857fe022e159687d56f41","C3","batch3","tol_toboard","509","","","","","","","","","tol_peg_3","509","509","0","[[3,0,0],[1,0],[2]]","3","[[1,0,0],[2,3],[0]]","5","0","","","","","","6","","","","",""
"","","","","","single-stim-button","319","3649143","0.0-3.0-25.3-0.3","63e857fe022e159687d56f41","C3","batch3","tol_tohand","4449","","","","","","","","","tol_peg_3","4449","4449","0","[[3,0,0],[1,0],[0]]","4","[[1,0,0],[2,3],[0]]","5","0","","","","","","6","","","","",""
"","","","","","single-stim-button","320","3651612","0.0-3.0-25.3-1.3","63e857fe022e159687d56f41","C3","batch3","tol_toboard","2468","","","","","","","","","tol_peg_1","2468","2468","0","[[3,2,0],[1,0],[0]]","4","[[1,0,0],[2,3],[0]]","5","0","","","","","","6","","","","",""
"","","","","","single-stim-button","321","3652454","0.0-3.0-25.4-0.4","63e857fe022e159687d56f41","C3","batch3","tol_tohand","842","","","","","","","","","tol_peg_2","842","842","0","[[3,2,0],[0,0],[0]]","5","[[1,0,0],[2,3],[0]]","5","0","","","","","","6","","","","",""
"","","","","","single-stim-button","322","3658800","0.0-3.0-25.4-1.4","63e857fe022e159687d56f41","C3","batch3","tol_toboard","6344","","","","","","","","","tol_peg_3","6344","6344","0","[[3,2,0],[0,0],[1]]","5","[[1,0,0],[2,3],[0]]","5","0","","","","","","6","","","","",""
"","","","","","single-stim-button","323","3661449","0.0-3.0-25.5-0.5","63e857fe022e159687d56f41","C3","batch3","tol_tohand","2647","","","","","","","","","tol_peg_1","2647","2647","0","[[3,0,0],[0,0],[1]]","6","[[1,0,0],[2,3],[0]]","5","0","","","","","","6","","","","",""
"","","","","","single-stim-button","324","3662145","0.0-3.0-25.5-1.5","63e857fe022e159687d56f41","C3","batch3","tol_toboard","695","","","","","","","","","tol_peg_2","695","695","0","[[3,0,0],[2,0],[1]]","6","[[1,0,0],[2,3],[0]]","5","0","","","","","","6","","","","",""
"","","","","","single-stim-button","325","3662716","0.0-3.0-25.6-0.6","63e857fe022e159687d56f41","C3","batch3","tol_tohand","570","","","","","","","","","tol_peg_1","570","570","0","[[0,0,0],[2,0],[1]]","7","[[1,0,0],[2,3],[0]]","5","0","","","","","","6","","","","",""
"","","","","","single-stim-button","326","3663869","0.0-3.0-25.6-1.6","63e857fe022e159687d56f41","C3","batch3","tol_toboard","1153","","","","","","","","","tol_peg_2","1153","1153","0","[[0,0,0],[2,3],[1]]","7","[[1,0,0],[2,3],[0]]","5","0","","","","","","6","","","","",""
"","","","","","single-stim-button","327","3664559","0.0-3.0-25.7-0.7","63e857fe022e159687d56f41","C3","batch3","tol_tohand","688","","","","","","","","","tol_peg_3","688","688","0","[[0,0,0],[2,3],[0]]","8","[[1,0,0],[2,3],[0]]","5","0","","","","","","6","","","","",""
"","","","","","single-stim-button","328","3665520","0.0-3.0-25.7-1.7","63e857fe022e159687d56f41","C3","batch3","tol_toboard","960","","","","","","","","","tol_peg_1","960","960","0","[[1,0,0],[2,3],[0]]","8","[[1,0,0],[2,3],[0]]","5","0","","","","","","6","","","","",""
"","","","","","poldrack-single-stim","329","3666523","0.0-3.0-26.0","63e857fe022e159687d56f41","C3","batch3","tol_feedback","-1","","","","","true","","","","","1000","1000","500","","","","","","-1","none","true","4756","27369","","","","","",""
"","","","","","html-button-response","330","3667144","0.0-3.0-27.0","63e857fe022e159687d56f41","C3","batch3","tol_trial_num","619.5","<div class = centerbox><p class = center-block-text>problem <strong>7</strong> out of 25 problems</p></div>","0","","","","","","","","","","","","","","","","","","","","","","","","","",""
"","","","","","single-stim-button","331","3675995","0.0-3.0-28.0-0.0","63e857fe022e159687d56f41","C3","batch3","tol_tohand","8850","","","","","","","","","tol_peg_3","8850","8850","0","[[2,1,0],[0,0],[0]]","1","[[1,2,0],[3,0],[0]]","6","0","","","","","","5","","","","",""
"","","","","","single-stim-button","332","3676645","0.0-3.0-28.0-1.0","63e857fe022e159687d56f41","C3","batch3","tol_toboard","648","","","","","","","","","tol_peg_2","648","648","0","[[2,1,0],[3,0],[0]]","1","[[1,2,0],[3,0],[0]]","6","0","","","","","","5","","","","",""
"","","","","","single-stim-button","333","3677436","0.0-3.0-28.1-0.1","63e857fe022e159687d56f41","C3","batch3","tol_tohand","790","","","","","","","","","tol_peg_1","790","790","0","[[2,0,0],[3,0],[0]]","2","[[1,2,0],[3,0],[0]]","6","0","","","","","","5","","","","",""
"","","","","","single-stim-button","334","3684027","0.0-3.0-28.1-1.1","63e857fe022e159687d56f41","C3","batch3","tol_toboard","6590","","","","","","","","","tol_peg_1","6590","6590","0","[[2,1,0],[3,0],[0]]","2","[[1,2,0],[3,0],[0]]","6","0","","","","","","5","","","","",""
"","","","","","single-stim-button","335","3684902","0.0-3.0-28.2-0.2","63e857fe022e159687d56f41","C3","batch3","tol_tohand","873","","","","","","","","","tol_peg_2","873","873","0","[[2,1,0],[0,0],[0]]","3","[[1,2,0],[3,0],[0]]","6","0","","","","","","5","","","","",""
"","","","","","single-stim-button","336","3686136","0.0-3.0-28.2-1.2","63e857fe022e159687d56f41","C3","batch3","tol_toboard","1233","","","","","","","","","tol_peg_3","1233","1233","0","[[2,1,0],[0,0],[3]]","3","[[1,2,0],[3,0],[0]]","6","0","","","","","","5","","","","",""
"","","","","","single-stim-button","337","3687308","0.0-3.0-28.3-0.3","63e857fe022e159687d56f41","C3","batch3","tol_tohand","1171","","","","","","","","","tol_peg_1","1171","1171","0","[[2,0,0],[0,0],[3]]","4","[[1,2,0],[3,0],[0]]","6","0","","","","","","5","","","","",""
"","","","","","single-stim-button","338","3689115","0.0-3.0-28.3-1.3","63e857fe022e159687d56f41","C3","batch3","tol_toboard","1805","","","","","","","","","tol_peg_2","1805","1805","0","[[2,0,0],[1,0],[3]]","4","[[1,2,0],[3,0],[0]]","6","0","","","","","","5","","","","",""
"","","","","","single-stim-button","339","3689769","0.0-3.0-28.4-0.4","63e857fe022e159687d56f41","C3","batch3","tol_tohand","654","","","","","","","","","tol_peg_1","654","654","0","[[0,0,0],[1,0],[3]]","5","[[1,2,0],[3,0],[0]]","6","0","","","","","","5","","","","",""
"","","","","","single-stim-button","340","3690473","0.0-3.0-28.4-1.4","63e857fe022e159687d56f41","C3","batch3","tol_toboard","702","","","","","","","","","tol_peg_2","702","702","0","[[0,0,0],[1,2],[3]]","5","[[1,2,0],[3,0],[0]]","6","0","","","","","","5","","","","",""
"","","","","","single-stim-button","341","3694481","0.0-3.0-28.5-0.5","63e857fe022e159687d56f41","C3","batch3","tol_tohand","4006","","","","","","","","","tol_peg_2","4006","4006","0","[[0,0,0],[1,0],[3]]","6","[[1,2,0],[3,0],[0]]","6","0","","","","","","5","","","","",""
"","","","","","single-stim-button","342","3695971","0.0-3.0-28.5-1.5","63e857fe022e159687d56f41","C3","batch3","tol_toboard","1489","","","","","","","","","tol_peg_1","1489","1489","0","[[2,0,0],[1,0],[3]]","6","[[1,2,0],[3,0],[0]]","6","0","","","","","","5","","","","",""
"","","","","","single-stim-button","343","3697034","0.0-3.0-28.6-0.6","63e857fe022e159687d56f41","C3","batch3","tol_tohand","1062","","","","","","","","","tol_peg_2","1062","1062","0","[[2,0,0],[0,0],[3]]","7","[[1,2,0],[3,0],[0]]","6","0","","","","","","5","","","","",""
"","","","","","single-stim-button","344","3697778","0.0-3.0-28.6-1.6","63e857fe022e159687d56f41","C3","batch3","tol_toboard","741","","","","","","","","","tol_peg_1","741","741","0","[[2,1,0],[0,0],[3]]","7","[[1,2,0],[3,0],[0]]","6","0","","","","","","5","","","","",""
"","","","","","single-stim-button","345","3698356","0.0-3.0-28.7-0.7","63e857fe022e159687d56f41","C3","batch3","tol_tohand","576","","","","","","","","","tol_peg_1","576","576","0","[[2,0,0],[0,0],[3]]","8","[[1,2,0],[3,0],[0]]","6","0","","","","","","5","","","","",""
"","","","","","single-stim-button","346","3699034","0.0-3.0-28.7-1.7","63e857fe022e159687d56f41","C3","batch3","tol_toboard","677","","","","","","","","","tol_peg_2","677","677","0","[[2,0,0],[1,0],[3]]","8","[[1,2,0],[3,0],[0]]","6","0","","","","","","5","","","","",""
"","","","","","single-stim-button","347","3699652","0.0-3.0-28.8-0.8","63e857fe022e159687d56f41","C3","batch3","tol_tohand","616","","","","","","","","","tol_peg_1","616","616","0","[[0,0,0],[1,0],[3]]","9","[[1,2,0],[3,0],[0]]","6","0","","","","","","5","","","","",""
"","","","","","single-stim-button","348","3700378","0.0-3.0-28.8-1.8","63e857fe022e159687d56f41","C3","batch3","tol_toboard","724","","","","","","","","","tol_peg_2","724","724","0","[[0,0,0],[1,2],[3]]","9","[[1,2,0],[3,0],[0]]","6","0","","","","","","5","","","","",""
"","","","","","single-stim-button","349","3703747","0.0-3.0-28.9-0.9","63e857fe022e159687d56f41","C3","batch3","tol_tohand","3368","","","","","","","","","tol_peg_2","3368","3368","0","[[0,0,0],[1,0],[3]]","10","[[1,2,0],[3,0],[0]]","6","0","","","","","","5","","","","",""
"","","","","","single-stim-button","350","3704565","0.0-3.0-28.9-1.9","63e857fe022e159687d56f41","C3","batch3","tol_toboard","816","","","","","","","","","tol_peg_2","816","816","0","[[0,0,0],[1,2],[3]]","10","[[1,2,0],[3,0],[0]]","6","0","","","","","","5","","","","",""
"","","","","","single-stim-button","351","3705207","0.0-3.0-28.10-0.10","63e857fe022e159687d56f41","C3","batch3","tol_tohand","641","","","","","","","","","tol_peg_2","641","641","0","[[0,0,0],[1,0],[3]]","11","[[1,2,0],[3,0],[0]]","6","0","","","","","","5","","","","",""
"","","","","","single-stim-button","352","3705934","0.0-3.0-28.10-1.10","63e857fe022e159687d56f41","C3","batch3","tol_toboard","725","","","","","","","","","tol_peg_1","725","725","0","[[2,0,0],[1,0],[3]]","11","[[1,2,0],[3,0],[0]]","6","0","","","","","","5","","","","",""
