"success","timeout","failed_images","failed_audio","failed_video","trial_type","trial_index","time_elapsed","internal_node_id","subject_id","study_id","session_id","view_history","rt","task","stimulus","response","correct","mouse_click","stim_duration","block_duration","timing_post_trial","current_position","tol_num_moves_made","tol_target","tol_problem_id","tol_rt","key_press","possible_responses","tol_correct","preplanning","tol_rt_per_trial","tol_min_moves","answer","item","fiar_detect_rt","fiar_detect_correct","total_correct_fiar_detect","post_trial_gap","choices","spm_correct","spm_rt"
"true","false","[]","[]","[]","preload","0","15854","0.0-0.0","63e96e05231079b3bcec58a7","F1","batch6","","","","","","","","","","","","","","","","","","","","","","","","","","","","","",""
"true","","","","","fullscreen","1","28941","0.0-1.0-0.0","63e96e05231079b3bcec58a7","F1","batch6","","","","","","","","","","","","","","","","","","","","","","","","","","","","","",""
"true","","","","","fullscreen","2","31734","0.0-2.0-0.0","63e96e05231079b3bcec58a7","F1","batch6","","","","","","","","","","","","","","","","","","","","","","","","","","","","","",""
"","","","","","instructions","3","84520","0.0-2.0-1.0-0.0-0.0","63e96e05231079b3bcec58a7","F1","batch6","[{""page_index"":0,""viewing_time"":12494.300000071526},{""page_index"":1,""viewing_time"":6306},{""page_index"":2,""viewing_time"":4825.599999904633},{""page_index"":3,""viewing_time"":9484.200000047684},{""page_index"":4,""viewing_time"":5486.200000047684},{""page_index"":5,""viewing_time"":10302.099999904633},{""page_index"":6,""viewing_time"":3884.8000000715256}]","52783.39999997616","tol-instructions","","","","","","","","","","","","","","","","","","","","","","","","","","",""
"","","","","","html-button-response","4","85355","0.0-2.0-1.0-1.0-0.0","63e96e05231079b3bcec58a7","F1","batch6","","834.4000000953674","tol_enter_quiz","<p class=block-text> Let's answer a few questions <br>","0","","","","","","","","","","","","","","","","","","","","","","","","",""
"","","","","","html-button-response","5","88574","0.0-2.0-1.0-1.0-1.0","63e96e05231079b3bcec58a7","F1","batch6","","3218","tol_quiz","<p class = block-text>True or False: You can only move the ball on top of a peg. <br></p>","0","true","","","","","","","","","","","","","","","","","","","","","","","",""
"","","","","","html-button-response","6","89581","0.0-2.0-1.0-1.0-2.0","63e96e05231079b3bcec58a7","F1","batch6","","1005.7999999523163","tol_quiz_feedback","<p class = block-text>Correct! You can only move the ball on top of a peg.</p>","0","","","","","","","","","","","","","","","","","","","","","","","","",""
"","","","","","html-button-response","7","92713","0.0-2.0-1.0-1.0-3.0","63e96e05231079b3bcec58a7","F1","batch6","","3132.2999999523163","tol_quiz","<p class = block-text>True or False: You should try to match your board with the target board with fewest moves possible. <br></p>","0","true","","","","","","","","","","","","","","","","","","","","","","","",""
"","","","","","html-button-response","8","93280","0.0-2.0-1.0-1.0-4.0","63e96e05231079b3bcec58a7","F1","batch6","","566.3999999761581","tol_quiz_feedback","<p class = block-text>Correct! </p>","0","","","","","","","","","","","","","","","","","","","","","","","","",""
"","","","","","html-button-response","9","94579","0.0-2.0-2.0","63e96e05231079b3bcec58a7","F1","batch6","","1297.1000000238419","","<p class=block-text> Now that you've understood the game, let's practice a few easier examples before we start!<br> <br>","0","","","","","","","","","","","","","","","","","","","","","","","","",""
"","","","","","single-stim-button","10","98985","0.0-2.0-3.0-0.0","63e96e05231079b3bcec58a7","F1","batch6","","4405","tol_practice","","","","tol_peg_2","4405","4405","0","[[1,2,0],[0,0],[0]]","1","[[1,2,0],[0,0],[3]]","practice","4405","","","","","","","","","","","","","","",""
"","","","","","single-stim-button","11","100941","0.0-2.0-3.0-1.0","63e96e05231079b3bcec58a7","F1","batch6","","1955","tol_practice","","","","tol_peg_3","1955","1955","0","[[1,2,0],[0,0],[3]]","1","[[1,2,0],[0,0],[3]]","practice","1955","","","","","","","","","","","","","","",""
"","","","","","poldrack-single-stim","12","101942","0.0-2.0-4.0","63e96e05231079b3bcec58a7","F1","batch6","","-1","tol_feedback","","","true","","1000","1000","500","","","","","","-1","none","true","","0","","","","","","","","","",""
"","","","","","single-stim-button","13","106612","0.0-2.0-5.0-0.0","63e96e05231079b3bcec58a7","F1","batch6","","4669","tol_practice","","","","tol_peg_1","4669","4669","0","[[1,0,0],[3,0],[0]]","2","[[0,0,0],[3,1],[2]]","practice","4669","","","","","","","","","","","","","","",""
"","","","","","single-stim-button","14","107415","0.0-2.0-5.0-1.0","63e96e05231079b3bcec58a7","F1","batch6","","802","tol_practice","","","","tol_peg_3","802","802","0","[[1,0,0],[3,0],[2]]","2","[[0,0,0],[3,1],[2]]","practice","802","","","","","","","","","","","","","","",""
"","","","","","single-stim-button","15","108295","0.0-2.0-5.1-0.1","63e96e05231079b3bcec58a7","F1","batch6","","880","tol_practice","","","","tol_peg_1","880","880","0","[[0,0,0],[3,0],[2]]","3","[[0,0,0],[3,1],[2]]","practice","880","","","","","","","","","","","","","","",""
"","","","","","single-stim-button","16","108904","0.0-2.0-5.1-1.1","63e96e05231079b3bcec58a7","F1","batch6","","607","tol_practice","","","","tol_peg_2","607","607","0","[[0,0,0],[3,1],[2]]","3","[[0,0,0],[3,1],[2]]","practice","607","","","","","","","","","","","","","","",""
"","","","","","poldrack-single-stim","17","109905","0.0-2.0-6.0","63e96e05231079b3bcec58a7","F1","batch6","","-1","tol_feedback","","","true","","1000","1000","500","","","","","","-1","none","true","","0","","","","","","","","","",""
"","","","","","single-stim-button","18","116663","0.0-2.0-7.0-0.0","63e96e05231079b3bcec58a7","F1","batch6","","6758","tol_practice","","","","tol_peg_2","6758","6758","0","[[1,2,0],[0,0],[0]]","4","[[1,0,0],[2,0],[3]]","practice","6758","","","","","","","","","","","","","","",""
"","","","","","single-stim-button","19","117447","0.0-2.0-7.0-1.0","63e96e05231079b3bcec58a7","F1","batch6","","783","tol_practice","","","","tol_peg_3","783","783","0","[[1,2,0],[0,0],[3]]","4","[[1,0,0],[2,0],[3]]","practice","783","","","","","","","","","","","","","","",""
"","","","","","single-stim-button","20","118122","0.0-2.0-7.1-0.1","63e96e05231079b3bcec58a7","F1","batch6","","674","tol_practice","","","","tol_peg_1","674","674","0","[[1,0,0],[0,0],[3]]","5","[[1,0,0],[2,0],[3]]","practice","674","","","","","","","","","","","","","","",""
"","","","","","single-stim-button","21","118729","0.0-2.0-7.1-1.1","63e96e05231079b3bcec58a7","F1","batch6","","605","tol_practice","","","","tol_peg_2","605","605","0","[[1,0,0],[2,0],[3]]","5","[[1,0,0],[2,0],[3]]","practice","605","","","","","","","","","","","","","","",""
"","","","","","poldrack-single-stim","22","119739","0.0-2.0-8.0","63e96e05231079b3bcec58a7","F1","batch6","","-1","tol_feedback","","","true","","1000","1000","500","","","","","","-1","none","true","","0","","","","","","","","","",""
"","","","","","html-button-response","23","121928","0.0-2.0-9.0","63e96e05231079b3bcec58a7","F1","batch6","","2188.100000023842","tol_instruction","<div class = centerbox><p class = center-block-text>Great job! You are done with practice trials<br>You are about to start official trials.<br> <br> Problem <strong>1</strong> out of 25 problems</p></div>","0","","","","","","","","","","","","","","","","","","","","","","","","",""
"","","","","","single-stim-button","24","134685","0.0-2.0-10.0-0.0","63e96e05231079b3bcec58a7","F1","batch6","","11753","tol_tohand","","","","tol_peg_1","11753","11753","0","[[1,0,0],[3,0],[0]]","1","[[1,3,0],[2,0],[0]]","0","0","","","","","","3","","","","","","","","",""
"","","","","","single-stim-button","25","135504","0.0-2.0-10.0-1.0","63e96e05231079b3bcec58a7","F1","batch6","","818","tol_toboard","","","","tol_peg_3","818","818","0","[[1,0,0],[3,0],[2]]","1","[[1,3,0],[2,0],[0]]","0","0","","","","","","3","","","","","","","","",""
"","","","","","single-stim-button","26","136420","0.0-2.0-10.1-0.1","63e96e05231079b3bcec58a7","F1","batch6","","915","tol_tohand","","","","tol_peg_2","915","915","0","[[1,0,0],[0,0],[2]]","2","[[1,3,0],[2,0],[0]]","0","0","","","","","","3","","","","","","","","",""
"","","","","","single-stim-button","27","137080","0.0-2.0-10.1-1.1","63e96e05231079b3bcec58a7","F1","batch6","","660","tol_toboard","","","","tol_peg_1","660","660","0","[[1,3,0],[0,0],[2]]","2","[[1,3,0],[2,0],[0]]","0","0","","","","","","3","","","","","","","","",""
"","","","","","single-stim-button","28","137889","0.0-2.0-10.2-0.2","63e96e05231079b3bcec58a7","F1","batch6","","809","tol_tohand","","","","tol_peg_3","809","809","0","[[1,3,0],[0,0],[0]]","3","[[1,3,0],[2,0],[0]]","0","0","","","","","","3","","","","","","","","",""
"","","","","","single-stim-button","29","138473","0.0-2.0-10.2-1.2","63e96e05231079b3bcec58a7","F1","batch6","","584","tol_toboard","","","","tol_peg_2","584","584","0","[[1,3,0],[2,0],[0]]","3","[[1,3,0],[2,0],[0]]","0","0","","","","","","3","","","","","","","","",""
"","","","","","poldrack-single-stim","30","139483","0.0-2.0-11.0","63e96e05231079b3bcec58a7","F1","batch6","","-1","tol_feedback","","","true","","1000","1000","500","","","","","","-1","none","true","11753","13477","","","","","","","","","",""
"","","","","","html-button-response","31","140456","0.0-2.0-12.0","63e96e05231079b3bcec58a7","F1","batch6","","972.1999999284744","tol_trial_num","<div class = centerbox><p class = center-block-text>problem <strong>2</strong> out of 25 problems</p></div>","0","","","","","","","","","","","","","","","","","","","","","","","","",""
"","","","","","single-stim-button","32","151404","0.0-2.0-13.0-0.0","63e96e05231079b3bcec58a7","F1","batch6","","10947","tol_tohand","","","","tol_peg_1","10947","10947","0","[[1,0,0],[3,0],[0]]","1","[[2,1,3],[0,0],[0]]","1","0","","","","","","5","","","","","","","","",""
"","","","","","single-stim-button","33","152071","0.0-2.0-13.0-1.0","63e96e05231079b3bcec58a7","F1","batch6","","667","tol_toboard","","","","tol_peg_3","667","667","0","[[1,0,0],[3,0],[2]]","1","[[2,1,3],[0,0],[0]]","1","0","","","","","","5","","","","","","","","",""
"","","","","","single-stim-button","34","154175","0.0-2.0-13.1-0.1","63e96e05231079b3bcec58a7","F1","batch6","","2104","tol_tohand","","","","tol_peg_1","2104","2104","0","[[0,0,0],[3,0],[2]]","2","[[2,1,3],[0,0],[0]]","1","0","","","","","","5","","","","","","","","",""
"","","","","","single-stim-button","35","154814","0.0-2.0-13.1-1.1","63e96e05231079b3bcec58a7","F1","batch6","","639","tol_toboard","","","","tol_peg_2","639","639","0","[[0,0,0],[3,1],[2]]","2","[[2,1,3],[0,0],[0]]","1","0","","","","","","5","","","","","","","","",""
"","","","","","single-stim-button","36","156175","0.0-2.0-13.2-0.2","63e96e05231079b3bcec58a7","F1","batch6","","1361","tol_tohand","","","","tol_peg_3","1361","1361","0","[[0,0,0],[3,1],[0]]","3","[[2,1,3],[0,0],[0]]","1","0","","","","","","5","","","","","","","","",""
"","","","","","single-stim-button","37","156788","0.0-2.0-13.2-1.2","63e96e05231079b3bcec58a7","F1","batch6","","613","tol_toboard","","","","tol_peg_1","613","613","0","[[2,0,0],[3,1],[0]]","3","[[2,1,3],[0,0],[0]]","1","0","","","","","","5","","","","","","","","",""
"","","","","","single-stim-button","38","157356","0.0-2.0-13.3-0.3","63e96e05231079b3bcec58a7","F1","batch6","","568","tol_tohand","","","","tol_peg_2","568","568","0","[[2,0,0],[3,0],[0]]","4","[[2,1,3],[0,0],[0]]","1","0","","","","","","5","","","","","","","","",""
"","","","","","single-stim-button","39","157893","0.0-2.0-13.3-1.3","63e96e05231079b3bcec58a7","F1","batch6","","537","tol_toboard","","","","tol_peg_1","537","537","0","[[2,1,0],[3,0],[0]]","4","[[2,1,3],[0,0],[0]]","1","0","","","","","","5","","","","","","","","",""
"","","","","","single-stim-button","40","158423","0.0-2.0-13.4-0.4","63e96e05231079b3bcec58a7","F1","batch6","","529","tol_tohand","","","","tol_peg_2","529","529","0","[[2,1,0],[0,0],[0]]","5","[[2,1,3],[0,0],[0]]","1","0","","","","","","5","","","","","","","","",""
"","","","","","single-stim-button","41","158959","0.0-2.0-13.4-1.4","63e96e05231079b3bcec58a7","F1","batch6","","536","tol_toboard","","","","tol_peg_1","536","536","0","[[2,1,3],[0,0],[0]]","5","[[2,1,3],[0,0],[0]]","1","0","","","","","","5","","","","","","","","",""
"","","","","","poldrack-single-stim","42","159967","0.0-2.0-14.0","63e96e05231079b3bcec58a7","F1","batch6","","-1","tol_feedback","","","true","","1000","1000","500","","","","","","-1","none","true","10947","15509","","","","","","","","","",""
"","","","","","html-button-response","43","160872","0.0-2.0-15.0","63e96e05231079b3bcec58a7","F1","batch6","","904.2999999523163","tol_trial_num","<div class = centerbox><p class = center-block-text>problem <strong>3</strong> out of 25 problems</p></div>","0","","","","","","","","","","","","","","","","","","","","","","","","",""
"","","","","","single-stim-button","44","168181","0.0-2.0-16.0-0.0","63e96e05231079b3bcec58a7","F1","batch6","","7308","tol_tohand","","","","tol_peg_1","7308","7308","0","[[2,0,0],[0,0],[1]]","1","[[1,2,0],[3,0],[0]]","2","0","","","","","","4","","","","","","","","",""
"","","","","","single-stim-button","45","169109","0.0-2.0-16.0-1.0","63e96e05231079b3bcec58a7","F1","batch6","","928","tol_toboard","","","","tol_peg_2","928","928","0","[[2,0,0],[3,0],[1]]","1","[[1,2,0],[3,0],[0]]","2","0","","","","","","4","","","","","","","","",""
"","","","","","single-stim-button","46","170601","0.0-2.0-16.1-0.1","63e96e05231079b3bcec58a7","F1","batch6","","1491","tol_tohand","","","","tol_peg_1","1491","1491","0","[[0,0,0],[3,0],[1]]","2","[[1,2,0],[3,0],[0]]","2","0","","","","","","4","","","","","","","","",""
"","","","","","single-stim-button","47","171130","0.0-2.0-16.1-1.1","63e96e05231079b3bcec58a7","F1","batch6","","529","tol_toboard","","","","tol_peg_2","529","529","0","[[0,0,0],[3,2],[1]]","2","[[1,2,0],[3,0],[0]]","2","0","","","","","","4","","","","","","","","",""
"","","","","","single-stim-button","48","171783","0.0-2.0-16.2-0.2","63e96e05231079b3bcec58a7","F1","batch6","","653","tol_tohand","","","","tol_peg_3","653","653","0","[[0,0,0],[3,2],[0]]","3","[[1,2,0],[3,0],[0]]","2","0","","","","","","4","","","","","","","","",""
"","","","","","single-stim-button","49","172434","0.0-2.0-16.2-1.2","63e96e05231079b3bcec58a7","F1","batch6","","651","tol_toboard","","","","tol_peg_1","651","651","0","[[1,0,0],[3,2],[0]]","3","[[1,2,0],[3,0],[0]]","2","0","","","","","","4","","","","","","","","",""
"","","","","","single-stim-button","50","172929","0.0-2.0-16.3-0.3","63e96e05231079b3bcec58a7","F1","batch6","","495","tol_tohand","","","","tol_peg_2","495","495","0","[[1,0,0],[3,0],[0]]","4","[[1,2,0],[3,0],[0]]","2","0","","","","","","4","","","","","","","","",""
"","","","","","single-stim-button","51","173374","0.0-2.0-16.3-1.3","63e96e05231079b3bcec58a7","F1","batch6","","445","tol_toboard","","","","tol_peg_1","445","445","0","[[1,2,0],[3,0],[0]]","4","[[1,2,0],[3,0],[0]]","2","0","","","","","","4","","","","","","","","",""
"","","","","","poldrack-single-stim","52","174377","0.0-2.0-17.0","63e96e05231079b3bcec58a7","F1","batch6","","-1","tol_feedback","","","true","","1000","1000","500","","","","","","-1","none","true","7308","9947","","","","","","","","","",""
"","","","","","html-button-response","53","175259","0.0-2.0-18.0","63e96e05231079b3bcec58a7","F1","batch6","","881.0999999046326","tol_trial_num","<div class = centerbox><p class = center-block-text>problem <strong>4</strong> out of 25 problems</p></div>","0","","","","","","","","","","","","","","","","","","","","","","","","",""
"","","","","","single-stim-button","54","180423","0.0-2.0-19.0-0.0","63e96e05231079b3bcec58a7","F1","batch6","","5164","tol_tohand","","","","tol_peg_2","5164","5164","0","[[3,0,0],[2,0],[0]]","1","[[3,0,0],[1,0],[2]]","3","0","","","","","","3","","","","","","","","",""
"","","","","","single-stim-button","55","180905","0.0-2.0-19.0-1.0","63e96e05231079b3bcec58a7","F1","batch6","","482","tol_toboard","","","","tol_peg_1","482","482","0","[[3,1,0],[2,0],[0]]","1","[[3,0,0],[1,0],[2]]","3","0","","","","","","3","","","","","","","","",""
"","","","","","single-stim-button","56","181472","0.0-2.0-19.1-0.1","63e96e05231079b3bcec58a7","F1","batch6","","567","tol_tohand","","","","tol_peg_2","567","567","0","[[3,1,0],[0,0],[0]]","2","[[3,0,0],[1,0],[2]]","3","0","","","","","","3","","","","","","","","",""
"","","","","","single-stim-button","57","181969","0.0-2.0-19.1-1.1","63e96e05231079b3bcec58a7","F1","batch6","","497","tol_toboard","","","","tol_peg_3","497","497","0","[[3,1,0],[0,0],[2]]","2","[[3,0,0],[1,0],[2]]","3","0","","","","","","3","","","","","","","","",""
"","","","","","single-stim-button","58","182644","0.0-2.0-19.2-0.2","63e96e05231079b3bcec58a7","F1","batch6","","675","tol_tohand","","","","tol_peg_1","675","675","0","[[3,0,0],[0,0],[2]]","3","[[3,0,0],[1,0],[2]]","3","0","","","","","","3","","","","","","","","",""
"","","","","","single-stim-button","59","183106","0.0-2.0-19.2-1.2","63e96e05231079b3bcec58a7","F1","batch6","","462","tol_toboard","","","","tol_peg_2","462","462","0","[[3,0,0],[1,0],[2]]","3","[[3,0,0],[1,0],[2]]","3","0","","","","","","3","","","","","","","","",""
"","","","","","poldrack-single-stim","60","184108","0.0-2.0-20.0","63e96e05231079b3bcec58a7","F1","batch6","","-1","tol_feedback","","","true","","1000","1000","500","","","","","","-1","none","true","5164","6406","","","","","","","","","",""
"","","","","","html-button-response","61","184888","0.0-2.0-21.0","63e96e05231079b3bcec58a7","F1","batch6","","779.5","tol_trial_num","<div class = centerbox><p class = center-block-text>problem <strong>5</strong> out of 25 problems</p></div>","0","","","","","","","","","","","","","","","","","","","","","","","","",""
"","","","","","single-stim-button","62","238515","0.0-2.0-22.0-0.0","63e96e05231079b3bcec58a7","F1","batch6","","53626","tol_tohand","","","","tol_peg_3","53626","53626","0","[[1,0,0],[2,0],[0]]","1","[[0,0,0],[1,2],[3]]","4","0","","","","","","7","","","","","","","","",""
"","","","","","single-stim-button","63","239194","0.0-2.0-22.0-1.0","63e96e05231079b3bcec58a7","F1","batch6","","679","tol_toboard","","","","tol_peg_1","679","679","0","[[1,3,0],[2,0],[0]]","1","[[0,0,0],[1,2],[3]]","4","0","","","","","","7","","","","","","","","",""
"","","","","","single-stim-button","64","241043","0.0-2.0-22.1-0.1","63e96e05231079b3bcec58a7","F1","batch6","","1849","tol_tohand","","","","tol_peg_2","1849","1849","0","[[1,3,0],[0,0],[0]]","2","[[0,0,0],[1,2],[3]]","4","0","","","","","","7","","","","","","","","",""
"","","","","","single-stim-button","65","243466","0.0-2.0-22.1-1.1","63e96e05231079b3bcec58a7","F1","batch6","","2423","tol_toboard","","","","tol_peg_3","2423","2423","0","[[1,3,0],[0,0],[2]]","2","[[0,0,0],[1,2],[3]]","4","0","","","","","","7","","","","","","","","",""
"","","","","","single-stim-button","66","261602","0.0-2.0-22.2-0.2","63e96e05231079b3bcec58a7","F1","batch6","","18136","tol_tohand","","","","tol_peg_1","18136","18136","0","[[1,0,0],[0,0],[2]]","3","[[0,0,0],[1,2],[3]]","4","0","","","","","","7","","","","","","","","",""
"","","","","","single-stim-button","67","262219","0.0-2.0-22.2-1.2","63e96e05231079b3bcec58a7","F1","batch6","","617","tol_toboard","","","","tol_peg_2","617","617","0","[[1,0,0],[3,0],[2]]","3","[[0,0,0],[1,2],[3]]","4","0","","","","","","7","","","","","","","","",""
"","","","","","single-stim-button","68","273348","0.0-2.0-22.3-0.3","63e96e05231079b3bcec58a7","F1","batch6","","11129","tol_tohand","","","","tol_peg_3","11129","11129","0","[[1,0,0],[3,0],[0]]","4","[[0,0,0],[1,2],[3]]","4","0","","","","","","7","","","","","","","","",""
"","","","","","single-stim-button","69","277549","0.0-2.0-22.3-1.3","63e96e05231079b3bcec58a7","F1","batch6","","4201","tol_toboard","","","","tol_peg_1","4201","4201","0","[[1,2,0],[3,0],[0]]","4","[[0,0,0],[1,2],[3]]","4","0","","","","","","7","","","","","","","","",""
"","","","","","single-stim-button","70","277961","0.0-2.0-22.4-0.4","63e96e05231079b3bcec58a7","F1","batch6","","412","tol_tohand","","","","tol_peg_2","412","412","0","[[1,2,0],[0,0],[0]]","5","[[0,0,0],[1,2],[3]]","4","0","","","","","","7","","","","","","","","",""
"","","","","","single-stim-button","71","278369","0.0-2.0-22.4-1.4","63e96e05231079b3bcec58a7","F1","batch6","","408","tol_toboard","","","","tol_peg_3","408","408","0","[[1,2,0],[0,0],[3]]","5","[[0,0,0],[1,2],[3]]","4","0","","","","","","7","","","","","","","","",""
"","","","","","single-stim-button","72","289283","0.0-2.0-22.5-0.5","63e96e05231079b3bcec58a7","F1","batch6","","10914","tol_tohand","","","","tol_peg_3","10914","10914","0","[[1,2,0],[0,0],[0]]","6","[[0,0,0],[1,2],[3]]","4","0","","","","","","7","","","","","","","","",""
"","","","","","single-stim-button","73","289697","0.0-2.0-22.5-1.5","63e96e05231079b3bcec58a7","F1","batch6","","412","tol_toboard","","","","tol_peg_2","412","412","0","[[1,2,0],[3,0],[0]]","6","[[0,0,0],[1,2],[3]]","4","0","","","","","","7","","","","","","","","",""
"","","","","","single-stim-button","74","291164","0.0-2.0-22.6-0.6","63e96e05231079b3bcec58a7","F1","batch6","","1467","tol_tohand","","","","tol_peg_1","1467","1467","0","[[1,0,0],[3,0],[0]]","7","[[0,0,0],[1,2],[3]]","4","0","","","","","","7","","","","","","","","",""
"","","","","","single-stim-button","75","293678","0.0-2.0-22.6-1.6","63e96e05231079b3bcec58a7","F1","batch6","","2514","tol_toboard","","","","tol_peg_3","2514","2514","0","[[1,0,0],[3,0],[2]]","7","[[0,0,0],[1,2],[3]]","4","0","","","","","","7","","","","","","","","",""
"","","","","","single-stim-button","76","294239","0.0-2.0-22.7-0.7","63e96e05231079b3bcec58a7","F1","batch6","","561","tol_tohand","","","","tol_peg_1","561","561","0","[[0,0,0],[3,0],[2]]","8","[[0,0,0],[1,2],[3]]","4","0","","","","","","7","","","","","","","","",""
"","","","","","single-stim-button","77","294660","0.0-2.0-22.7-1.7","63e96e05231079b3bcec58a7","F1","batch6","","421","tol_toboard","","","","tol_peg_2","421","421","0","[[0,0,0],[3,1],[2]]","8","[[0,0,0],[1,2],[3]]","4","0","","","","","","7","","","","","","","","",""
"","","","","","single-stim-button","78","299092","0.0-2.0-22.8-0.8","63e96e05231079b3bcec58a7","F1","batch6","","4432","tol_tohand","","","","tol_peg_3","4432","4432","0","[[0,0,0],[3,1],[0]]","9","[[0,0,0],[1,2],[3]]","4","0","","","","","","7","","","","","","","","",""
"","","","","","single-stim-button","79","300102","0.0-2.0-22.8-1.8","63e96e05231079b3bcec58a7","F1","batch6","","1010","tol_toboard","","","","tol_peg_1","1010","1010","0","[[2,0,0],[3,1],[0]]","9","[[0,0,0],[1,2],[3]]","4","0","","","","","","7","","","","","","","","",""
"","","","","","single-stim-button","80","300925","0.0-2.0-22.9-0.9","63e96e05231079b3bcec58a7","F1","batch6","","823","tol_tohand","","","","tol_peg_2","823","823","0","[[2,0,0],[3,0],[0]]","10","[[0,0,0],[1,2],[3]]","4","0","","","","","","7","","","","","","","","",""
"","","","","","single-stim-button","81","302102","0.0-2.0-22.9-1.9","63e96e05231079b3bcec58a7","F1","batch6","","1176","tol_toboard","","","","tol_peg_3","1176","1176","0","[[2,0,0],[3,0],[1]]","10","[[0,0,0],[1,2],[3]]","4","0","","","","","","7","","","","","","","","",""
"","","","","","single-stim-button","82","303876","0.0-2.0-22.10-0.10","63e96e05231079b3bcec58a7","F1","batch6","","1774","tol_tohand","","","","tol_peg_2","1774","1774","0","[[2,0,0],[0,0],[1]]","11","[[0,0,0],[1,2],[3]]","4","0","","","","","","7","","","","","","","","",""
"","","","","","single-stim-button","83","304386","0.0-2.0-22.10-1.10","63e96e05231079b3bcec58a7","F1","batch6","","509","tol_toboard","","","","tol_peg_1","509","509","0","[[2,3,0],[0,0],[1]]","11","[[0,0,0],[1,2],[3]]","4","0","","","","","","7","","","","","","","","",""
"","","","","","single-stim-button","84","304836","0.0-2.0-22.11-0.11","63e96e05231079b3bcec58a7","F1","batch6","","449","tol_tohand","","","","tol_peg_3","449","449","0","[[2,3,0],[0,0],[0]]","12","[[0,0,0],[1,2],[3]]","4","0","","","","","","7","","","","","","","","",""
"","","","","","single-stim-button","85","305215","0.0-2.0-22.11-1.11","63e96e05231079b3bcec58a7","F1","batch6","","378","tol_toboard","","","","tol_peg_2","378","378","0","[[2,3,0],[1,0],[0]]","12","[[0,0,0],[1,2],[3]]","4","0","","","","","","7","","","","","","","","",""
"","","","","","single-stim-button","86","305609","0.0-2.0-22.12-0.12","63e96e05231079b3bcec58a7","F1","batch6","","394","tol_tohand","","","","tol_peg_1","394","394","0","[[2,0,0],[1,0],[0]]","13","[[0,0,0],[1,2],[3]]","4","0","","","","","","7","","","","","","","","",""
"","","","","","single-stim-button","87","306022","0.0-2.0-22.12-1.12","63e96e05231079b3bcec58a7","F1","batch6","","412","tol_toboard","","","","tol_peg_3","412","412","0","[[2,0,0],[1,0],[3]]","13","[[0,0,0],[1,2],[3]]","4","0","","","","","","7","","","","","","","","",""
"","","","","","single-stim-button","88","306481","0.0-2.0-22.13-0.13","63e96e05231079b3bcec58a7","F1","batch6","","459","tol_tohand","","","","tol_peg_1","459","459","0","[[0,0,0],[1,0],[3]]","14","[[0,0,0],[1,2],[3]]","4","0","","","","","","7","","","","","","","","",""
"","","","","","single-stim-button","89","306763","0.0-2.0-22.13-1.13","63e96e05231079b3bcec58a7","F1","batch6","","281","tol_toboard","","","","tol_peg_2","281","281","0","[[0,0,0],[1,2],[3]]","14","[[0,0,0],[1,2],[3]]","4","0","","","","","","7","","","","","","","","",""
"","","","","","poldrack-single-stim","90","307765","0.0-2.0-23.0","63e96e05231079b3bcec58a7","F1","batch6","","-1","tol_feedback","","","true","","1000","1000","500","","","","","","-1","none","true","53626","106425","","","","","","","","","",""
"","","","","","html-button-response","91","308684","0.0-2.0-24.0","63e96e05231079b3bcec58a7","F1","batch6","","918.2999999523163","tol_trial_num","<div class = centerbox><p class = center-block-text>problem <strong>6</strong> out of 25 problems</p></div>","0","","","","","","","","","","","","","","","","","","","","","","","","",""
"","","","","","single-stim-button","92","350036","0.0-2.0-25.0-0.0","63e96e05231079b3bcec58a7","F1","batch6","","41351","tol_tohand","","","","tol_peg_3","41351","41351","0","[[0,0,0],[1,2],[0]]","1","[[1,0,0],[2,3],[0]]","5","0","","","","","","6","","","","","","","","",""
"","","","","","single-stim-button","93","350611","0.0-2.0-25.0-1.0","63e96e05231079b3bcec58a7","F1","batch6","","575","tol_toboard","","","","tol_peg_1","575","575","0","[[3,0,0],[1,2],[0]]","1","[[1,0,0],[2,3],[0]]","5","0","","","","","","6","","","","","","","","",""
"","","","","","single-stim-button","94","351286","0.0-2.0-25.1-0.1","63e96e05231079b3bcec58a7","F1","batch6","","674","tol_tohand","","","","tol_peg_2","674","674","0","[[3,0,0],[1,0],[0]]","2","[[1,0,0],[2,3],[0]]","5","0","","","","","","6","","","","","","","","",""
"","","","","","single-stim-button","95","352352","0.0-2.0-25.1-1.1","63e96e05231079b3bcec58a7","F1","batch6","","1066","tol_toboard","","","","tol_peg_3","1066","1066","0","[[3,0,0],[1,0],[2]]","2","[[1,0,0],[2,3],[0]]","5","0","","","","","","6","","","","","","","","",""
"","","","","","single-stim-button","96","358460","0.0-2.0-25.2-0.2","63e96e05231079b3bcec58a7","F1","batch6","","6107","tol_tohand","","","","tol_peg_2","6107","6107","0","[[3,0,0],[0,0],[2]]","3","[[1,0,0],[2,3],[0]]","5","0","","","","","","6","","","","","","","","",""
"","","","","","single-stim-button","97","358979","0.0-2.0-25.2-1.2","63e96e05231079b3bcec58a7","F1","batch6","","518","tol_toboard","","","","tol_peg_1","518","518","0","[[3,1,0],[0,0],[2]]","3","[[1,0,0],[2,3],[0]]","5","0","","","","","","6","","","","","","","","",""
"","","","","","single-stim-button","98","359748","0.0-2.0-25.3-0.3","63e96e05231079b3bcec58a7","F1","batch6","","768","tol_tohand","","","","tol_peg_3","768","768","0","[[3,1,0],[0,0],[0]]","4","[[1,0,0],[2,3],[0]]","5","0","","","","","","6","","","","","","","","",""
"","","","","","single-stim-button","99","360454","0.0-2.0-25.3-1.3","63e96e05231079b3bcec58a7","F1","batch6","","705","tol_toboard","","","","tol_peg_2","705","705","0","[[3,1,0],[2,0],[0]]","4","[[1,0,0],[2,3],[0]]","5","0","","","","","","6","","","","","","","","",""
"","","","","","single-stim-button","100","361759","0.0-2.0-25.4-0.4","63e96e05231079b3bcec58a7","F1","batch6","","1305","tol_tohand","","","","tol_peg_1","1305","1305","0","[[3,0,0],[2,0],[0]]","5","[[1,0,0],[2,3],[0]]","5","0","","","","","","6","","","","","","","","",""
"","","","","","single-stim-button","101","362210","0.0-2.0-25.4-1.4","63e96e05231079b3bcec58a7","F1","batch6","","451","tol_toboard","","","","tol_peg_3","451","451","0","[[3,0,0],[2,0],[1]]","5","[[1,0,0],[2,3],[0]]","5","0","","","","","","6","","","","","","","","",""
"","","","","","single-stim-button","102","362695","0.0-2.0-25.5-0.5","63e96e05231079b3bcec58a7","F1","batch6","","485","tol_tohand","","","","tol_peg_1","485","485","0","[[0,0,0],[2,0],[1]]","6","[[1,0,0],[2,3],[0]]","5","0","","","","","","6","","","","","","","","",""
"","","","","","single-stim-button","103","362974","0.0-2.0-25.5-1.5","63e96e05231079b3bcec58a7","F1","batch6","","278","tol_toboard","","","","tol_peg_2","278","278","0","[[0,0,0],[2,3],[1]]","6","[[1,0,0],[2,3],[0]]","5","0","","","","","","6","","","","","","","","",""
"","","","","","single-stim-button","104","363459","0.0-2.0-25.6-0.6","63e96e05231079b3bcec58a7","F1","batch6","","485","tol_tohand","","","","tol_peg_3","485","485","0","[[0,0,0],[2,3],[0]]","7","[[1,0,0],[2,3],[0]]","5","0","","","","","","6","","","","","","","","",""
"","","","","","single-stim-button","105","363974","0.0-2.0-25.6-1.6","63e96e05231079b3bcec58a7","F1","batch6","","515","tol_toboard","","","","tol_peg_1","515","515","0","[[1,0,0],[2,3],[0]]","7","[[1,0,0],[2,3],[0]]","5","0","","","","","","6","","","","","","","","",""
"","","","","","poldrack-single-stim","106","364975","0.0-2.0-26.0","63e96e05231079b3bcec58a7","F1","batch6","","-1","tol_feedback","","","true","","1000","1000","500","","","","","","-1","none","true","41351","51175","","","","","","","","","",""
"","","","","","html-button-response","107","365810","0.0-2.0-27.0","63e96e05231079b3bcec58a7","F1","batch6","","833.7999999523163","tol_trial_num","<div class = centerbox><p class = center-block-text>problem <strong>7</strong> out of 25 problems</p></div>","0","","","","","","","","","","","","","","","","","","","","","","","","",""
"","","","","","single-stim-button","108","372682","0.0-2.0-28.0-0.0","63e96e05231079b3bcec58a7","F1","batch6","","6872","tol_tohand","","","","tol_peg_3","6872","6872","0","[[2,1,0],[0,0],[0]]","1","[[1,2,0],[3,0],[0]]","6","0","","","","","","5","","","","","","","","",""
"","","","","","single-stim-button","109","373245","0.0-2.0-28.0-1.0","63e96e05231079b3bcec58a7","F1","batch6","","563","tol_toboard","","","","tol_peg_2","563","563","0","[[2,1,0],[3,0],[0]]","1","[[1,2,0],[3,0],[0]]","6","0","","","","","","5","","","","","","","","",""
"","","","","","single-stim-button","110","374661","0.0-2.0-28.1-0.1","63e96e05231079b3bcec58a7","F1","batch6","","1416","tol_tohand","","","","tol_peg_1","1416","1416","0","[[2,0,0],[3,0],[0]]","2","[[1,2,0],[3,0],[0]]","6","0","","","","","","5","","","","","","","","",""
"","","","","","single-stim-button","111","375631","0.0-2.0-28.1-1.1","63e96e05231079b3bcec58a7","F1","batch6","","970","tol_toboard","","","","tol_peg_3","970","970","0","[[2,0,0],[3,0],[1]]","2","[[1,2,0],[3,0],[0]]","6","0","","","","","","5","","","","","","","","",""
"","","","","","single-stim-button","112","376056","0.0-2.0-28.2-0.2","63e96e05231079b3bcec58a7","F1","batch6","","424","tol_tohand","","","","tol_peg_1","424","424","0","[[0,0,0],[3,0],[1]]","3","[[1,2,0],[3,0],[0]]","6","0","","","","","","5","","","","","","","","",""
"","","","","","single-stim-button","113","376430","0.0-2.0-28.2-1.2","63e96e05231079b3bcec58a7","F1","batch6","","373","tol_toboard","","","","tol_peg_2","373","373","0","[[0,0,0],[3,2],[1]]","3","[[1,2,0],[3,0],[0]]","6","0","","","","","","5","","","","","","","","",""
"","","","","","single-stim-button","114","376824","0.0-2.0-28.3-0.3","63e96e05231079b3bcec58a7","F1","batch6","","393","tol_tohand","","","","tol_peg_3","393","393","0","[[0,0,0],[3,2],[0]]","4","[[1,2,0],[3,0],[0]]","6","0","","","","","","5","","","","","","","","",""
"","","","","","single-stim-button","115","377319","0.0-2.0-28.3-1.3","63e96e05231079b3bcec58a7","F1","batch6","","495","tol_toboard","","","","tol_peg_1","495","495","0","[[1,0,0],[3,2],[0]]","4","[[1,2,0],[3,0],[0]]","6","0","","","","","","5","","","","","","","","",""
"","","","","","single-stim-button","116","377802","0.0-2.0-28.4-0.4","63e96e05231079b3bcec58a7","F1","batch6","","483","tol_tohand","","","","tol_peg_2","483","483","0","[[1,0,0],[3,0],[0]]","5","[[1,2,0],[3,0],[0]]","6","0","","","","","","5","","","","","","","","",""
"","","","","","single-stim-button","117","378055","0.0-2.0-28.4-1.4","63e96e05231079b3bcec58a7","F1","batch6","","253","tol_toboard","","","","tol_peg_1","253","253","0","[[1,2,0],[3,0],[0]]","5","[[1,2,0],[3,0],[0]]","6","0","","","","","","5","","","","","","","","",""
"","","","","","poldrack-single-stim","118","379057","0.0-2.0-29.0","63e96e05231079b3bcec58a7","F1","batch6","","-1","tol_feedback","","","true","","1000","1000","500","","","","","","-1","none","true","6872","9588","","","","","","","","","",""
"","","","","","html-button-response","119","379777","0.0-2.0-30.0","63e96e05231079b3bcec58a7","F1","batch6","","719.3999999761581","tol_trial_num","<div class = centerbox><p class = center-block-text>problem <strong>8</strong> out of 25 problems</p></div>","0","","","","","","","","","","","","","","","","","","","","","","","","",""
"","","","","","single-stim-button","120","382700","0.0-2.0-31.0-0.0","63e96e05231079b3bcec58a7","F1","batch6","","2923","tol_tohand","","","","tol_peg_3","2923","2923","0","[[0,0,0],[2,3],[0]]","1","[[1,2,0],[3,0],[0]]","7","0","","","","","","4","","","","","","","","",""
"","","","","","single-stim-button","121","384179","0.0-2.0-31.0-1.0","63e96e05231079b3bcec58a7","F1","batch6","","1479","tol_toboard","","","","tol_peg_1","1479","1479","0","[[1,0,0],[2,3],[0]]","1","[[1,2,0],[3,0],[0]]","7","0","","","","","","4","","","","","","","","",""
"","","","","","single-stim-button","122","384644","0.0-2.0-31.1-0.1","63e96e05231079b3bcec58a7","F1","batch6","","465","tol_tohand","","","","tol_peg_2","465","465","0","[[1,0,0],[2,0],[0]]","2","[[1,2,0],[3,0],[0]]","7","0","","","","","","4","","","","","","","","",""
"","","","","","single-stim-button","123","385141","0.0-2.0-31.1-1.1","63e96e05231079b3bcec58a7","F1","batch6","","496","tol_toboard","","","","tol_peg_3","496","496","0","[[1,0,0],[2,0],[3]]","2","[[1,2,0],[3,0],[0]]","7","0","","","","","","4","","","","","","","","",""
"","","","","","single-stim-button","124","385638","0.0-2.0-31.2-0.2","63e96e05231079b3bcec58a7","F1","batch6","","496","tol_tohand","","","","tol_peg_2","496","496","0","[[1,0,0],[0,0],[3]]","3","[[1,2,0],[3,0],[0]]","7","0","","","","","","4","","","","","","","","",""
"","","","","","single-stim-button","125","386389","0.0-2.0-31.2-1.2","63e96e05231079b3bcec58a7","F1","batch6","","751","tol_toboard","","","","tol_peg_1","751","751","0","[[1,2,0],[0,0],[3]]","3","[[1,2,0],[3,0],[0]]","7","0","","","","","","4","","","","","","","","",""
"","","","","","single-stim-button","126","386866","0.0-2.0-31.3-0.3","63e96e05231079b3bcec58a7","F1","batch6","","477","tol_tohand","","","","tol_peg_3","477","477","0","[[1,2,0],[0,0],[0]]","4","[[1,2,0],[3,0],[0]]","7","0","","","","","","4","","","","","","","","",""
"","","","","","single-stim-button","127","387177","0.0-2.0-31.3-1.3","63e96e05231079b3bcec58a7","F1","batch6","","311","tol_toboard","","","","tol_peg_2","311","311","0","[[1,2,0],[3,0],[0]]","4","[[1,2,0],[3,0],[0]]","7","0","","","","","","4","","","","","","","","",""
"","","","","","poldrack-single-stim","128","388181","0.0-2.0-32.0","63e96e05231079b3bcec58a7","F1","batch6","","-1","tol_feedback","","","true","","1000","1000","500","","","","","","-1","none","true","2923","4361","","","","","","","","","",""
"","","","","","html-button-response","129","388861","0.0-2.0-33.0","63e96e05231079b3bcec58a7","F1","batch6","","679.1999999284744","tol_trial_num","<div class = centerbox><p class = center-block-text>problem <strong>9</strong> out of 25 problems</p></div>","0","","","","","","","","","","","","","","","","","","","","","","","","",""
"","","","","","single-stim-button","130","418714","0.0-2.0-34.0-0.0","63e96e05231079b3bcec58a7","F1","batch6","","29853","tol_tohand","","","","tol_peg_3","29853","29853","0","[[3,2,0],[0,0],[0]]","1","[[2,1,0],[3,0],[0]]","8","0","","","","","","6","","","","","","","","",""
"","","","","","single-stim-button","131","419570","0.0-2.0-34.0-1.0","63e96e05231079b3bcec58a7","F1","batch6","","856","tol_toboard","","","","tol_peg_2","856","856","0","[[3,2,0],[1,0],[0]]","1","[[2,1,0],[3,0],[0]]","8","0","","","","","","6","","","","","","","","",""
"","","","","","single-stim-button","132","420168","0.0-2.0-34.1-0.1","63e96e05231079b3bcec58a7","F1","batch6","","598","tol_tohand","","","","tol_peg_1","598","598","0","[[3,0,0],[1,0],[0]]","2","[[2,1,0],[3,0],[0]]","8","0","","","","","","6","","","","","","","","",""
"","","","","","single-stim-button","133","420471","0.0-2.0-34.1-1.1","63e96e05231079b3bcec58a7","F1","batch6","","303","tol_toboard","","","","tol_peg_2","303","303","0","[[3,0,0],[1,2],[0]]","2","[[2,1,0],[3,0],[0]]","8","0","","","","","","6","","","","","","","","",""
"","","","","","single-stim-button","134","421655","0.0-2.0-34.2-0.2","63e96e05231079b3bcec58a7","F1","batch6","","1184","tol_tohand","","","","tol_peg_1","1184","1184","0","[[0,0,0],[1,2],[0]]","3","[[2,1,0],[3,0],[0]]","8","0","","","","","","6","","","","","","","","",""
"","","","","","single-stim-button","135","422162","0.0-2.0-34.2-1.2","63e96e05231079b3bcec58a7","F1","batch6","","506","tol_toboard","","","","tol_peg_3","506","506","0","[[0,0,0],[1,2],[3]]","3","[[2,1,0],[3,0],[0]]","8","0","","","","","","6","","","","","","","","",""
"","","","","","single-stim-button","136","422734","0.0-2.0-34.3-0.3","63e96e05231079b3bcec58a7","F1","batch6","","572","tol_tohand","","","","tol_peg_2","572","572","0","[[0,0,0],[1,0],[3]]","4","[[2,1,0],[3,0],[0]]","8","0","","","","","","6","","","","","","","","",""
"","","","","","single-stim-button","137","423064","0.0-2.0-34.3-1.3","63e96e05231079b3bcec58a7","F1","batch6","","329","tol_toboard","","","","tol_peg_1","329","329","0","[[2,0,0],[1,0],[3]]","4","[[2,1,0],[3,0],[0]]","8","0","","","","","","6","","","","","","","","",""
"","","","","","single-stim-button","138","423506","0.0-2.0-34.4-0.4","63e96e05231079b3bcec58a7","F1","batch6","","440","tol_tohand","","","","tol_peg_2","440","440","0","[[2,0,0],[0,0],[3]]","5","[[2,1,0],[3,0],[0]]","8","0","","","","","","6","","","","","","","","",""
"","","","","","single-stim-button","139","423935","0.0-2.0-34.4-1.4","63e96e05231079b3bcec58a7","F1","batch6","","429","tol_toboard","","","","tol_peg_1","429","429","0","[[2,1,0],[0,0],[3]]","5","[[2,1,0],[3,0],[0]]","8","0","","","","","","6","","","","","","","","",""
"","","","","","single-stim-button","140","424506","0.0-2.0-34.5-0.5","63e96e05231079b3bcec58a7","F1","batch6","","571","tol_tohand","","","","tol_peg_3","571","571","0","[[2,1,0],[0,0],[0]]","6","[[2,1,0],[3,0],[0]]","8","0","","","","","","6","","","","","","","","",""
"","","","","","single-stim-button","141","424781","0.0-2.0-34.5-1.5","63e96e05231079b3bcec58a7","F1","batch6","","274","tol_toboard","","","","tol_peg_2","274","274","0","[[2,1,0],[3,0],[0]]","6","[[2,1,0],[3,0],[0]]","8","0","","","","","","6","","","","","","","","",""
"","","","","","poldrack-single-stim","142","425788","0.0-2.0-35.0","63e96e05231079b3bcec58a7","F1","batch6","","-1","tol_feedback","","","true","","1000","1000","500","","","","","","-1","none","true","29853","33218","","","","","","","","","",""
"","","","","","html-button-response","143","426441","0.0-2.0-36.0","63e96e05231079b3bcec58a7","F1","batch6","","652.1000000238419","tol_trial_num","<div class = centerbox><p class = center-block-text>problem <strong>10</strong> out of 25 problems</p></div>","0","","","","","","","","","","","","","","","","","","","","","","","","",""
"","","","","","single-stim-button","144","433821","0.0-2.0-37.0-0.0","63e96e05231079b3bcec58a7","F1","batch6","","7379","tol_tohand","","","","tol_peg_2","7379","7379","0","[[3,0,0],[0,0],[2]]","1","[[3,0,0],[2,1],[0]]","9","0","","","","","","3","","","","","","","","",""
"","","","","","single-stim-button","145","434223","0.0-2.0-37.0-1.0","63e96e05231079b3bcec58a7","F1","batch6","","402","tol_toboard","","","","tol_peg_1","402","402","0","[[3,1,0],[0,0],[2]]","1","[[3,0,0],[2,1],[0]]","9","0","","","","","","3","","","","","","","","",""
"","","","","","single-stim-button","146","434679","0.0-2.0-37.1-0.1","63e96e05231079b3bcec58a7","F1","batch6","","456","tol_tohand","","","","tol_peg_3","456","456","0","[[3,1,0],[0,0],[0]]","2","[[3,0,0],[2,1],[0]]","9","0","","","","","","3","","","","","","","","",""
"","","","","","single-stim-button","147","435028","0.0-2.0-37.1-1.1","63e96e05231079b3bcec58a7","F1","batch6","","349","tol_toboard","","","","tol_peg_2","349","349","0","[[3,1,0],[2,0],[0]]","2","[[3,0,0],[2,1],[0]]","9","0","","","","","","3","","","","","","","","",""
"","","","","","single-stim-button","148","435624","0.0-2.0-37.2-0.2","63e96e05231079b3bcec58a7","F1","batch6","","595","tol_tohand","","","","tol_peg_1","595","595","0","[[3,0,0],[2,0],[0]]","3","[[3,0,0],[2,1],[0]]","9","0","","","","","","3","","","","","","","","",""
"","","","","","single-stim-button","149","435940","0.0-2.0-37.2-1.2","63e96e05231079b3bcec58a7","F1","batch6","","316","tol_toboard","","","","tol_peg_2","316","316","0","[[3,0,0],[2,1],[0]]","3","[[3,0,0],[2,1],[0]]","9","0","","","","","","3","","","","","","","","",""
"","","","","","poldrack-single-stim","150","436941","0.0-2.0-38.0","63e96e05231079b3bcec58a7","F1","batch6","","-1","tol_feedback","","","true","","1000","1000","500","","","","","","-1","none","true","7379","8430","","","","","","","","","",""
"","","","","","html-button-response","151","437522","0.0-2.0-39.0","63e96e05231079b3bcec58a7","F1","batch6","","579.6000000238419","tol_trial_num","<div class = centerbox><p class = center-block-text>problem <strong>11</strong> out of 25 problems</p></div>","0","","","","","","","","","","","","","","","","","","","","","","","","",""
"","","","","","single-stim-button","152","536184","0.0-2.0-40.0-0.0","63e96e05231079b3bcec58a7","F1","batch6","","98662","tol_tohand","","","","tol_peg_1","98662","98662","0","[[1,0,0],[3,0],[0]]","1","[[2,0,0],[1,3],[0]]","10","0","","","","","","6","","","","","","","","",""
"","","","","","single-stim-button","153","536719","0.0-2.0-40.0-1.0","63e96e05231079b3bcec58a7","F1","batch6","","534","tol_toboard","","","","tol_peg_3","534","534","0","[[1,0,0],[3,0],[2]]","1","[[2,0,0],[1,3],[0]]","10","0","","","","","","6","","","","","","","","",""
"","","","","","single-stim-button","154","537732","0.0-2.0-40.1-0.1","63e96e05231079b3bcec58a7","F1","batch6","","1012","tol_tohand","","","","tol_peg_1","1012","1012","0","[[0,0,0],[3,0],[2]]","2","[[2,0,0],[1,3],[0]]","10","0","","","","","","6","","","","","","","","",""
"","","","","","single-stim-button","155","538137","0.0-2.0-40.1-1.1","63e96e05231079b3bcec58a7","F1","batch6","","404","tol_toboard","","","","tol_peg_2","404","404","0","[[0,0,0],[3,1],[2]]","2","[[2,0,0],[1,3],[0]]","10","0","","","","","","6","","","","","","","","",""
"","","","","","single-stim-button","156","538619","0.0-2.0-40.2-0.2","63e96e05231079b3bcec58a7","F1","batch6","","482","tol_tohand","","","","tol_peg_3","482","482","0","[[0,0,0],[3,1],[0]]","3","[[2,0,0],[1,3],[0]]","10","0","","","","","","6","","","","","","","","",""
"","","","","","single-stim-button","157","539517","0.0-2.0-40.2-1.2","63e96e05231079b3bcec58a7","F1","batch6","","897","tol_toboard","","","","tol_peg_1","897","897","0","[[2,0,0],[3,1],[0]]","3","[[2,0,0],[1,3],[0]]","10","0","","","","","","6","","","","","","","","",""
"","","","","","single-stim-button","158","543434","0.0-2.0-40.3-0.3","63e96e05231079b3bcec58a7","F1","batch6","","3916","tol_tohand","","","","tol_peg_2","3916","3916","0","[[2,0,0],[3,0],[0]]","4","[[2,0,0],[1,3],[0]]","10","0","","","","","","6","","","","","","","","",""
"","","","","","single-stim-button","159","543955","0.0-2.0-40.3-1.3","63e96e05231079b3bcec58a7","F1","batch6","","520","tol_toboard","","","","tol_peg_1","520","520","0","[[2,1,0],[3,0],[0]]","4","[[2,0,0],[1,3],[0]]","10","0","","","","","","6","","","","","","","","",""
"","","","","","single-stim-button","160","544359","0.0-2.0-40.4-0.4","63e96e05231079b3bcec58a7","F1","batch6","","403","tol_tohand","","","","tol_peg_2","403","403","0","[[2,1,0],[0,0],[0]]","5","[[2,0,0],[1,3],[0]]","10","0","","","","","","6","","","","","","","","",""
"","","","","","single-stim-button","161","544751","0.0-2.0-40.4-1.4","63e96e05231079b3bcec58a7","F1","batch6","","392","tol_toboard","","","","tol_peg_3","392","392","0","[[2,1,0],[0,0],[3]]","5","[[2,0,0],[1,3],[0]]","10","0","","","","","","6","","","","","","","","",""
"","","","","","single-stim-button","162","545166","0.0-2.0-40.5-0.5","63e96e05231079b3bcec58a7","F1","batch6","","414","tol_tohand","","","","tol_peg_1","414","414","0","[[2,0,0],[0,0],[3]]","6","[[2,0,0],[1,3],[0]]","10","0","","","","","","6","","","","","","","","",""
"","","","","","single-stim-button","163","545534","0.0-2.0-40.5-1.5","63e96e05231079b3bcec58a7","F1","batch6","","367","tol_toboard","","","","tol_peg_2","367","367","0","[[2,0,0],[1,0],[3]]","6","[[2,0,0],[1,3],[0]]","10","0","","","","","","6","","","","","","","","",""
"","","","","","single-stim-button","164","545919","0.0-2.0-40.6-0.6","63e96e05231079b3bcec58a7","F1","batch6","","384","tol_tohand","","","","tol_peg_3","384","384","0","[[2,0,0],[1,0],[0]]","7","[[2,0,0],[1,3],[0]]","10","0","","","","","","6","","","","","","","","",""
"","","","","","single-stim-button","165","546334","0.0-2.0-40.6-1.6","63e96e05231079b3bcec58a7","F1","batch6","","414","tol_toboard","","","","tol_peg_2","414","414","0","[[2,0,0],[1,3],[0]]","7","[[2,0,0],[1,3],[0]]","10","0","","","","","","6","","","","","","","","",""
"","","","","","poldrack-single-stim","166","547349","0.0-2.0-41.0","63e96e05231079b3bcec58a7","F1","batch6","","-1","tol_feedback","","","true","","1000","1000","500","","","","","","-1","none","true","98662","105273","","","","","","","","","",""
"","","","","","html-button-response","167","548236","0.0-2.0-42.0","63e96e05231079b3bcec58a7","F1","batch6","","886.6999999284744","tol_trial_num","<div class = centerbox><p class = center-block-text>problem <strong>12</strong> out of 25 problems</p></div>","0","","","","","","","","","","","","","","","","","","","","","","","","",""
"","","","","","single-stim-button","168","556948","0.0-2.0-43.0-0.0","63e96e05231079b3bcec58a7","F1","batch6","","8711","tol_tohand","","","","tol_peg_1","8711","8711","0","[[1,0,0],[3,0],[0]]","1","[[2,3,0],[0,0],[1]]","11","0","","","","","","4","","","","","","","","",""
"","","","","","single-stim-button","169","557239","0.0-2.0-43.0-1.0","63e96e05231079b3bcec58a7","F1","batch6","","290","tol_toboard","","","","tol_peg_2","290","290","0","[[1,0,0],[3,2],[0]]","1","[[2,3,0],[0,0],[1]]","11","0","","","","","","4","","","","","","","","",""
"","","","","","single-stim-button","170","558046","0.0-2.0-43.1-0.1","63e96e05231079b3bcec58a7","F1","batch6","","806","tol_tohand","","","","tol_peg_1","806","806","0","[[0,0,0],[3,2],[0]]","2","[[2,3,0],[0,0],[1]]","11","0","","","","","","4","","","","","","","","",""
"","","","","","single-stim-button","171","558746","0.0-2.0-43.1-1.1","63e96e05231079b3bcec58a7","F1","batch6","","699","tol_toboard","","","","tol_peg_3","699","699","0","[[0,0,0],[3,2],[1]]","2","[[2,3,0],[0,0],[1]]","11","0","","","","","","4","","","","","","","","",""
"","","","","","single-stim-button","172","567573","0.0-2.0-43.2-0.2","63e96e05231079b3bcec58a7","F1","batch6","","8826","tol_tohand","","","","tol_peg_2","8826","8826","0","[[0,0,0],[3,0],[1]]","3","[[2,3,0],[0,0],[1]]","11","0","","","","","","4","","","","","","","","",""
"","","","","","single-stim-button","173","567975","0.0-2.0-43.2-1.2","63e96e05231079b3bcec58a7","F1","batch6","","401","tol_toboard","","","","tol_peg_1","401","401","0","[[2,0,0],[3,0],[1]]","3","[[2,3,0],[0,0],[1]]","11","0","","","","","","4","","","","","","","","",""
"","","","","","single-stim-button","174","568286","0.0-2.0-43.3-0.3","63e96e05231079b3bcec58a7","F1","batch6","","310","tol_tohand","","","","tol_peg_2","310","310","0","[[2,0,0],[0,0],[1]]","4","[[2,3,0],[0,0],[1]]","11","0","","","","","","4","","","","","","","","",""
"","","","","","single-stim-button","175","568594","0.0-2.0-43.3-1.3","63e96e05231079b3bcec58a7","F1","batch6","","308","tol_toboard","","","","tol_peg_1","308","308","0","[[2,3,0],[0,0],[1]]","4","[[2,3,0],[0,0],[1]]","11","0","","","","","","4","","","","","","","","",""
"","","","","","poldrack-single-stim","176","569596","0.0-2.0-44.0","63e96e05231079b3bcec58a7","F1","batch6","","-1","tol_feedback","","","true","","1000","1000","500","","","","","","-1","none","true","8711","18653","","","","","","","","","",""
"","","","","","html-button-response","177","570278","0.0-2.0-45.0","63e96e05231079b3bcec58a7","F1","batch6","","681.6000000238419","tol_trial_num","<div class = centerbox><p class = center-block-text>problem <strong>13</strong> out of 25 problems</p></div>","0","","","","","","","","","","","","","","","","","","","","","","","","",""
"","","","","","single-stim-button","178","579123","0.0-2.0-46.0-0.0","63e96e05231079b3bcec58a7","F1","batch6","","8843","tol_tohand","","","","tol_peg_1","8843","8843","0","[[1,0,0],[3,0],[0]]","1","[[0,0,0],[2,3],[1]]","12","0","","","","","","4","","","","","","","","",""
"","","","","","single-stim-button","179","579572","0.0-2.0-46.0-1.0","63e96e05231079b3bcec58a7","F1","batch6","","449","tol_toboard","","","","tol_peg_2","449","449","0","[[1,0,0],[3,2],[0]]","1","[[0,0,0],[2,3],[1]]","12","0","","","","","","4","","","","","","","","",""
"","","","","","single-stim-button","180","582434","0.0-2.0-46.1-0.1","63e96e05231079b3bcec58a7","F1","batch6","","2861","tol_tohand","","","","tol_peg_1","2861","2861","0","[[0,0,0],[3,2],[0]]","2","[[0,0,0],[2,3],[1]]","12","0","","","","","","4","","","","","","","","",""
"","","","","","single-stim-button","181","590971","0.0-2.0-46.1-1.1","63e96e05231079b3bcec58a7","F1","batch6","","8535","tol_toboard","","","","tol_peg_3","8535","8535","0","[[0,0,0],[3,2],[1]]","2","[[0,0,0],[2,3],[1]]","12","0","","","","","","4","","","","","","","","",""
"","","","","","single-stim-button","182","603801","0.0-2.0-46.2-0.2","63e96e05231079b3bcec58a7","F1","batch6","","12830","tol_tohand","","","","tol_peg_2","12830","12830","0","[[0,0,0],[3,0],[1]]","3","[[0,0,0],[2,3],[1]]","12","0","","","","","","4","","","","","","","","",""
"","","","","","single-stim-button","183","604531","0.0-2.0-46.2-1.2","63e96e05231079b3bcec58a7","F1","batch6","","730","tol_toboard","","","","tol_peg_1","730","730","0","[[2,0,0],[3,0],[1]]","3","[[0,0,0],[2,3],[1]]","12","0","","","","","","4","","","","","","","","",""
"","","","","","single-stim-button","184","611661","0.0-2.0-46.3-0.3","63e96e05231079b3bcec58a7","F1","batch6","","7130","tol_tohand","","","","tol_peg_3","7130","7130","0","[[2,0,0],[3,0],[0]]","4","[[0,0,0],[2,3],[1]]","12","0","","","","","","4","","","","","","","","",""
"","","","","","single-stim-button","185","612225","0.0-2.0-46.3-1.3","63e96e05231079b3bcec58a7","F1","batch6","","564","tol_toboard","","","","tol_peg_1","564","564","0","[[2,1,0],[3,0],[0]]","4","[[0,0,0],[2,3],[1]]","12","0","","","","","","4","","","","","","","","",""
"","","","","","single-stim-button","186","612546","0.0-2.0-46.4-0.4","63e96e05231079b3bcec58a7","F1","batch6","","321","tol_tohand","","","","tol_peg_2","321","321","0","[[2,1,0],[0,0],[0]]","5","[[0,0,0],[2,3],[1]]","12","0","","","","","","4","","","","","","","","",""
"","","","","","single-stim-button","187","612948","0.0-2.0-46.4-1.4","63e96e05231079b3bcec58a7","F1","batch6","","402","tol_toboard","","","","tol_peg_3","402","402","0","[[2,1,0],[0,0],[3]]","5","[[0,0,0],[2,3],[1]]","12","0","","","","","","4","","","","","","","","",""
"","","","","","single-stim-button","188","614566","0.0-2.0-46.5-0.5","63e96e05231079b3bcec58a7","F1","batch6","","1618","tol_tohand","","","","tol_peg_1","1618","1618","0","[[2,0,0],[0,0],[3]]","6","[[0,0,0],[2,3],[1]]","12","0","","","","","","4","","","","","","","","",""
"","","","","","single-stim-button","189","614861","0.0-2.0-46.5-1.5","63e96e05231079b3bcec58a7","F1","batch6","","295","tol_toboard","","","","tol_peg_2","295","295","0","[[2,0,0],[1,0],[3]]","6","[[0,0,0],[2,3],[1]]","12","0","","","","","","4","","","","","","","","",""
"","","","","","single-stim-button","190","615671","0.0-2.0-46.6-0.6","63e96e05231079b3bcec58a7","F1","batch6","","810","tol_tohand","","","","tol_peg_1","810","810","0","[[0,0,0],[1,0],[3]]","7","[[0,0,0],[2,3],[1]]","12","0","","","","","","4","","","","","","","","",""
"","","","","","single-stim-button","191","616406","0.0-2.0-46.6-1.6","63e96e05231079b3bcec58a7","F1","batch6","","735","tol_toboard","","","","tol_peg_2","735","735","0","[[0,0,0],[1,2],[3]]","7","[[0,0,0],[2,3],[1]]","12","0","","","","","","4","","","","","","","","",""
"","","","","","single-stim-button","192","617257","0.0-2.0-46.7-0.7","63e96e05231079b3bcec58a7","F1","batch6","","851","tol_tohand","","","","tol_peg_2","851","851","0","[[0,0,0],[1,0],[3]]","8","[[0,0,0],[2,3],[1]]","12","0","","","","","","4","","","","","","","","",""
"","","","","","single-stim-button","193","624220","0.0-2.0-46.7-1.7","63e96e05231079b3bcec58a7","F1","batch6","","6963","tol_toboard","","","","tol_peg_2","6963","6963","0","[[0,0,0],[1,2],[3]]","8","[[0,0,0],[2,3],[1]]","12","0","","","","","","4","","","","","","","","",""
"","","","","","single-stim-button","194","624773","0.0-2.0-46.8-0.8","63e96e05231079b3bcec58a7","F1","batch6","","553","tol_tohand","","","","tol_peg_3","553","553","0","[[0,0,0],[1,2],[0]]","9","[[0,0,0],[2,3],[1]]","12","0","","","","","","4","","","","","","","","",""
"","","","","","single-stim-button","195","625222","0.0-2.0-46.8-1.8","63e96e05231079b3bcec58a7","F1","batch6","","449","tol_toboard","","","","tol_peg_1","449","449","0","[[3,0,0],[1,2],[0]]","9","[[0,0,0],[2,3],[1]]","12","0","","","","","","4","","","","","","","","",""
"","","","","","single-stim-button","196","625691","0.0-2.0-46.9-0.9","63e96e05231079b3bcec58a7","F1","batch6","","469","tol_tohand","","","","tol_peg_2","469","469","0","[[3,0,0],[1,0],[0]]","10","[[0,0,0],[2,3],[1]]","12","0","","","","","","4","","","","","","","","",""
"","","","","","single-stim-button","197","625975","0.0-2.0-46.9-1.9","63e96e05231079b3bcec58a7","F1","batch6","","283","tol_toboard","","","","tol_peg_1","283","283","0","[[3,2,0],[1,0],[0]]","10","[[0,0,0],[2,3],[1]]","12","0","","","","","","4","","","","","","","","",""
"","","","","","single-stim-button","198","626487","0.0-2.0-46.10-0.10","63e96e05231079b3bcec58a7","F1","batch6","","512","tol_tohand","","","","tol_peg_2","512","512","0","[[3,2,0],[0,0],[0]]","11","[[0,0,0],[2,3],[1]]","12","0","","","","","","4","","","","","","","","",""
"","","","","","single-stim-button","199","627778","0.0-2.0-46.10-1.10","63e96e05231079b3bcec58a7","F1","batch6","","1291","tol_toboard","","","","tol_peg_3","1291","1291","0","[[3,2,0],[0,0],[1]]","11","[[0,0,0],[2,3],[1]]","12","0","","","","","","4","","","","","","","","",""
"","","","","","single-stim-button","200","628149","0.0-2.0-46.11-0.11","63e96e05231079b3bcec58a7","F1","batch6","","371","tol_tohand","","","","tol_peg_1","371","371","0","[[3,0,0],[0,0],[1]]","12","[[0,0,0],[2,3],[1]]","12","0","","","","","","4","","","","","","","","",""
"","","","","","single-stim-button","201","628434","0.0-2.0-46.11-1.11","63e96e05231079b3bcec58a7","F1","batch6","","284","tol_toboard","","","","tol_peg_2","284","284","0","[[3,0,0],[2,0],[1]]","12","[[0,0,0],[2,3],[1]]","12","0","","","","","","4","","","","","","","","",""
"","","","","","single-stim-button","202","628928","0.0-2.0-46.12-0.12","63e96e05231079b3bcec58a7","F1","batch6","","494","tol_tohand","","","","tol_peg_1","494","494","0","[[0,0,0],[2,0],[1]]","13","[[0,0,0],[2,3],[1]]","12","0","","","","","","4","","","","","","","","",""
"","","","","","single-stim-button","203","629232","0.0-2.0-46.12-1.12","63e96e05231079b3bcec58a7","F1","batch6","","304","tol_toboard","","","","tol_peg_2","304","304","0","[[0,0,0],[2,3],[1]]","13","[[0,0,0],[2,3],[1]]","12","0","","","","","","4","","","","","","","","",""
"","","","","","poldrack-single-stim","204","630234","0.0-2.0-47.0","63e96e05231079b3bcec58a7","F1","batch6","","-1","tol_feedback","","","true","","1000","1000","500","","","","","","-1","none","true","8843","37663","","","","","","","","","",""
"","","","","","html-button-response","205","632415","0.0-2.0-48.0","63e96e05231079b3bcec58a7","F1","batch6","","2179.899999976158","attention_check","<p class = block-text>How many balls are in your board<br></p>","1","true","","","","","","","","","","","","","","","","","","","","","","","",""
"","","","","","html-button-response","206","633233","0.0-2.0-49.0","63e96e05231079b3bcec58a7","F1","batch6","","817.3999999761581","tol_trial_num","<div class = centerbox><p class = center-block-text>problem <strong>14</strong> out of 25 problems</p></div>","0","","","","","","","","","","","","","","","","","","","","","","","","",""
"","","","","","single-stim-button","207","640401","0.0-2.0-50.0-0.0","63e96e05231079b3bcec58a7","F1","batch6","","7168","tol_tohand","","","","tol_peg_1","7168","7168","0","[[2,0,0],[3,0],[0]]","1","[[1,2,0],[3,0],[0]]","13","0","","","","","","4","","","","","","","","",""
"","","","","","single-stim-button","208","641423","0.0-2.0-50.0-1.0","63e96e05231079b3bcec58a7","F1","batch6","","1022","tol_toboard","","","","tol_peg_2","1022","1022","0","[[2,0,0],[3,1],[0]]","1","[[1,2,0],[3,0],[0]]","13","0","","","","","","4","","","","","","","","",""
"","","","","","single-stim-button","209","641832","0.0-2.0-50.1-0.1","63e96e05231079b3bcec58a7","F1","batch6","","409","tol_tohand","","","","tol_peg_1","409","409","0","[[0,0,0],[3,1],[0]]","2","[[1,2,0],[3,0],[0]]","13","0","","","","","","4","","","","","","","","",""
"","","","","","single-stim-button","210","642219","0.0-2.0-50.1-1.1","63e96e05231079b3bcec58a7","F1","batch6","","387","tol_toboard","","","","tol_peg_3","387","387","0","[[0,0,0],[3,1],[2]]","2","[[1,2,0],[3,0],[0]]","13","0","","","","","","4","","","","","","","","",""
"","","","","","single-stim-button","211","642594","0.0-2.0-50.2-0.2","63e96e05231079b3bcec58a7","F1","batch6","","374","tol_tohand","","","","tol_peg_2","374","374","0","[[0,0,0],[3,0],[2]]","3","[[1,2,0],[3,0],[0]]","13","0","","","","","","4","","","","","","","","",""
"","","","","","single-stim-button","212","642899","0.0-2.0-50.2-1.2","63e96e05231079b3bcec58a7","F1","batch6","","304","tol_toboard","","","","tol_peg_1","304","304","0","[[1,0,0],[3,0],[2]]","3","[[1,2,0],[3,0],[0]]","13","0","","","","","","4","","","","","","","","",""
"","","","","","single-stim-button","213","643274","0.0-2.0-50.3-0.3","63e96e05231079b3bcec58a7","F1","batch6","","375","tol_tohand","","","","tol_peg_3","375","375","0","[[1,0,0],[3,0],[0]]","4","[[1,2,0],[3,0],[0]]","13","0","","","","","","4","","","","","","","","",""
"","","","","","single-stim-button","214","643681","0.0-2.0-50.3-1.3","63e96e05231079b3bcec58a7","F1","batch6","","407","tol_toboard","","","","tol_peg_1","407","407","0","[[1,2,0],[3,0],[0]]","4","[[1,2,0],[3,0],[0]]","13","0","","","","","","4","","","","","","","","",""
"","","","","","poldrack-single-stim","215","644682","0.0-2.0-51.0","63e96e05231079b3bcec58a7","F1","batch6","","-1","tol_feedback","","","true","","1000","1000","500","","","","","","-1","none","true","7168","8326","","","","","","","","","",""
"","","","","","html-button-response","216","645325","0.0-2.0-52.0","63e96e05231079b3bcec58a7","F1","batch6","","641.7000000476837","tol_trial_num","<div class = centerbox><p class = center-block-text>problem <strong>15</strong> out of 25 problems</p></div>","0","","","","","","","","","","","","","","","","","","","","","","","","",""
"","","","","","single-stim-button","217","652016","0.0-2.0-53.0-0.0","63e96e05231079b3bcec58a7","F1","batch6","","6690","tol_tohand","","","","tol_peg_1","6690","6690","0","[[1,0,0],[3,0],[0]]","1","[[2,0,0],[3,0],[1]]","14","0","","","","","","3","","","","","","","","",""
"","","","","","single-stim-button","218","652399","0.0-2.0-53.0-1.0","63e96e05231079b3bcec58a7","F1","batch6","","382","tol_toboard","","","","tol_peg_2","382","382","0","[[1,0,0],[3,2],[0]]","1","[[2,0,0],[3,0],[1]]","14","0","","","","","","3","","","","","","","","",""
"","","","","","single-stim-button","219","652712","0.0-2.0-53.1-0.1","63e96e05231079b3bcec58a7","F1","batch6","","313","tol_tohand","","","","tol_peg_1","313","313","0","[[0,0,0],[3,2],[0]]","2","[[2,0,0],[3,0],[1]]","14","0","","","","","","3","","","","","","","","",""
"","","","","","single-stim-button","220","653086","0.0-2.0-53.1-1.1","63e96e05231079b3bcec58a7","F1","batch6","","373","tol_toboard","","","","tol_peg_3","373","373","0","[[0,0,0],[3,2],[1]]","2","[[2,0,0],[3,0],[1]]","14","0","","","","","","3","","","","","","","","",""
"","","","","","single-stim-button","221","654226","0.0-2.0-53.2-0.2","63e96e05231079b3bcec58a7","F1","batch6","","1139","tol_tohand","","","","tol_peg_2","1139","1139","0","[[0,0,0],[3,0],[1]]","3","[[2,0,0],[3,0],[1]]","14","0","","","","","","3","","","","","","","","",""
"","","","","","single-stim-button","222","654622","0.0-2.0-53.2-1.2","63e96e05231079b3bcec58a7","F1","batch6","","396","tol_toboard","","","","tol_peg_1","396","396","0","[[2,0,0],[3,0],[1]]","3","[[2,0,0],[3,0],[1]]","14","0","","","","","","3","","","","","","","","",""
"","","","","","poldrack-single-stim","223","655623","0.0-2.0-54.0","63e96e05231079b3bcec58a7","F1","batch6","","-1","tol_feedback","","","true","","1000","1000","500","","","","","","-1","none","true","6690","8142","","","","","","","","","",""
"","","","","","html-button-response","224","656391","0.0-2.0-55.0","63e96e05231079b3bcec58a7","F1","batch6","","767.5","tol_trial_num","<div class = centerbox><p class = center-block-text>problem <strong>16</strong> out of 25 problems</p></div>","0","","","","","","","","","","","","","","","","","","","","","","","","",""
"","","","","","single-stim-button","225","697507","0.0-2.0-56.0-0.0","63e96e05231079b3bcec58a7","F1","batch6","","41115","tol_tohand","","","","tol_peg_2","41115","41115","0","[[0,0,0],[2,0],[1]]","1","[[2,3,0],[1,0],[0]]","15","0","","","","","","7","","","","","","","","",""
"","","","","","single-stim-button","226","697844","0.0-2.0-56.0-1.0","63e96e05231079b3bcec58a7","F1","batch6","","337","tol_toboard","","","","tol_peg_1","337","337","0","[[3,0,0],[2,0],[1]]","1","[[2,3,0],[1,0],[0]]","15","0","","","","","","7","","","","","","","","",""
"","","","","","single-stim-button","227","698402","0.0-2.0-56.1-0.1","63e96e05231079b3bcec58a7","F1","batch6","","557","tol_tohand","","","","tol_peg_2","557","557","0","[[3,0,0],[0,0],[1]]","2","[[2,3,0],[1,0],[0]]","15","0","","","","","","7","","","","","","","","",""
"","","","","","single-stim-button","228","698847","0.0-2.0-56.1-1.1","63e96e05231079b3bcec58a7","F1","batch6","","445","tol_toboard","","","","tol_peg_1","445","445","0","[[3,2,0],[0,0],[1]]","2","[[2,3,0],[1,0],[0]]","15","0","","","","","","7","","","","","","","","",""
"","","","","","single-stim-button","229","701407","0.0-2.0-56.2-0.2","63e96e05231079b3bcec58a7","F1","batch6","","2559","tol_tohand","","","","tol_peg_3","2559","2559","0","[[3,2,0],[0,0],[0]]","3","[[2,3,0],[1,0],[0]]","15","0","","","","","","7","","","","","","","","",""
"","","","","","single-stim-button","230","702912","0.0-2.0-56.2-1.2","63e96e05231079b3bcec58a7","F1","batch6","","1504","tol_toboard","","","","tol_peg_2","1504","1504","0","[[3,2,0],[1,0],[0]]","3","[[2,3,0],[1,0],[0]]","15","0","","","","","","7","","","","","","","","",""
"","","","","","single-stim-button","231","704430","0.0-2.0-56.3-0.3","63e96e05231079b3bcec58a7","F1","batch6","","1517","tol_tohand","","","","tol_peg_1","1517","1517","0","[[3,0,0],[1,0],[0]]","4","[[2,3,0],[1,0],[0]]","15","0","","","","","","7","","","","","","","","",""
"","","","","","single-stim-button","232","704846","0.0-2.0-56.3-1.3","63e96e05231079b3bcec58a7","F1","batch6","","416","tol_toboard","","","","tol_peg_3","416","416","0","[[3,0,0],[1,0],[2]]","4","[[2,3,0],[1,0],[0]]","15","0","","","","","","7","","","","","","","","",""
"","","","","","single-stim-button","233","705403","0.0-2.0-56.4-0.4","63e96e05231079b3bcec58a7","F1","batch6","","556","tol_tohand","","","","tol_peg_1","556","556","0","[[0,0,0],[1,0],[2]]","5","[[2,3,0],[1,0],[0]]","15","0","","","","","","7","","","","","","","","",""
"","","","","","single-stim-button","234","705698","0.0-2.0-56.4-1.4","63e96e05231079b3bcec58a7","F1","batch6","","294","tol_toboard","","","","tol_peg_2","294","294","0","[[0,0,0],[1,3],[2]]","5","[[2,3,0],[1,0],[0]]","15","0","","","","","","7","","","","","","","","",""
"","","","","","single-stim-button","235","706064","0.0-2.0-56.5-0.5","63e96e05231079b3bcec58a7","F1","batch6","","365","tol_tohand","","","","tol_peg_3","365","365","0","[[0,0,0],[1,3],[0]]","6","[[2,3,0],[1,0],[0]]","15","0","","","","","","7","","","","","","","","",""
"","","","","","single-stim-button","236","706371","0.0-2.0-56.5-1.5","63e96e05231079b3bcec58a7","F1","batch6","","307","tol_toboard","","","","tol_peg_1","307","307","0","[[2,0,0],[1,3],[0]]","6","[[2,3,0],[1,0],[0]]","15","0","","","","","","7","","","","","","","","",""
"","","","","","single-stim-button","237","706730","0.0-2.0-56.6-0.6","63e96e05231079b3bcec58a7","F1","batch6","","359","tol_tohand","","","","tol_peg_2","359","359","0","[[2,0,0],[1,0],[0]]","7","[[2,3,0],[1,0],[0]]","15","0","","","","","","7","","","","","","","","",""
"","","","","","single-stim-button","238","706983","0.0-2.0-56.6-1.6","63e96e05231079b3bcec58a7","F1","batch6","","252","tol_toboard","","","","tol_peg_1","252","252","0","[[2,3,0],[1,0],[0]]","7","[[2,3,0],[1,0],[0]]","15","0","","","","","","7","","","","","","","","",""
"","","","","","poldrack-single-stim","239","707990","0.0-2.0-57.0","63e96e05231079b3bcec58a7","F1","batch6","","-1","tol_feedback","","","true","","1000","1000","500","","","","","","-1","none","true","41115","47028","","","","","","","","","",""
"","","","","","html-button-response","240","708820","0.0-2.0-58.0","63e96e05231079b3bcec58a7","F1","batch6","","829.1000000238419","tol_trial_num","<div class = centerbox><p class = center-block-text>problem <strong>17</strong> out of 25 problems</p></div>","0","","","","","","","","","","","","","","","","","","","","","","","","",""
"","","","","","single-stim-button","241","720052","0.0-2.0-59.0-0.0","63e96e05231079b3bcec58a7","F1","batch6","","11232","tol_tohand","","","","tol_peg_2","11232","11232","0","[[1,2,0],[0,0],[0]]","1","[[3,1,0],[2,0],[0]]","16","0","","","","","","5","","","","","","","","",""
"","","","","","single-stim-button","242","720465","0.0-2.0-59.0-1.0","63e96e05231079b3bcec58a7","F1","batch6","","412","tol_toboard","","","","tol_peg_3","412","412","0","[[1,2,0],[0,0],[3]]","1","[[3,1,0],[2,0],[0]]","16","0","","","","","","5","","","","","","","","",""
"","","","","","single-stim-button","243","721031","0.0-2.0-59.1-0.1","63e96e05231079b3bcec58a7","F1","batch6","","565","tol_tohand","","","","tol_peg_1","565","565","0","[[1,0,0],[0,0],[3]]","2","[[3,1,0],[2,0],[0]]","16","0","","","","","","5","","","","","","","","",""
"","","","","","single-stim-button","244","721464","0.0-2.0-59.1-1.1","63e96e05231079b3bcec58a7","F1","batch6","","432","tol_toboard","","","","tol_peg_2","432","432","0","[[1,0,0],[2,0],[3]]","2","[[3,1,0],[2,0],[0]]","16","0","","","","","","5","","","","","","","","",""
"","","","","","single-stim-button","245","721981","0.0-2.0-59.2-0.2","63e96e05231079b3bcec58a7","F1","batch6","","516","tol_tohand","","","","tol_peg_1","516","516","0","[[0,0,0],[2,0],[3]]","3","[[3,1,0],[2,0],[0]]","16","0","","","","","","5","","","","","","","","",""
"","","","","","single-stim-button","246","722380","0.0-2.0-59.2-1.2","63e96e05231079b3bcec58a7","F1","batch6","","399","tol_toboard","","","","tol_peg_2","399","399","0","[[0,0,0],[2,1],[3]]","3","[[3,1,0],[2,0],[0]]","16","0","","","","","","5","","","","","","","","",""
"","","","","","single-stim-button","247","722858","0.0-2.0-59.3-0.3","63e96e05231079b3bcec58a7","F1","batch6","","478","tol_tohand","","","","tol_peg_3","478","478","0","[[0,0,0],[2,1],[0]]","4","[[3,1,0],[2,0],[0]]","16","0","","","","","","5","","","","","","","","",""
"","","","","","single-stim-button","248","723618","0.0-2.0-59.3-1.3","63e96e05231079b3bcec58a7","F1","batch6","","760","tol_toboard","","","","tol_peg_1","760","760","0","[[3,0,0],[2,1],[0]]","4","[[3,1,0],[2,0],[0]]","16","0","","","","","","5","","","","","","","","",""
"","","","","","single-stim-button","249","724008","0.0-2.0-59.4-0.4","63e96e05231079b3bcec58a7","F1","batch6","","389","tol_tohand","","","","tol_peg_2","389","389","0","[[3,0,0],[2,0],[0]]","5","[[3,1,0],[2,0],[0]]","16","0","","","","","","5","","","","","","","","",""
"","","","","","single-stim-button","250","724337","0.0-2.0-59.4-1.4","63e96e05231079b3bcec58a7","F1","batch6","","328","tol_toboard","","","","tol_peg_1","328","328","0","[[3,1,0],[2,0],[0]]","5","[[3,1,0],[2,0],[0]]","16","0","","","","","","5","","","","","","","","",""
"","","","","","poldrack-single-stim","251","725339","0.0-2.0-60.0","63e96e05231079b3bcec58a7","F1","batch6","","-1","tol_feedback","","","true","","1000","1000","500","","","","","","-1","none","true","11232","13180","","","","","","","","","",""
"","","","","","html-button-response","252","726132","0.0-2.0-61.0","63e96e05231079b3bcec58a7","F1","batch6","","792.5999999046326","tol_trial_num","<div class = centerbox><p class = center-block-text>problem <strong>18</strong> out of 25 problems</p></div>","0","","","","","","","","","","","","","","","","","","","","","","","","",""
"","","","","","single-stim-button","253","751914","0.0-2.0-62.0-0.0","63e96e05231079b3bcec58a7","F1","batch6","","25781","tol_tohand","","","","tol_peg_2","25781","25781","0","[[1,2,0],[0,0],[0]]","1","[[3,0,0],[2,0],[1]]","17","0","","","","","","5","","","","","","","","",""
"","","","","","single-stim-button","254","753147","0.0-2.0-62.0-1.0","63e96e05231079b3bcec58a7","F1","batch6","","1232","tol_toboard","","","","tol_peg_3","1232","1232","0","[[1,2,0],[0,0],[3]]","1","[[3,0,0],[2,0],[1]]","17","0","","","","","","5","","","","","","","","",""
"","","","","","single-stim-button","255","753825","0.0-2.0-62.1-0.1","63e96e05231079b3bcec58a7","F1","batch6","","677","tol_tohand","","","","tol_peg_1","677","677","0","[[1,0,0],[0,0],[3]]","2","[[3,0,0],[2,0],[1]]","17","0","","","","","","5","","","","","","","","",""
"","","","","","single-stim-button","256","754703","0.0-2.0-62.1-1.1","63e96e05231079b3bcec58a7","F1","batch6","","878","tol_toboard","","","","tol_peg_2","878","878","0","[[1,0,0],[2,0],[3]]","2","[[3,0,0],[2,0],[1]]","17","0","","","","","","5","","","","","","","","",""
"","","","","","single-stim-button","257","756881","0.0-2.0-62.2-0.2","63e96e05231079b3bcec58a7","F1","batch6","","2177","tol_tohand","","","","tol_peg_1","2177","2177","0","[[0,0,0],[2,0],[3]]","3","[[3,0,0],[2,0],[1]]","17","0","","","","","","5","","","","","","","","",""
"","","","","","single-stim-button","258","757264","0.0-2.0-62.2-1.2","63e96e05231079b3bcec58a7","F1","batch6","","382","tol_toboard","","","","tol_peg_2","382","382","0","[[0,0,0],[2,1],[3]]","3","[[3,0,0],[2,0],[1]]","17","0","","","","","","5","","","","","","","","",""
"","","","","","single-stim-button","259","757641","0.0-2.0-62.3-0.3","63e96e05231079b3bcec58a7","F1","batch6","","376","tol_tohand","","","","tol_peg_3","376","376","0","[[0,0,0],[2,1],[0]]","4","[[3,0,0],[2,0],[1]]","17","0","","","","","","5","","","","","","","","",""
"","","","","","single-stim-button","260","757973","0.0-2.0-62.3-1.3","63e96e05231079b3bcec58a7","F1","batch6","","332","tol_toboard","","","","tol_peg_1","332","332","0","[[3,0,0],[2,1],[0]]","4","[[3,0,0],[2,0],[1]]","17","0","","","","","","5","","","","","","","","",""
"","","","","","single-stim-button","261","758315","0.0-2.0-62.4-0.4","63e96e05231079b3bcec58a7","F1","batch6","","341","tol_tohand","","","","tol_peg_2","341","341","0","[[3,0,0],[2,0],[0]]","5","[[3,0,0],[2,0],[1]]","17","0","","","","","","5","","","","","","","","",""
"","","","","","single-stim-button","262","758646","0.0-2.0-62.4-1.4","63e96e05231079b3bcec58a7","F1","batch6","","330","tol_toboard","","","","tol_peg_3","330","330","0","[[3,0,0],[2,0],[1]]","5","[[3,0,0],[2,0],[1]]","17","0","","","","","","5","","","","","","","","",""
"","","","","","poldrack-single-stim","263","759647","0.0-2.0-63.0","63e96e05231079b3bcec58a7","F1","batch6","","-1","tol_feedback","","","true","","1000","1000","500","","","","","","-1","none","true","25781","29352","","","","","","","","","",""
"","","","","","html-button-response","264","760318","0.0-2.0-64.0","63e96e05231079b3bcec58a7","F1","batch6","","670.3999999761581","tol_trial_num","<div class = centerbox><p class = center-block-text>problem <strong>19</strong> out of 25 problems</p></div>","0","","","","","","","","","","","","","","","","","","","","","","","","",""
"","","","","","single-stim-button","265","767320","0.0-2.0-65.0-0.0","63e96e05231079b3bcec58a7","F1","batch6","","7002","tol_tohand","","","","tol_peg_2","7002","7002","0","[[1,2,0],[0,0],[0]]","1","[[0,0,0],[1,2],[3]]","18","0","","","","","","7","","","","","","","","",""
"","","","","","single-stim-button","266","767704","0.0-2.0-65.0-1.0","63e96e05231079b3bcec58a7","F1","batch6","","383","tol_toboard","","","","tol_peg_3","383","383","0","[[1,2,0],[0,0],[3]]","1","[[0,0,0],[1,2],[3]]","18","0","","","","","","7","","","","","","","","",""
"","","","","","single-stim-button","267","780966","0.0-2.0-65.1-0.1","63e96e05231079b3bcec58a7","F1","batch6","","13262","tol_tohand","","","","tol_peg_3","13262","13262","0","[[1,2,0],[0,0],[0]]","2","[[0,0,0],[1,2],[3]]","18","0","","","","","","7","","","","","","","","",""
"","","","","","single-stim-button","268","781373","0.0-2.0-65.1-1.1","63e96e05231079b3bcec58a7","F1","batch6","","406","tol_toboard","","","","tol_peg_2","406","406","0","[[1,2,0],[3,0],[0]]","2","[[0,0,0],[1,2],[3]]","18","0","","","","","","7","","","","","","","","",""
"","","","","","single-stim-button","269","781954","0.0-2.0-65.2-0.2","63e96e05231079b3bcec58a7","F1","batch6","","581","tol_tohand","","","","tol_peg_1","581","581","0","[[1,0,0],[3,0],[0]]","3","[[0,0,0],[1,2],[3]]","18","0","","","","","","7","","","","","","","","",""
"","","","","","single-stim-button","270","793487","0.0-2.0-65.2-1.2","63e96e05231079b3bcec58a7","F1","batch6","","11533","tol_toboard","","","","tol_peg_3","11533","11533","0","[[1,0,0],[3,0],[2]]","3","[[0,0,0],[1,2],[3]]","18","0","","","","","","7","","","","","","","","",""
"","","","","","single-stim-button","271","801861","0.0-2.0-65.3-0.3","63e96e05231079b3bcec58a7","F1","batch6","","8373","tol_tohand","","","","tol_peg_3","8373","8373","0","[[1,0,0],[3,0],[0]]","4","[[0,0,0],[1,2],[3]]","18","0","","","","","","7","","","","","","","","",""
"","","","","","single-stim-button","272","802375","0.0-2.0-65.3-1.3","63e96e05231079b3bcec58a7","F1","batch6","","513","tol_toboard","","","","tol_peg_1","513","513","0","[[1,2,0],[3,0],[0]]","4","[[0,0,0],[1,2],[3]]","18","0","","","","","","7","","","","","","","","",""
"","","","","","single-stim-button","273","803448","0.0-2.0-65.4-0.4","63e96e05231079b3bcec58a7","F1","batch6","","1072","tol_tohand","","","","tol_peg_2","1072","1072","0","[[1,2,0],[0,0],[0]]","5","[[0,0,0],[1,2],[3]]","18","0","","","","","","7","","","","","","","","",""
"","","","","","single-stim-button","274","803713","0.0-2.0-65.4-1.4","63e96e05231079b3bcec58a7","F1","batch6","","265","tol_toboard","","","","tol_peg_3","265","265","0","[[1,2,0],[0,0],[3]]","5","[[0,0,0],[1,2],[3]]","18","0","","","","","","7","","","","","","","","",""
"","","","","","single-stim-button","275","805832","0.0-2.0-65.5-0.5","63e96e05231079b3bcec58a7","F1","batch6","","2119","tol_tohand","","","","tol_peg_1","2119","2119","0","[[1,0,0],[0,0],[3]]","6","[[0,0,0],[1,2],[3]]","18","0","","","","","","7","","","","","","","","",""
"","","","","","single-stim-button","276","806145","0.0-2.0-65.5-1.5","63e96e05231079b3bcec58a7","F1","batch6","","312","tol_toboard","","","","tol_peg_2","312","312","0","[[1,0,0],[2,0],[3]]","6","[[0,0,0],[1,2],[3]]","18","0","","","","","","7","","","","","","","","",""
"","","","","","single-stim-button","277","819672","0.0-2.0-65.6-0.6","63e96e05231079b3bcec58a7","F1","batch6","","13526","tol_tohand","","","","tol_peg_3","13526","13526","0","[[1,0,0],[2,0],[0]]","7","[[0,0,0],[1,2],[3]]","18","0","","","","","","7","","","","","","","","",""
"","","","","","single-stim-button","278","821262","0.0-2.0-65.6-1.6","63e96e05231079b3bcec58a7","F1","batch6","","1590","tol_toboard","","","","tol_peg_3","1590","1590","0","[[1,0,0],[2,0],[3]]","7","[[0,0,0],[1,2],[3]]","18","0","","","","","","7","","","","","","","","",""
"","","","","","single-stim-button","279","825548","0.0-2.0-65.7-0.7","63e96e05231079b3bcec58a7","F1","batch6","","4285","tol_tohand","","","","tol_peg_1","4285","4285","0","[[0,0,0],[2,0],[3]]","8","[[0,0,0],[1,2],[3]]","18","0","","","","","","7","","","","","","","","",""
"","","","","","single-stim-button","280","826405","0.0-2.0-65.7-1.7","63e96e05231079b3bcec58a7","F1","batch6","","856","tol_toboard","","","","tol_peg_2","856","856","0","[[0,0,0],[2,1],[3]]","8","[[0,0,0],[1,2],[3]]","18","0","","","","","","7","","","","","","","","",""
"","","","","","single-stim-button","281","826815","0.0-2.0-65.8-0.8","63e96e05231079b3bcec58a7","F1","batch6","","408","tol_tohand","","","","tol_peg_3","408","408","0","[[0,0,0],[2,1],[0]]","9","[[0,0,0],[1,2],[3]]","18","0","","","","","","7","","","","","","","","",""
"","","","","","single-stim-button","282","827479","0.0-2.0-65.8-1.8","63e96e05231079b3bcec58a7","F1","batch6","","664","tol_toboard","","","","tol_peg_1","664","664","0","[[3,0,0],[2,1],[0]]","9","[[0,0,0],[1,2],[3]]","18","0","","","","","","7","","","","","","","","",""
"","","","","","single-stim-button","283","828296","0.0-2.0-65.9-0.9","63e96e05231079b3bcec58a7","F1","batch6","","817","tol_tohand","","","","tol_peg_2","817","817","0","[[3,0,0],[2,0],[0]]","10","[[0,0,0],[1,2],[3]]","18","0","","","","","","7","","","","","","","","",""
"","","","","","single-stim-button","284","828602","0.0-2.0-65.9-1.9","63e96e05231079b3bcec58a7","F1","batch6","","306","tol_toboard","","","","tol_peg_1","306","306","0","[[3,1,0],[2,0],[0]]","10","[[0,0,0],[1,2],[3]]","18","0","","","","","","7","","","","","","","","",""
"","","","","","single-stim-button","285","830558","0.0-2.0-65.10-0.10","63e96e05231079b3bcec58a7","F1","batch6","","1955","tol_tohand","","","","tol_peg_2","1955","1955","0","[[3,1,0],[0,0],[0]]","11","[[0,0,0],[1,2],[3]]","18","0","","","","","","7","","","","","","","","",""
"","","","","","single-stim-button","286","830948","0.0-2.0-65.10-1.10","63e96e05231079b3bcec58a7","F1","batch6","","389","tol_toboard","","","","tol_peg_3","389","389","0","[[3,1,0],[0,0],[2]]","11","[[0,0,0],[1,2],[3]]","18","0","","","","","","7","","","","","","","","",""
"","","","","","single-stim-button","287","831343","0.0-2.0-65.11-0.11","63e96e05231079b3bcec58a7","F1","batch6","","394","tol_tohand","","","","tol_peg_1","394","394","0","[[3,0,0],[0,0],[2]]","12","[[0,0,0],[1,2],[3]]","18","0","","","","","","7","","","","","","","","",""
"","","","","","single-stim-button","288","831662","0.0-2.0-65.11-1.11","63e96e05231079b3bcec58a7","F1","batch6","","317","tol_toboard","","","","tol_peg_2","317","317","0","[[3,0,0],[1,0],[2]]","12","[[0,0,0],[1,2],[3]]","18","0","","","","","","7","","","","","","","","",""
"","","","","","single-stim-button","289","832020","0.0-2.0-65.12-0.12","63e96e05231079b3bcec58a7","F1","batch6","","358","tol_tohand","","","","tol_peg_3","358","358","0","[[3,0,0],[1,0],[0]]","13","[[0,0,0],[1,2],[3]]","18","0","","","","","","7","","","","","","","","",""
"","","","","","single-stim-button","290","832454","0.0-2.0-65.12-1.12","63e96e05231079b3bcec58a7","F1","batch6","","433","tol_toboard","","","","tol_peg_2","433","433","0","[[3,0,0],[1,2],[0]]","13","[[0,0,0],[1,2],[3]]","18","0","","","","","","7","","","","","","","","",""
"","","","","","single-stim-button","291","832861","0.0-2.0-65.13-0.13","63e96e05231079b3bcec58a7","F1","batch6","","406","tol_tohand","","","","tol_peg_1","406","406","0","[[0,0,0],[1,2],[0]]","14","[[0,0,0],[1,2],[3]]","18","0","","","","","","7","","","","","","","","",""
"","","","","","single-stim-button","292","833288","0.0-2.0-65.13-1.13","63e96e05231079b3bcec58a7","F1","batch6","","426","tol_toboard","","","","tol_peg_3","426","426","0","[[0,0,0],[1,2],[3]]","14","[[0,0,0],[1,2],[3]]","18","0","","","","","","7","","","","","","","","",""
"","","","","","poldrack-single-stim","293","834302","0.0-2.0-66.0","63e96e05231079b3bcec58a7","F1","batch6","","-1","tol_feedback","","","true","","1000","1000","500","","","","","","-1","none","true","7002","54558","","","","","","","","","",""
"","","","","","html-button-response","294","835028","0.0-2.0-67.0","63e96e05231079b3bcec58a7","F1","batch6","","725.6000000238419","tol_trial_num","<div class = centerbox><p class = center-block-text>problem <strong>20</strong> out of 25 problems</p></div>","0","","","","","","","","","","","","","","","","","","","","","","","","",""
"","","","","","single-stim-button","295","843861","0.0-2.0-68.0-0.0","63e96e05231079b3bcec58a7","F1","batch6","","8832","tol_tohand","","","","tol_peg_1","8832","8832","0","[[1,0,0],[3,0],[0]]","1","[[2,1,0],[0,0],[3]]","19","0","","","","","","5","","","","","","","","",""
"","","","","","single-stim-button","296","844661","0.0-2.0-68.0-1.0","63e96e05231079b3bcec58a7","F1","batch6","","800","tol_toboard","","","","tol_peg_3","800","800","0","[[1,0,0],[3,0],[2]]","1","[[2,1,0],[0,0],[3]]","19","0","","","","","","5","","","","","","","","",""
"","","","","","single-stim-button","297","845181","0.0-2.0-68.1-0.1","63e96e05231079b3bcec58a7","F1","batch6","","519","tol_tohand","","","","tol_peg_1","519","519","0","[[0,0,0],[3,0],[2]]","2","[[2,1,0],[0,0],[3]]","19","0","","","","","","5","","","","","","","","",""
"","","","","","single-stim-button","298","845555","0.0-2.0-68.1-1.1","63e96e05231079b3bcec58a7","F1","batch6","","372","tol_toboard","","","","tol_peg_2","372","372","0","[[0,0,0],[3,1],[2]]","2","[[2,1,0],[0,0],[3]]","19","0","","","","","","5","","","","","","","","",""
"","","","","","single-stim-button","299","845922","0.0-2.0-68.2-0.2","63e96e05231079b3bcec58a7","F1","batch6","","367","tol_tohand","","","","tol_peg_3","367","367","0","[[0,0,0],[3,1],[0]]","3","[[2,1,0],[0,0],[3]]","19","0","","","","","","5","","","","","","","","",""
"","","","","","single-stim-button","300","846345","0.0-2.0-68.2-1.2","63e96e05231079b3bcec58a7","F1","batch6","","421","tol_toboard","","","","tol_peg_1","421","421","0","[[2,0,0],[3,1],[0]]","3","[[2,1,0],[0,0],[3]]","19","0","","","","","","5","","","","","","","","",""
"","","","","","single-stim-button","301","846734","0.0-2.0-68.3-0.3","63e96e05231079b3bcec58a7","F1","batch6","","388","tol_tohand","","","","tol_peg_2","388","388","0","[[2,0,0],[3,0],[0]]","4","[[2,1,0],[0,0],[3]]","19","0","","","","","","5","","","","","","","","",""
"","","","","","single-stim-button","302","847055","0.0-2.0-68.3-1.3","63e96e05231079b3bcec58a7","F1","batch6","","320","tol_toboard","","","","tol_peg_1","320","320","0","[[2,1,0],[3,0],[0]]","4","[[2,1,0],[0,0],[3]]","19","0","","","","","","5","","","","","","","","",""
"","","","","","single-stim-button","303","847421","0.0-2.0-68.4-0.4","63e96e05231079b3bcec58a7","F1","batch6","","365","tol_tohand","","","","tol_peg_2","365","365","0","[[2,1,0],[0,0],[0]]","5","[[2,1,0],[0,0],[3]]","19","0","","","","","","5","","","","","","","","",""
"","","","","","single-stim-button","304","847782","0.0-2.0-68.4-1.4","63e96e05231079b3bcec58a7","F1","batch6","","360","tol_toboard","","","","tol_peg_3","360","360","0","[[2,1,0],[0,0],[3]]","5","[[2,1,0],[0,0],[3]]","19","0","","","","","","5","","","","","","","","",""
"","","","","","poldrack-single-stim","305","848790","0.0-2.0-69.0","63e96e05231079b3bcec58a7","F1","batch6","","-1","tol_feedback","","","true","","1000","1000","500","","","","","","-1","none","true","8832","10471","","","","","","","","","",""
"","","","","","html-button-response","306","849418","0.0-2.0-70.0","63e96e05231079b3bcec58a7","F1","batch6","","627.1000000238419","tol_trial_num","<div class = centerbox><p class = center-block-text>problem <strong>21</strong> out of 25 problems</p></div>","0","","","","","","","","","","","","","","","","","","","","","","","","",""
"","","","","","single-stim-button","307","869302","0.0-2.0-71.0-0.0","63e96e05231079b3bcec58a7","F1","batch6","","19883","tol_tohand","","","","tol_peg_2","19883","19883","0","[[1,2,0],[0,0],[0]]","1","[[3,2,0],[0,0],[1]]","20","0","","","","","","6","","","","","","","","",""
"","","","","","single-stim-button","308","870048","0.0-2.0-71.0-1.0","63e96e05231079b3bcec58a7","F1","batch6","","744","tol_toboard","","","","tol_peg_3","744","744","0","[[1,2,0],[0,0],[3]]","1","[[3,2,0],[0,0],[1]]","20","0","","","","","","6","","","","","","","","",""
"","","","","","single-stim-button","309","872924","0.0-2.0-71.1-0.1","63e96e05231079b3bcec58a7","F1","batch6","","2875","tol_tohand","","","","tol_peg_1","2875","2875","0","[[1,0,0],[0,0],[3]]","2","[[3,2,0],[0,0],[1]]","20","0","","","","","","6","","","","","","","","",""
"","","","","","single-stim-button","310","873497","0.0-2.0-71.1-1.1","63e96e05231079b3bcec58a7","F1","batch6","","572","tol_toboard","","","","tol_peg_2","572","572","0","[[1,0,0],[2,0],[3]]","2","[[3,2,0],[0,0],[1]]","20","0","","","","","","6","","","","","","","","",""
"","","","","","single-stim-button","311","873847","0.0-2.0-71.2-0.2","63e96e05231079b3bcec58a7","F1","batch6","","350","tol_tohand","","","","tol_peg_1","350","350","0","[[0,0,0],[2,0],[3]]","3","[[3,2,0],[0,0],[1]]","20","0","","","","","","6","","","","","","","","",""
"","","","","","single-stim-button","312","874188","0.0-2.0-71.2-1.2","63e96e05231079b3bcec58a7","F1","batch6","","339","tol_toboard","","","","tol_peg_2","339","339","0","[[0,0,0],[2,1],[3]]","3","[[3,2,0],[0,0],[1]]","20","0","","","","","","6","","","","","","","","",""
"","","","","","single-stim-button","313","874617","0.0-2.0-71.3-0.3","63e96e05231079b3bcec58a7","F1","batch6","","428","tol_tohand","","","","tol_peg_3","428","428","0","[[0,0,0],[2,1],[0]]","4","[[3,2,0],[0,0],[1]]","20","0","","","","","","6","","","","","","","","",""
"","","","","","single-stim-button","314","875161","0.0-2.0-71.3-1.3","63e96e05231079b3bcec58a7","F1","batch6","","543","tol_toboard","","","","tol_peg_1","543","543","0","[[3,0,0],[2,1],[0]]","4","[[3,2,0],[0,0],[1]]","20","0","","","","","","6","","","","","","","","",""
"","","","","","single-stim-button","315","875610","0.0-2.0-71.4-0.4","63e96e05231079b3bcec58a7","F1","batch6","","448","tol_tohand","","","","tol_peg_2","448","448","0","[[3,0,0],[2,0],[0]]","5","[[3,2,0],[0,0],[1]]","20","0","","","","","","6","","","","","","","","",""
"","","","","","single-stim-button","316","875899","0.0-2.0-71.4-1.4","63e96e05231079b3bcec58a7","F1","batch6","","288","tol_toboard","","","","tol_peg_3","288","288","0","[[3,0,0],[2,0],[1]]","5","[[3,2,0],[0,0],[1]]","20","0","","","","","","6","","","","","","","","",""
"","","","","","single-stim-button","317","876189","0.0-2.0-71.5-0.5","63e96e05231079b3bcec58a7","F1","batch6","","290","tol_tohand","","","","tol_peg_2","290","290","0","[[3,0,0],[0,0],[1]]","6","[[3,2,0],[0,0],[1]]","20","0","","","","","","6","","","","","","","","",""
"","","","","","single-stim-button","318","876469","0.0-2.0-71.5-1.5","63e96e05231079b3bcec58a7","F1","batch6","","279","tol_toboard","","","","tol_peg_1","279","279","0","[[3,2,0],[0,0],[1]]","6","[[3,2,0],[0,0],[1]]","20","0","","","","","","6","","","","","","","","",""
"","","","","","poldrack-single-stim","319","877482","0.0-2.0-72.0","63e96e05231079b3bcec58a7","F1","batch6","","-1","tol_feedback","","","true","","1000","1000","500","","","","","","-1","none","true","19883","24274","","","","","","","","","",""
"","","","","","html-button-response","320","878234","0.0-2.0-73.0","63e96e05231079b3bcec58a7","F1","batch6","","750.7999999523163","tol_trial_num","<div class = centerbox><p class = center-block-text>problem <strong>22</strong> out of 25 problems</p></div>","0","","","","","","","","","","","","","","","","","","","","","","","","",""
"","","","","","single-stim-button","321","892715","0.0-2.0-74.0-0.0","63e96e05231079b3bcec58a7","F1","batch6","","14481","tol_tohand","","","","tol_peg_1","14481","14481","0","[[0,0,0],[2,3],[0]]","1","[[0,0,0],[1,2],[3]]","21","0","","","","","","6","","","","","","","","",""
"","","","","","single-stim-button","322","893685","0.0-2.0-74.0-1.0","63e96e05231079b3bcec58a7","F1","batch6","","969","tol_toboard","","","","tol_peg_3","969","969","0","[[0,0,0],[2,3],[1]]","1","[[0,0,0],[1,2],[3]]","21","0","","","","","","6","","","","","","","","",""
"","","","","","single-stim-button","323","894122","0.0-2.0-74.1-0.1","63e96e05231079b3bcec58a7","F1","batch6","","436","tol_tohand","","","","tol_peg_2","436","436","0","[[0,0,0],[2,0],[1]]","2","[[0,0,0],[1,2],[3]]","21","0","","","","","","6","","","","","","","","",""
"","","","","","single-stim-button","324","894403","0.0-2.0-74.1-1.1","63e96e05231079b3bcec58a7","F1","batch6","","280","tol_toboard","","","","tol_peg_1","280","280","0","[[3,0,0],[2,0],[1]]","2","[[0,0,0],[1,2],[3]]","21","0","","","","","","6","","","","","","","","",""
"","","","","","single-stim-button","325","895729","0.0-2.0-74.2-0.2","63e96e05231079b3bcec58a7","F1","batch6","","1325","tol_tohand","","","","tol_peg_2","1325","1325","0","[[3,0,0],[0,0],[1]]","3","[[0,0,0],[1,2],[3]]","21","0","","","","","","6","","","","","","","","",""
"","","","","","single-stim-button","326","896114","0.0-2.0-74.2-1.2","63e96e05231079b3bcec58a7","F1","batch6","","385","tol_toboard","","","","tol_peg_1","385","385","0","[[3,2,0],[0,0],[1]]","3","[[0,0,0],[1,2],[3]]","21","0","","","","","","6","","","","","","","","",""
"","","","","","single-stim-button","327","896639","0.0-2.0-74.3-0.3","63e96e05231079b3bcec58a7","F1","batch6","","524","tol_tohand","","","","tol_peg_3","524","524","0","[[3,2,0],[0,0],[0]]","4","[[0,0,0],[1,2],[3]]","21","0","","","","","","6","","","","","","","","",""
"","","","","","single-stim-button","328","896925","0.0-2.0-74.3-1.3","63e96e05231079b3bcec58a7","F1","batch6","","286","tol_toboard","","","","tol_peg_2","286","286","0","[[3,2,0],[1,0],[0]]","4","[[0,0,0],[1,2],[3]]","21","0","","","","","","6","","","","","","","","",""
"","","","","","single-stim-button","329","897328","0.0-2.0-74.4-0.4","63e96e05231079b3bcec58a7","F1","batch6","","403","tol_tohand","","","","tol_peg_1","403","403","0","[[3,0,0],[1,0],[0]]","5","[[0,0,0],[1,2],[3]]","21","0","","","","","","6","","","","","","","","",""
"","","","","","single-stim-button","330","897619","0.0-2.0-74.4-1.4","63e96e05231079b3bcec58a7","F1","batch6","","291","tol_toboard","","","","tol_peg_2","291","291","0","[[3,0,0],[1,2],[0]]","5","[[0,0,0],[1,2],[3]]","21","0","","","","","","6","","","","","","","","",""
"","","","","","single-stim-button","331","897980","0.0-2.0-74.5-0.5","63e96e05231079b3bcec58a7","F1","batch6","","360","tol_tohand","","","","tol_peg_1","360","360","0","[[0,0,0],[1,2],[0]]","6","[[0,0,0],[1,2],[3]]","21","0","","","","","","6","","","","","","","","",""
"","","","","","single-stim-button","332","898336","0.0-2.0-74.5-1.5","63e96e05231079b3bcec58a7","F1","batch6","","356","tol_toboard","","","","tol_peg_3","356","356","0","[[0,0,0],[1,2],[3]]","6","[[0,0,0],[1,2],[3]]","21","0","","","","","","6","","","","","","","","",""
"","","","","","poldrack-single-stim","333","899346","0.0-2.0-75.0","63e96e05231079b3bcec58a7","F1","batch6","","-1","tol_feedback","","","true","","1000","1000","500","","","","","","-1","none","true","14481","17529","","","","","","","","","",""
"","","","","","html-button-response","334","900057","0.0-2.0-76.0","63e96e05231079b3bcec58a7","F1","batch6","","709.3999999761581","tol_trial_num","<div class = centerbox><p class = center-block-text>problem <strong>23</strong> out of 25 problems</p></div>","0","","","","","","","","","","","","","","","","","","","","","","","","",""
"","","","","","single-stim-button","335","904835","0.0-2.0-77.0-0.0","63e96e05231079b3bcec58a7","F1","batch6","","4777","tol_tohand","","","","tol_peg_1","4777","4777","0","[[1,0,0],[3,0],[0]]","1","[[1,3,2],[0,0],[0]]","22","0","","","","","","3","","","","","","","","",""
"","","","","","single-stim-button","336","905438","0.0-2.0-77.0-1.0","63e96e05231079b3bcec58a7","F1","batch6","","603","tol_toboard","","","","tol_peg_3","603","603","0","[[1,0,0],[3,0],[2]]","1","[[1,3,2],[0,0],[0]]","22","0","","","","","","3","","","","","","","","",""
"","","","","","single-stim-button","337","905767","0.0-2.0-77.1-0.1","63e96e05231079b3bcec58a7","F1","batch6","","328","tol_tohand","","","","tol_peg_2","328","328","0","[[1,0,0],[0,0],[2]]","2","[[1,3,2],[0,0],[0]]","22","0","","","","","","3","","","","","","","","",""
"","","","","","single-stim-button","338","906044","0.0-2.0-77.1-1.1","63e96e05231079b3bcec58a7","F1","batch6","","276","tol_toboard","","","","tol_peg_1","276","276","0","[[1,3,0],[0,0],[2]]","2","[[1,3,2],[0,0],[0]]","22","0","","","","","","3","","","","","","","","",""
"","","","","","single-stim-button","339","906729","0.0-2.0-77.2-0.2","63e96e05231079b3bcec58a7","F1","batch6","","683","tol_tohand","","","","tol_peg_3","683","683","0","[[1,3,0],[0,0],[0]]","3","[[1,3,2],[0,0],[0]]","22","0","","","","","","3","","","","","","","","",""
"","","","","","single-stim-button","340","907113","0.0-2.0-77.2-1.2","63e96e05231079b3bcec58a7","F1","batch6","","383","tol_toboard","","","","tol_peg_1","383","383","0","[[1,3,2],[0,0],[0]]","3","[[1,3,2],[0,0],[0]]","22","0","","","","","","3","","","","","","","","",""
"","","","","","poldrack-single-stim","341","908114","0.0-2.0-78.0","63e96e05231079b3bcec58a7","F1","batch6","","-1","tol_feedback","","","true","","1000","1000","500","","","","","","-1","none","true","4777","5788","","","","","","","","","",""
"","","","","","html-button-response","342","908885","0.0-2.0-79.0","63e96e05231079b3bcec58a7","F1","batch6","","770.1999999284744","tol_trial_num","<div class = centerbox><p class = center-block-text>problem <strong>24</strong> out of 25 problems</p></div>","0","","","","","","","","","","","","","","","","","","","","","","","","",""
"","","","","","single-stim-button","343","921445","0.0-2.0-80.0-0.0","63e96e05231079b3bcec58a7","F1","batch6","","12560","tol_tohand","","","","tol_peg_3","12560","12560","0","[[0,0,0],[2,3],[0]]","1","[[2,0,0],[3,0],[1]]","23","0","","","","","","7","","","","","","","","",""
"","","","","","single-stim-button","344","922056","0.0-2.0-80.0-1.0","63e96e05231079b3bcec58a7","F1","batch6","","610","tol_toboard","","","","tol_peg_1","610","610","0","[[1,0,0],[2,3],[0]]","1","[[2,0,0],[3,0],[1]]","23","0","","","","","","7","","","","","","","","",""
"","","","","","single-stim-button","345","922929","0.0-2.0-80.1-0.1","63e96e05231079b3bcec58a7","F1","batch6","","873","tol_tohand","","","","tol_peg_2","873","873","0","[[1,0,0],[2,0],[0]]","2","[[2,0,0],[3,0],[1]]","23","0","","","","","","7","","","","","","","","",""
"","","","","","single-stim-button","346","923688","0.0-2.0-80.1-1.1","63e96e05231079b3bcec58a7","F1","batch6","","758","tol_toboard","","","","tol_peg_3","758","758","0","[[1,0,0],[2,0],[3]]","2","[[2,0,0],[3,0],[1]]","23","0","","","","","","7","","","","","","","","",""
"","","","","","single-stim-button","347","924156","0.0-2.0-80.2-0.2","63e96e05231079b3bcec58a7","F1","batch6","","468","tol_tohand","","","","tol_peg_2","468","468","0","[[1,0,0],[0,0],[3]]","3","[[2,0,0],[3,0],[1]]","23","0","","","","","","7","","","","","","","","",""
"","","","","","single-stim-button","348","924597","0.0-2.0-80.2-1.2","63e96e05231079b3bcec58a7","F1","batch6","","440","tol_toboard","","","","tol_peg_1","440","440","0","[[1,2,0],[0,0],[3]]","3","[[2,0,0],[3,0],[1]]","23","0","","","","","","7","","","","","","","","",""
"","","","","","single-stim-button","349","925037","0.0-2.0-80.3-0.3","63e96e05231079b3bcec58a7","F1","batch6","","439","tol_tohand","","","","tol_peg_3","439","439","0","[[1,2,0],[0,0],[0]]","4","[[2,0,0],[3,0],[1]]","23","0","","","","","","7","","","","","","","","",""
"","","","","","single-stim-button","350","925507","0.0-2.0-80.3-1.3","63e96e05231079b3bcec58a7","F1","batch6","","469","tol_toboard","","","","tol_peg_2","469","469","0","[[1,2,0],[3,0],[0]]","4","[[2,0,0],[3,0],[1]]","23","0","","","","","","7","","","","","","","","",""
"","","","","","single-stim-button","351","927705","0.0-2.0-80.4-0.4","63e96e05231079b3bcec58a7","F1","batch6","","2197","tol_tohand","","","","tol_peg_1","2197","2197","0","[[1,0,0],[3,0],[0]]","5","[[2,0,0],[3,0],[1]]","23","0","","","","","","7","","","","","","","","",""
"","","","","","single-stim-button","352","928070","0.0-2.0-80.4-1.4","63e96e05231079b3bcec58a7","F1","batch6","","364","tol_toboard","","","","tol_peg_2","364","364","0","[[1,0,0],[3,2],[0]]","5","[[2,0,0],[3,0],[1]]","23","0","","","","","","7","","","","","","","","",""
"","","","","","single-stim-button","353","928370","0.0-2.0-80.5-0.5","63e96e05231079b3bcec58a7","F1","batch6","","299","tol_tohand","","","","tol_peg_1","299","299","0","[[0,0,0],[3,2],[0]]","6","[[2,0,0],[3,0],[1]]","23","0","","","","","","7","","","","","","","","",""
"","","","","","single-stim-button","354","928805","0.0-2.0-80.5-1.5","63e96e05231079b3bcec58a7","F1","batch6","","434","tol_toboard","","","","tol_peg_3","434","434","0","[[0,0,0],[3,2],[1]]","6","[[2,0,0],[3,0],[1]]","23","0","","","","","","7","","","","","","","","",""
"","","","","","single-stim-button","355","929135","0.0-2.0-80.6-0.6","63e96e05231079b3bcec58a7","F1","batch6","","329","tol_tohand","","","","tol_peg_2","329","329","0","[[0,0,0],[3,0],[1]]","7","[[2,0,0],[3,0],[1]]","23","0","","","","","","7","","","","","","","","",""
