"success","timeout","failed_images","failed_audio","failed_video","trial_type","trial_index","time_elapsed","internal_node_id","subject_id","study_id","session_id","view_history","rt","stimulus","response","task","correct","answer","item","fiar_detect_rt","fiar_detect_correct","total_correct_fiar_detect","post_trial_gap","choices","mouse_click","stim_duration","block_duration","timing_post_trial","current_position","tol_num_moves_made","tol_target","tol_problem_id","tol_rt","key_press","possible_responses","tol_correct","preplanning","tol_rt_per_trial","tol_min_moves","spm_correct","spm_rt"
"true","false","[]","[]","[]","preload","0","5374","0.0-0.0","63ea729bf9951e30282eaae6","F1","batch6","","","","","","","","","","","","","","","","","","","","","","","","","","","","","",""
"true","","","","","fullscreen","1","20314","0.0-1.0-0.0","63ea729bf9951e30282eaae6","F1","batch6","","","","","","","","","","","","","","","","","","","","","","","","","","","","","",""
"true","","","","","fullscreen","2","23780","0.0-2.0-0.0","63ea729bf9951e30282eaae6","F1","batch6","","","","","","","","","","","","","","","","","","","","","","","","","","","","","",""
"","","","","","instructions","3","93487","0.0-2.0-1.0-0.0","63ea729bf9951e30282eaae6","F1","batch6","[{""page_index"":0,""viewing_time"":61435.39999997616},{""page_index"":1,""viewing_time"":8270.700000047684}]","69706.5","","","","","","","","","","","","","","","","","","","","","","","","","","","",""
"","","","","","html-button-response","4","95109","0.0-2.0-1.0-1.0-0.0","63ea729bf9951e30282eaae6","F1","batch6","","1620.1000000238419","<p class=block-text> Let's answer a few questions <br>","0","pattern_enter_quiz","","","","","","","","","","","","","","","","","","","","","","","","",""
"","","","","","html-button-response","5","101025","0.0-2.0-1.0-1.0-1.0","63ea729bf9951e30282eaae6","F1","batch6","","5915.399999976158","<p class = block-text>True or False: You will have as much time as you want to make each choice. <br></p>","1","pattern_quiz","true","","","","","","","","","","","","","","","","","","","","","","","",""
"","","","","","html-button-response","6","103088","0.0-2.0-1.0-1.0-2.0","63ea729bf9951e30282eaae6","F1","batch6","","2061.1999999284744","<p class = block-text>Correct! You should make your choice <strong> as fast as you can</strong>.</p>","0","pattern_quiz_feedback","","","","","","","","","","","","","","","","","","","","","","","","",""
"","","","","","html-button-response","7","108339","0.0-2.0-1.0-1.0-3.0","63ea729bf9951e30282eaae6","F1","batch6","","5249.699999928474","<p class = block-text>True or False: You will look for 4 pieces in black or white color connected in a row either horizontally, vertically or diagonally. <br></p>","0","pattern_quiz","true","","","","","","","","","","","","","","","","","","","","","","","",""
"","","","","","html-button-response","8","109411","0.0-2.0-1.0-1.0-4.0","63ea729bf9951e30282eaae6","F1","batch6","","1071.3000000715256","<p class = block-text>Correct! </p>","0","pattern_quiz_feedback","","","","","","","","","","","","","","","","","","","","","","","","",""
"","","","","","html-button-response","9","111459","0.0-2.0-2.0","63ea729bf9951e30282eaae6","F1","batch6","","2046.3999999761581","<p class=block-text> Now that you've understood the game, let's do a few practice trials before we start!<br> <br>","0","pattern_enter_practice","","","","","","","","","","","","","","","","","","","","","","","","",""
"","","","","","image-keyboard-response","10","115512","0.0-2.0-3.0-0.0","63ea729bf9951e30282eaae6","F1","batch6","","4047.7999999523163","stim/prac_no_16_1.png","j","pattern_practice","true","j","","","","","","","","","","","","","","","","","","","","","","",""
"","","","","","html-keyboard-response","11","116532","0.0-2.0-3.0-1.0","63ea729bf9951e30282eaae6","F1","batch6","","null","<p style=""font-size:30px;color:green;"">Correct!</p>","null","pattern_feedback","","","","","","","","","","","","","","","","","","","","","","","","",""
"","","","","","image-keyboard-response","12","118144","0.0-2.0-3.0-0.1","63ea729bf9951e30282eaae6","F1","batch6","","1608","stim/prac_yes_16_ver_w1.png","f","pattern_practice","true","f","","","","","","","","","","","","","","","","","","","","","","",""
"","","","","","html-keyboard-response","13","119161","0.0-2.0-3.0-1.1","63ea729bf9951e30282eaae6","F1","batch6","","null","<p style=""font-size:30px;color:green;"">Correct!</p>","null","pattern_feedback","","","","","","","","","","","","","","","","","","","","","","","","",""
"","","","","","image-keyboard-response","14","121210","0.0-2.0-3.0-0.2","63ea729bf9951e30282eaae6","F1","batch6","","2046.6999999284744","stim/prac_yes_18_hor_w1.png","f","pattern_practice","true","f","","","","","","","","","","","","","","","","","","","","","","",""
"","","","","","html-keyboard-response","15","122229","0.0-2.0-3.0-1.2","63ea729bf9951e30282eaae6","F1","batch6","","null","<p style=""font-size:30px;color:green;"">Correct!</p>","null","pattern_feedback","","","","","","","","","","","","","","","","","","","","","","","","",""
"","","","","","image-keyboard-response","16","124244","0.0-2.0-3.0-0.3","63ea729bf9951e30282eaae6","F1","batch6","","2010.8000000715256","stim/prac_no_18_1.png","j","pattern_practice","true","j","","","","","","","","","","","","","","","","","","","","","","",""
"","","","","","html-keyboard-response","17","125260","0.0-2.0-3.0-1.3","63ea729bf9951e30282eaae6","F1","batch6","","null","<p style=""font-size:30px;color:green;"">Correct!</p>","null","pattern_feedback","","","","","","","","","","","","","","","","","","","","","","","","",""
"","","","","","image-keyboard-response","18","126546","0.0-2.0-3.0-0.4","63ea729bf9951e30282eaae6","F1","batch6","","1282.8999999761581","stim/prac_yes_20_dia_b1.png","f","pattern_practice","true","f","","","","","","","","","","","","","","","","","","","","","","",""
"","","","","","html-keyboard-response","19","127562","0.0-2.0-3.0-1.4","63ea729bf9951e30282eaae6","F1","batch6","","null","<p style=""font-size:30px;color:green;"">Correct!</p>","null","pattern_feedback","","","","","","","","","","","","","","","","","","","","","","","","",""
"","","","","","html-button-response","20","133554","0.0-2.0-4.0","63ea729bf9951e30282eaae6","F1","batch6","","5990.399999976158","<p class=block-text> Good job! You are done with practice trials!<br>
        You responded correctly on 100% of the trials.<br>
        Press the button below to start official trials. Now you won't see any feedback about your response</p>","0","pattern_enter_official_trials","","","","","","","","","","","","","","","","","","","","","","","","",""
"","","","","","html-keyboard-response","21","134361","0.0-2.0-5.0-0.0","63ea729bf9951e30282eaae6","F1","batch6","","null","<p class=block-text>Trial 1 out of 78</p>","null","pattern_show_trial_num","","","","","","","","","","","","","","","","","","","","","","","","",""
"","","","","","image-keyboard-response","22","137048","0.0-2.0-5.0-1.0","63ea729bf9951e30282eaae6","F1","batch6","","2682.600000023842","stim/no_30_1_b.png","j","pattern_response","true","j","pattern_13","2682.600000023842","true","1","","","","","","","","","","","","","","","","","","",""
"","","","","","html-keyboard-response","23","138364","0.0-2.0-5.0-0.1","63ea729bf9951e30282eaae6","F1","batch6","","null","<p class=block-text>Trial 2 out of 78</p>","null","pattern_show_trial_num","","","","","","","","","","","","","","","","","","","","","","","","",""
"","","","","","image-keyboard-response","24","146435","0.0-2.0-5.0-1.1","63ea729bf9951e30282eaae6","F1","batch6","","8068.100000023842","stim/yes_63_dia_b1.png","j","pattern_response","false","f","pattern_78","8068.100000023842","false","1","","","","","","","","","","","","","","","","","","",""
"","","","","","html-keyboard-response","25","147747","0.0-2.0-5.0-0.2","63ea729bf9951e30282eaae6","F1","batch6","","null","<p class=block-text>Trial 3 out of 78</p>","null","pattern_show_trial_num","","","","","","","","","","","","","","","","","","","","","","","","",""
"","","","","","image-keyboard-response","26","150153","0.0-2.0-5.0-1.2","63ea729bf9951e30282eaae6","F1","batch6","","2401.3000000715256","stim/no_18_1_b.png","j","pattern_response","true","j","pattern_05","2401.3000000715256","true","2","","","","","","","","","","","","","","","","","","",""
"","","","","","html-keyboard-response","27","151461","0.0-2.0-5.0-0.3","63ea729bf9951e30282eaae6","F1","batch6","","null","<p class=block-text>Trial 4 out of 78</p>","null","pattern_show_trial_num","","","","","","","","","","","","","","","","","","","","","","","","",""
"","","","","","image-keyboard-response","28","153176","0.0-2.0-5.0-1.3","63ea729bf9951e30282eaae6","F1","batch6","","1712","stim/yes_46_ver_b1_b.png","f","pattern_response","true","f","pattern_68","1712","true","3","","","","","","","","","","","","","","","","","","",""
"","","","","","html-keyboard-response","29","154485","0.0-2.0-5.0-0.4","63ea729bf9951e30282eaae6","F1","batch6","","null","<p class=block-text>Trial 5 out of 78</p>","null","pattern_show_trial_num","","","","","","","","","","","","","","","","","","","","","","","","",""
"","","","","","image-keyboard-response","30","157602","0.0-2.0-5.0-1.4","63ea729bf9951e30282eaae6","F1","batch6","","3114","stim/no_47_1_b.png","j","pattern_response","true","j","pattern_27","3114","true","4","","","","","","","","","","","","","","","","","","",""
"","","","","","html-keyboard-response","31","158917","0.0-2.0-5.0-0.5","63ea729bf9951e30282eaae6","F1","batch6","","null","<p class=block-text>Trial 6 out of 78</p>","null","pattern_show_trial_num","","","","","","","","","","","","","","","","","","","","","","","","",""
"","","","","","image-keyboard-response","32","161826","0.0-2.0-5.0-1.5","63ea729bf9951e30282eaae6","F1","batch6","","2905.7000000476837","stim/no_22_1_b.png","j","pattern_response","true","j","pattern_07","2905.7000000476837","true","5","","","","","","","","","","","","","","","","","","",""
"","","","","","html-keyboard-response","33","163138","0.0-2.0-5.0-0.6","63ea729bf9951e30282eaae6","F1","batch6","","null","<p class=block-text>Trial 7 out of 78</p>","null","pattern_show_trial_num","","","","","","","","","","","","","","","","","","","","","","","","",""
"","","","","","image-keyboard-response","34","164247","0.0-2.0-5.0-1.6","63ea729bf9951e30282eaae6","F1","batch6","","1105.3999999761581","stim/yes_37_hor_w1_w.png","f","pattern_response","true","f","pattern_60","1105.3999999761581","true","6","","","","","","","","","","","","","","","","","","",""
"","","","","","html-keyboard-response","35","165565","0.0-2.0-5.0-0.7","63ea729bf9951e30282eaae6","F1","batch6","","null","<p class=block-text>Trial 8 out of 78</p>","null","pattern_show_trial_num","","","","","","","","","","","","","","","","","","","","","","","","",""
"","","","","","image-keyboard-response","36","169223","0.0-2.0-5.0-1.7","63ea729bf9951e30282eaae6","F1","batch6","","3654.600000023842","stim/no_33_1_b.png","j","pattern_response","true","j","pattern_15","3654.600000023842","true","7","","","","","","","","","","","","","","","","","","",""
"","","","","","html-keyboard-response","37","170543","0.0-2.0-5.0-0.8","63ea729bf9951e30282eaae6","F1","batch6","","null","<p class=block-text>Trial 9 out of 78</p>","null","pattern_show_trial_num","","","","","","","","","","","","","","","","","","","","","","","","",""
"","","","","","image-keyboard-response","38","171909","0.0-2.0-5.0-1.8","63ea729bf9951e30282eaae6","F1","batch6","","1362.2999999523163","stim/no_12_1.png","j","pattern_response","true","j","pattern_01","1362.2999999523163","true","8","","","","","","","","","","","","","","","","","","",""
"","","","","","html-keyboard-response","39","173230","0.0-2.0-5.0-0.9","63ea729bf9951e30282eaae6","F1","batch6","","null","<p class=block-text>Trial 10 out of 78</p>","null","pattern_show_trial_num","","","","","","","","","","","","","","","","","","","","","","","","",""
"","","","","","image-keyboard-response","40","174179","0.0-2.0-5.0-1.9","63ea729bf9951e30282eaae6","F1","batch6","","946","stim/yes_17_ver_b1_b.png","f","pattern_response","true","f","pattern_46","946","true","9","","","","","","","","","","","","","","","","","","",""
"","","","","","html-keyboard-response","41","175508","0.0-2.0-5.0-0.10","63ea729bf9951e30282eaae6","F1","batch6","","null","<p class=block-text>Trial 11 out of 78</p>","null","pattern_show_trial_num","","","","","","","","","","","","","","","","","","","","","","","","",""
"","","","","","image-keyboard-response","42","177584","0.0-2.0-5.0-1.10","63ea729bf9951e30282eaae6","F1","batch6","","2071.5999999046326","stim/no_25_1_b.png","j","pattern_response","true","j","pattern_09","2071.5999999046326","true","10","","","","","","","","","","","","","","","","","","",""
"","","","","","html-keyboard-response","43","178905","0.0-2.0-5.0-0.11","63ea729bf9951e30282eaae6","F1","batch6","","null","<p class=block-text>Trial 12 out of 78</p>","null","pattern_show_trial_num","","","","","","","","","","","","","","","","","","","","","","","","",""
"","","","","","image-keyboard-response","44","180124","0.0-2.0-5.0-1.11","63ea729bf9951e30282eaae6","F1","batch6","","1215.1000000238419","stim/yes_29_hor_b1_b.png","f","pattern_response","true","f","pattern_52","1215.1000000238419","true","11","","","","","","","","","","","","","","","","","","",""
"","","","","","html-keyboard-response","45","181441","0.0-2.0-5.0-0.12","63ea729bf9951e30282eaae6","F1","batch6","","null","<p class=block-text>Trial 13 out of 78</p>","null","pattern_show_trial_num","","","","","","","","","","","","","","","","","","","","","","","","",""
"","","","","","image-keyboard-response","46","182600","0.0-2.0-5.0-1.12","63ea729bf9951e30282eaae6","F1","batch6","","1156.8000000715256","stim/yes_70_ver_b1.png","f","pattern_response","true","f","pattern_80","1156.8000000715256","true","12","","","","","","","","","","","","","","","","","","",""
"","","","","","html-keyboard-response","47","183912","0.0-2.0-5.0-0.13","63ea729bf9951e30282eaae6","F1","batch6","","null","<p class=block-text>Trial 14 out of 78</p>","null","pattern_show_trial_num","","","","","","","","","","","","","","","","","","","","","","","","",""
"","","","","","image-keyboard-response","48","186601","0.0-2.0-5.0-1.13","63ea729bf9951e30282eaae6","F1","batch6","","2685.7000000476837","stim/yes_53_ver_b1_b.png","f","pattern_response","true","f","pattern_74","2685.7000000476837","true","13","","","","","","","","","","","","","","","","","","",""
"","","","","","html-keyboard-response","49","187926","0.0-2.0-5.0-0.14","63ea729bf9951e30282eaae6","F1","batch6","","null","<p class=block-text>Trial 15 out of 78</p>","null","pattern_show_trial_num","","","","","","","","","","","","","","","","","","","","","","","","",""
"","","","","","image-keyboard-response","50","191604","0.0-2.0-5.0-1.14","63ea729bf9951e30282eaae6","F1","batch6","","3674.600000023842","stim/no_58_1_w.png","j","pattern_response","true","j","pattern_35","3674.600000023842","true","14","","","","","","","","","","","","","","","","","","",""
"","","","","","html-keyboard-response","51","192921","0.0-2.0-5.0-0.15","63ea729bf9951e30282eaae6","F1","batch6","","null","<p class=block-text>Trial 16 out of 78</p>","null","pattern_show_trial_num","","","","","","","","","","","","","","","","","","","","","","","","",""
"","","","","","image-keyboard-response","52","196776","0.0-2.0-5.0-1.15","63ea729bf9951e30282eaae6","F1","batch6","","3850.6999999284744","stim/no_39_1_w.png","j","pattern_response","true","j","pattern_21","3850.6999999284744","true","15","","","","","","","","","","","","","","","","","","",""
"","","","","","html-keyboard-response","53","198096","0.0-2.0-5.0-0.16","63ea729bf9951e30282eaae6","F1","batch6","","null","<p class=block-text>Trial 17 out of 78</p>","null","pattern_show_trial_num","","","","","","","","","","","","","","","","","","","","","","","","",""
"","","","","","image-keyboard-response","54","199285","0.0-2.0-5.0-1.16","63ea729bf9951e30282eaae6","F1","batch6","","1185.3999999761581","stim/yes_33_dia_w1_w.png","f","pattern_response","true","f","pattern_56","1185.3999999761581","true","16","","","","","","","","","","","","","","","","","","",""
"","","","","","html-keyboard-response","55","200590","0.0-2.0-5.0-0.17","63ea729bf9951e30282eaae6","F1","batch6","","null","<p class=block-text>Trial 18 out of 78</p>","null","pattern_show_trial_num","","","","","","","","","","","","","","","","","","","","","","","","",""
"","","","","","image-keyboard-response","56","201978","0.0-2.0-5.0-1.17","63ea729bf9951e30282eaae6","F1","batch6","","1383.4000000953674","stim/no_28_2.png","j","pattern_response","true","j","pattern_11","1383.4000000953674","true","17","","","","","","","","","","","","","","","","","","",""
"","","","","","html-keyboard-response","57","203298","0.0-2.0-5.0-0.18","63ea729bf9951e30282eaae6","F1","batch6","","null","<p class=block-text>Trial 19 out of 78</p>","null","pattern_show_trial_num","","","","","","","","","","","","","","","","","","","","","","","","",""
"","","","","","image-keyboard-response","58","207189","0.0-2.0-5.0-1.18","63ea729bf9951e30282eaae6","F1","batch6","","3899.600000023842","stim/no_51_1.png","j","pattern_response","true","j","pattern_31","3899.600000023842","true","18","","","","","","","","","","","","","","","","","","",""
"","","","","","html-keyboard-response","59","208503","0.0-2.0-5.0-0.19","63ea729bf9951e30282eaae6","F1","batch6","","null","<p class=block-text>Trial 20 out of 78</p>","null","pattern_show_trial_num","","","","","","","","","","","","","","","","","","","","","","","","",""
"","","","","","image-keyboard-response","60","209784","0.0-2.0-5.0-1.19","63ea729bf9951e30282eaae6","F1","batch6","","1276.6000000238419","stim/no_15_1_w.png","j","pattern_response","true","j","pattern_03","1276.6000000238419","true","19","","","","","","","","","","","","","","","","","","",""
"","","","","","html-keyboard-response","61","211103","0.0-2.0-5.0-0.20","63ea729bf9951e30282eaae6","F1","batch6","","null","<p class=block-text>Trial 21 out of 78</p>","null","pattern_show_trial_num","","","","","","","","","","","","","","","","","","","","","","","","",""
"","","","","","image-keyboard-response","62","214411","0.0-2.0-5.0-1.20","63ea729bf9951e30282eaae6","F1","batch6","","3305.9000000953674","stim/no_37_2_w.png","j","pattern_response","true","j","pattern_19","3305.9000000953674","true","20","","","","","","","","","","","","","","","","","","",""
"","","","","","html-keyboard-response","63","215734","0.0-2.0-5.0-0.21","63ea729bf9951e30282eaae6","F1","batch6","","null","<p class=block-text>Trial 22 out of 78</p>","null","pattern_show_trial_num","","","","","","","","","","","","","","","","","","","","","","","","",""
"","","","","","image-keyboard-response","64","217477","0.0-2.0-5.0-1.21","63ea729bf9951e30282eaae6","F1","batch6","","1739.0999999046326","stim/yes_15_dia_b1u_b.png","f","pattern_response","true","f","pattern_44","1739.0999999046326","true","21","","","","","","","","","","","","","","","","","","",""
"","","","","","html-keyboard-response","65","218794","0.0-2.0-5.0-0.22","63ea729bf9951e30282eaae6","F1","batch6","","null","<p class=block-text>Trial 23 out of 78</p>","null","pattern_show_trial_num","","","","","","","","","","","","","","","","","","","","","","","","",""
"","","","","","image-keyboard-response","66","219587","0.0-2.0-5.0-1.22","63ea729bf9951e30282eaae6","F1","batch6","","791","stim/yes_39_hor_w1_w.png","f","pattern_response","true","f","pattern_62","791","true","22","","","","","","","","","","","","","","","","","","",""
"","","","","","html-keyboard-response","67","220918","0.0-2.0-5.0-0.23","63ea729bf9951e30282eaae6","F1","batch6","","null","<p class=block-text>Trial 24 out of 78</p>","null","pattern_show_trial_num","","","","","","","","","","","","","","","","","","","","","","","","",""
"","","","","","image-keyboard-response","68","224914","0.0-2.0-5.0-1.23","63ea729bf9951e30282eaae6","F1","batch6","","3993.7999999523163","stim/yes_58_dia_w1_w.png","j","pattern_response","false","f","pattern_76","3993.7999999523163","false","22","","","","","","","","","","","","","","","","","","",""
"","","","","","html-keyboard-response","69","226230","0.0-2.0-5.0-0.24","63ea729bf9951e30282eaae6","F1","batch6","","null","<p class=block-text>Trial 25 out of 78</p>","null","pattern_show_trial_num","","","","","","","","","","","","","","","","","","","","","","","","",""
"","","","","","image-keyboard-response","70","229563","0.0-2.0-5.0-1.24","63ea729bf9951e30282eaae6","F1","batch6","","3329.399999976158","stim/no_53_1_b.png","j","pattern_response","true","j","pattern_33","3329.399999976158","true","23","","","","","","","","","","","","","","","","","","",""
"","","","","","html-keyboard-response","71","230895","0.0-2.0-5.0-0.25","63ea729bf9951e30282eaae6","F1","batch6","","null","<p class=block-text>Trial 26 out of 78</p>","null","pattern_show_trial_num","","","","","","","","","","","","","","","","","","","","","","","","",""
"","","","","","image-keyboard-response","72","233850","0.0-2.0-5.0-1.25","63ea729bf9951e30282eaae6","F1","batch6","","2951.9000000953674","stim/no_49_2_b.png","j","pattern_response","true","j","pattern_29","2951.9000000953674","true","24","","","","","","","","","","","","","","","","","","",""
"","","","","","html-keyboard-response","73","235164","0.0-2.0-5.0-0.26","63ea729bf9951e30282eaae6","F1","batch6","","null","<p class=block-text>Trial 27 out of 78</p>","null","pattern_show_trial_num","","","","","","","","","","","","","","","","","","","","","","","","",""
"","","","","","image-keyboard-response","74","237201","0.0-2.0-5.0-1.26","63ea729bf9951e30282eaae6","F1","batch6","","2032.8000000715256","stim/yes_23_ver_b1.png","f","pattern_response","true","f","pattern_48","2032.8000000715256","true","25","","","","","","","","","","","","","","","","","","",""
"","","","","","html-keyboard-response","75","238516","0.0-2.0-5.0-0.27","63ea729bf9951e30282eaae6","F1","batch6","","null","<p class=block-text>Trial 28 out of 78</p>","null","pattern_show_trial_num","","","","","","","","","","","","","","","","","","","","","","","","",""
"","","","","","image-keyboard-response","76","241287","0.0-2.0-5.0-1.27","63ea729bf9951e30282eaae6","F1","batch6","","2767.7999999523163","stim/yes_42_dia_w1_w.png","j","pattern_response","false","f","pattern_64","2767.7999999523163","false","25","","","","","","","","","","","","","","","","","","",""
"","","","","","html-keyboard-response","77","242595","0.0-2.0-5.0-0.28","63ea729bf9951e30282eaae6","F1","batch6","","null","<p class=block-text>Trial 29 out of 78</p>","null","pattern_show_trial_num","","","","","","","","","","","","","","","","","","","","","","","","",""
"","","","","","image-keyboard-response","78","246574","0.0-2.0-5.0-1.28","63ea729bf9951e30282eaae6","F1","batch6","","3974.899999976158","stim/no_45_1_w.png","j","pattern_response","true","j","pattern_25","3974.899999976158","true","26","","","","","","","","","","","","","","","","","","",""
"","","","","","html-keyboard-response","79","247887","0.0-2.0-5.0-0.29","63ea729bf9951e30282eaae6","F1","batch6","","null","<p class=block-text>Trial 30 out of 78</p>","null","pattern_show_trial_num","","","","","","","","","","","","","","","","","","","","","","","","",""
"","","","","","image-keyboard-response","80","248854","0.0-2.0-5.0-1.29","63ea729bf9951e30282eaae6","F1","batch6","","964.3999999761581","stim/yes_36_ver_w1_w.png","f","pattern_response","true","f","pattern_58","964.3999999761581","true","27","","","","","","","","","","","","","","","","","","",""
"","","","","","html-keyboard-response","81","250176","0.0-2.0-5.0-0.30","63ea729bf9951e30282eaae6","F1","batch6","","null","<p class=block-text>Trial 31 out of 78</p>","null","pattern_show_trial_num","","","","","","","","","","","","","","","","","","","","","","","","",""
"","","","","","image-keyboard-response","82","250973","0.0-2.0-5.0-1.30","63ea729bf9951e30282eaae6","F1","batch6","","792.2999999523163","stim/yes_12_hor_w1_w.png","f","pattern_response","true","f","pattern_42","792.2999999523163","true","28","","","","","","","","","","","","","","","","","","",""
"","","","","","html-keyboard-response","83","252286","0.0-2.0-5.0-0.31","63ea729bf9951e30282eaae6","F1","batch6","","null","<p class=block-text>Trial 32 out of 78</p>","null","pattern_show_trial_num","","","","","","","","","","","","","","","","","","","","","","","","",""
"","","","","","image-keyboard-response","84","253269","0.0-2.0-5.0-1.31","63ea729bf9951e30282eaae6","F1","batch6","","979.0999999046326","stim/yes_26_dia_w2_w.png","f","pattern_response","true","f","pattern_50","979.0999999046326","true","29","","","","","","","","","","","","","","","","","","",""
"","","","","","html-keyboard-response","85","254593","0.0-2.0-5.0-0.32","63ea729bf9951e30282eaae6","F1","batch6","","null","<p class=block-text>Trial 33 out of 78</p>","null","pattern_show_trial_num","","","","","","","","","","","","","","","","","","","","","","","","",""
"","","","","","image-keyboard-response","86","258192","0.0-2.0-5.0-1.32","63ea729bf9951e30282eaae6","F1","batch6","","3595.3000000715256","stim/yes_51_dia_b1.png","j","pattern_response","false","f","pattern_72","3595.3000000715256","false","29","","","","","","","","","","","","","","","","","","",""
"","","","","","html-keyboard-response","87","259501","0.0-2.0-5.0-0.33","63ea729bf9951e30282eaae6","F1","batch6","","null","<p class=block-text>Trial 34 out of 78</p>","null","pattern_show_trial_num","","","","","","","","","","","","","","","","","","","","","","","","",""
"","","","","","image-keyboard-response","88","260900","0.0-2.0-5.0-1.33","63ea729bf9951e30282eaae6","F1","batch6","","1395.3999999761581","stim/yes_49_hor_w1_b.png","f","pattern_response","true","f","pattern_70","1395.3999999761581","true","30","","","","","","","","","","","","","","","","","","",""
"","","","","","html-keyboard-response","89","262217","0.0-2.0-5.0-0.34","63ea729bf9951e30282eaae6","F1","batch6","","null","<p class=block-text>Trial 35 out of 78</p>","null","pattern_show_trial_num","","","","","","","","","","","","","","","","","","","","","","","","",""
"","","","","","image-keyboard-response","90","265313","0.0-2.0-5.0-1.34","63ea729bf9951e30282eaae6","F1","batch6","","3092.5","stim/yes_44_ver_w1_w.png","j","pattern_response","false","f","pattern_66","3092.5","false","30","","","","","","","","","","","","","","","","","","",""
"","","","","","html-keyboard-response","91","266623","0.0-2.0-5.0-0.35","63ea729bf9951e30282eaae6","F1","batch6","","null","<p class=block-text>Trial 36 out of 78</p>","null","pattern_show_trial_num","","","","","","","","","","","","","","","","","","","","","","","","",""
"","","","","","image-keyboard-response","92","271134","0.0-2.0-5.0-1.35","63ea729bf9951e30282eaae6","F1","batch6","","4499.200000047684","stim/no_67_1.png","j","pattern_response","true","j","pattern_39","4499.200000047684","true","31","","","","","","","","","","","","","","","","","","",""
"","","","","","html-keyboard-response","93","272451","0.0-2.0-5.0-0.36","63ea729bf9951e30282eaae6","F1","batch6","","null","<p class=block-text>Trial 37 out of 78</p>","null","pattern_show_trial_num","","","","","","","","","","","","","","","","","","","","","","","","",""
"","","","","","image-keyboard-response","94","274732","0.0-2.0-5.0-1.36","63ea729bf9951e30282eaae6","F1","batch6","","2278.1999999284744","stim/no_36_1_b.png","j","pattern_response","true","j","pattern_17","2278.1999999284744","true","32","","","","","","","","","","","","","","","","","","",""
"","","","","","html-keyboard-response","95","276054","0.0-2.0-5.0-0.37","63ea729bf9951e30282eaae6","F1","batch6","","null","<p class=block-text>Trial 38 out of 78</p>","null","pattern_show_trial_num","","","","","","","","","","","","","","","","","","","","","","","","",""
"","","","","","image-keyboard-response","96","276980","0.0-2.0-5.0-1.37","63ea729bf9951e30282eaae6","F1","batch6","","922.2999999523163","stim/yes_30_ver_b1_b.png","f","pattern_response","true","f","pattern_54","922.2999999523163","true","33","","","","","","","","","","","","","","","","","","",""
"","","","","","html-keyboard-response","97","278308","0.0-2.0-5.0-0.38","63ea729bf9951e30282eaae6","F1","batch6","","null","<p class=block-text>Trial 39 out of 78</p>","null","pattern_show_trial_num","","","","","","","","","","","","","","","","","","","","","","","","",""
"","","","","","image-keyboard-response","98","281013","0.0-2.0-5.0-1.38","63ea729bf9951e30282eaae6","F1","batch6","","2701.899999976158","stim/no_43_2_b.png","j","pattern_response","true","j","pattern_23","2701.899999976158","true","34","","","","","","","","","","","","","","","","","","",""
"","","","","","image-keyboard-response","99","283561","0.0-2.0-6.0","63ea729bf9951e30282eaae6","F1","batch6","","2040.8999999761581","stim/empty_board.png","j","attention_check","true","j","","","","","500","[""f"",""j""]","","","","","","","","","","","","","","","","",""
"","","","","","html-keyboard-response","100","284378","0.0-2.0-7.0-0.0","63ea729bf9951e30282eaae6","F1","batch6","","null","<p class=block-text>Trial 40 out of 78</p>","null","pattern_show_trial_num","","","","","","","","","","","","","","","","","","","","","","","","",""
"","","","","","image-keyboard-response","101","289593","0.0-2.0-7.0-1.0","63ea729bf9951e30282eaae6","F1","batch6","","5212","stim/no_55_1_w.png","j","pattern_response","true","j","pattern_34","5212","true","35","","","","","","","","","","","","","","","","","","",""
"","","","","","html-keyboard-response","102","290911","0.0-2.0-7.0-0.1","63ea729bf9951e30282eaae6","F1","batch6","","null","<p class=block-text>Trial 41 out of 78</p>","null","pattern_show_trial_num","","","","","","","","","","","","","","","","","","","","","","","","",""
"","","","","","image-keyboard-response","103","295110","0.0-2.0-7.0-1.1","63ea729bf9951e30282eaae6","F1","batch6","","4194.699999928474","stim/no_70_2.png","j","pattern_response","true","j","pattern_40","4194.699999928474","true","36","","","","","","","","","","","","","","","","","","",""
"","","","","","html-keyboard-response","104","296429","0.0-2.0-7.0-0.2","63ea729bf9951e30282eaae6","F1","batch6","","null","<p class=block-text>Trial 42 out of 78</p>","null","pattern_show_trial_num","","","","","","","","","","","","","","","","","","","","","","","","",""
"","","","","","image-keyboard-response","105","298183","0.0-2.0-7.0-1.2","63ea729bf9951e30282eaae6","F1","batch6","","1749.7999999523163","stim/yes_35_dia_b1.png","f","pattern_response","true","f","pattern_57","1749.7999999523163","true","37","","","","","","","","","","","","","","","","","","",""
"","","","","","html-keyboard-response","106","299511","0.0-2.0-7.0-0.3","63ea729bf9951e30282eaae6","F1","batch6","","null","<p class=block-text>Trial 43 out of 78</p>","null","pattern_show_trial_num","","","","","","","","","","","","","","","","","","","","","","","","",""
"","","","","","image-keyboard-response","107","300564","0.0-2.0-7.0-1.3","63ea729bf9951e30282eaae6","F1","batch6","","1050.5","stim/no_13_2_b.png","j","pattern_response","true","j","pattern_02","1050.5","true","38","","","","","","","","","","","","","","","","","","",""
"","","","","","html-keyboard-response","108","301870","0.0-2.0-7.0-0.4","63ea729bf9951e30282eaae6","F1","batch6","","null","<p class=block-text>Trial 44 out of 78</p>","null","pattern_show_trial_num","","","","","","","","","","","","","","","","","","","","","","","","",""
"","","","","","image-keyboard-response","109","305758","0.0-2.0-7.0-1.4","63ea729bf9951e30282eaae6","F1","batch6","","3884.399999976158","stim/no_65_1_b.png","j","pattern_response","true","j","pattern_38","3884.399999976158","true","39","","","","","","","","","","","","","","","","","","",""
"","","","","","html-keyboard-response","110","307072","0.0-2.0-7.0-0.5","63ea729bf9951e30282eaae6","F1","batch6","","null","<p class=block-text>Trial 45 out of 78</p>","null","pattern_show_trial_num","","","","","","","","","","","","","","","","","","","","","","","","",""
"","","","","","image-keyboard-response","111","308176","0.0-2.0-7.0-1.5","63ea729bf9951e30282eaae6","F1","batch6","","1100.7999999523163","stim/yes_43_ver_w1_w.png","f","pattern_response","true","f","pattern_65","1100.7999999523163","true","40","","","","","","","","","","","","","","","","","","",""
"","","","","","html-keyboard-response","112","309498","0.0-2.0-7.0-0.6","63ea729bf9951e30282eaae6","F1","batch6","","null","<p class=block-text>Trial 46 out of 78</p>","null","pattern_show_trial_num","","","","","","","","","","","","","","","","","","","","","","","","",""
"","","","","","image-keyboard-response","113","312404","0.0-2.0-7.0-1.6","63ea729bf9951e30282eaae6","F1","batch6","","2903.100000023842","stim/yes_50_dia_w1.png","j","pattern_response","false","f","pattern_71","2903.100000023842","false","40","","","","","","","","","","","","","","","","","","",""
"","","","","","html-keyboard-response","114","313724","0.0-2.0-7.0-0.7","63ea729bf9951e30282eaae6","F1","batch6","","null","<p class=block-text>Trial 47 out of 78</p>","null","pattern_show_trial_num","","","","","","","","","","","","","","","","","","","","","","","","",""
"","","","","","image-keyboard-response","115","315033","0.0-2.0-7.0-1.7","63ea729bf9951e30282eaae6","F1","batch6","","1305.2000000476837","stim/yes_67_hor_b1.png","f","pattern_response","true","f","pattern_79","1305.2000000476837","true","41","","","","","","","","","","","","","","","","","","",""
"","","","","","html-keyboard-response","116","316352","0.0-2.0-7.0-0.8","63ea729bf9951e30282eaae6","F1","batch6","","null","<p class=block-text>Trial 48 out of 78</p>","null","pattern_show_trial_num","","","","","","","","","","","","","","","","","","","","","","","","",""
"","","","","","image-keyboard-response","117","319607","0.0-2.0-7.0-1.8","63ea729bf9951e30282eaae6","F1","batch6","","3250.5","stim/no_38_1_b.png","j","pattern_response","true","j","pattern_20","3250.5","true","42","","","","","","","","","","","","","","","","","","",""
"","","","","","html-keyboard-response","118","320917","0.0-2.0-7.0-0.9","63ea729bf9951e30282eaae6","F1","batch6","","null","<p class=block-text>Trial 49 out of 78</p>","null","pattern_show_trial_num","","","","","","","","","","","","","","","","","","","","","","","","",""
"","","","","","image-keyboard-response","119","322156","0.0-2.0-7.0-1.9","63ea729bf9951e30282eaae6","F1","batch6","","1236.3999999761581","stim/no_23_1.png","j","pattern_response","true","j","pattern_08","1236.3999999761581","true","43","","","","","","","","","","","","","","","","","","",""
"","","","","","html-keyboard-response","120","323485","0.0-2.0-7.0-0.10","63ea729bf9951e30282eaae6","F1","batch6","","null","<p class=block-text>Trial 50 out of 78</p>","null","pattern_show_trial_num","","","","","","","","","","","","","","","","","","","","","","","","",""
"","","","","","image-keyboard-response","121","324859","0.0-2.0-7.0-1.10","63ea729bf9951e30282eaae6","F1","batch6","","1371","stim/no_26_1_w.png","j","pattern_response","true","j","pattern_10","1371","true","44","","","","","","","","","","","","","","","","","","",""
"","","","","","html-keyboard-response","122","326178","0.0-2.0-7.0-0.11","63ea729bf9951e30282eaae6","F1","batch6","","null","<p class=block-text>Trial 51 out of 78</p>","null","pattern_show_trial_num","","","","","","","","","","","","","","","","","","","","","","","","",""
"","","","","","image-keyboard-response","123","329679","0.0-2.0-7.0-1.11","63ea729bf9951e30282eaae6","F1","batch6","","3497.600000023842","stim/yes_48_dia_w1_w.png","j","pattern_response","false","f","pattern_69","3497.600000023842","false","44","","","","","","","","","","","","","","","","","","",""
"","","","","","html-keyboard-response","124","330983","0.0-2.0-7.0-0.12","63ea729bf9951e30282eaae6","F1","batch6","","null","<p class=block-text>Trial 52 out of 78</p>","null","pattern_show_trial_num","","","","","","","","","","","","","","","","","","","","","","","","",""
"","","","","","image-keyboard-response","125","332514","0.0-2.0-7.0-1.12","63ea729bf9951e30282eaae6","F1","batch6","","1525.2000000476837","stim/no_17_1_w.png","j","pattern_response","true","j","pattern_04","1525.2000000476837","true","45","","","","","","","","","","","","","","","","","","",""
"","","","","","html-keyboard-response","126","333826","0.0-2.0-7.0-0.13","63ea729bf9951e30282eaae6","F1","batch6","","null","<p class=block-text>Trial 53 out of 78</p>","null","pattern_show_trial_num","","","","","","","","","","","","","","","","","","","","","","","","",""
"","","","","","image-keyboard-response","127","337444","0.0-2.0-7.0-1.13","63ea729bf9951e30282eaae6","F1","batch6","","3606.600000023842","stim/no_50_1.png","j","pattern_response","true","j","pattern_30","3606.600000023842","true","46","","","","","","","","","","","","","","","","","","",""
"","","","","","html-keyboard-response","128","338754","0.0-2.0-7.0-0.14","63ea729bf9951e30282eaae6","F1","batch6","","null","<p class=block-text>Trial 54 out of 78</p>","null","pattern_show_trial_num","","","","","","","","","","","","","","","","","","","","","","","","",""
"","","","","","image-keyboard-response","129","342014","0.0-2.0-7.0-1.14","63ea729bf9951e30282eaae6","F1","batch6","","3257.899999976158","stim/no_44_1.png","j","pattern_response","true","j","pattern_24","3257.899999976158","true","47","","","","","","","","","","","","","","","","","","",""
"","","","","","html-keyboard-response","130","343334","0.0-2.0-7.0-0.15","63ea729bf9951e30282eaae6","F1","batch6","","null","<p class=block-text>Trial 55 out of 78</p>","null","pattern_show_trial_num","","","","","","","","","","","","","","","","","","","","","","","","",""
"","","","","","image-keyboard-response","131","344452","0.0-2.0-7.0-1.15","63ea729bf9951e30282eaae6","F1","batch6","","1114.8000000715256","stim/yes_29_ver_w1.png","f","pattern_response","true","f","pattern_53","1114.8000000715256","true","48","","","","","","","","","","","","","","","","","","",""
"","","","","","html-keyboard-response","132","345767","0.0-2.0-7.0-0.16","63ea729bf9951e30282eaae6","F1","batch6","","null","<p class=block-text>Trial 56 out of 78</p>","null","pattern_show_trial_num","","","","","","","","","","","","","","","","","","","","","","","","",""
"","","","","","image-keyboard-response","133","349629","0.0-2.0-7.0-1.16","63ea729bf9951e30282eaae6","F1","batch6","","3860.5","stim/yes_52_ver_w1.png","j","pattern_response","false","f","pattern_73","3860.5","false","48","","","","","","","","","","","","","","","","","","",""
"","","","","","html-keyboard-response","134","350950","0.0-2.0-7.0-0.17","63ea729bf9951e30282eaae6","F1","batch6","","null","<p class=block-text>Trial 57 out of 78</p>","null","pattern_show_trial_num","","","","","","","","","","","","","","","","","","","","","","","","",""
"","","","","","image-keyboard-response","135","352657","0.0-2.0-7.0-1.17","63ea729bf9951e30282eaae6","F1","batch6","","1701.6000000238419","stim/no_32_1_w.png","j","pattern_response","true","j","pattern_14","1701.6000000238419","true","49","","","","","","","","","","","","","","","","","","",""
"","","","","","html-keyboard-response","136","353977","0.0-2.0-7.0-0.18","63ea729bf9951e30282eaae6","F1","batch6","","null","<p class=block-text>Trial 58 out of 78</p>","null","pattern_show_trial_num","","","","","","","","","","","","","","","","","","","","","","","","",""
"","","","","","image-keyboard-response","137","355106","0.0-2.0-7.0-1.18","63ea729bf9951e30282eaae6","F1","batch6","","1123.7000000476837","stim/yes_22_ver_w1.png","f","pattern_response","true","f","pattern_47","1123.7000000476837","true","50","","","","","","","","","","","","","","","","","","",""
"","","","","","html-keyboard-response","138","356420","0.0-2.0-7.0-0.19","63ea729bf9951e30282eaae6","F1","batch6","","null","<p class=block-text>Trial 59 out of 78</p>","null","pattern_show_trial_num","","","","","","","","","","","","","","","","","","","","","","","","",""
"","","","","","image-keyboard-response","139","358271","0.0-2.0-7.0-1.19","63ea729bf9951e30282eaae6","F1","batch6","","1847.0999999046326","stim/yes_37_dia_w1.png","f","pattern_response","true","f","pattern_59","1847.0999999046326","true","51","","","","","","","","","","","","","","","","","","",""
"","","","","","html-keyboard-response","140","359593","0.0-2.0-7.0-0.20","63ea729bf9951e30282eaae6","F1","batch6","","null","<p class=block-text>Trial 60 out of 78</p>","null","pattern_show_trial_num","","","","","","","","","","","","","","","","","","","","","","","","",""
"","","","","","image-keyboard-response","141","361471","0.0-2.0-7.0-1.20","63ea729bf9951e30282eaae6","F1","batch6","","1875.2000000476837","stim/no_29_1_b.png","j","pattern_response","true","j","pattern_12","1875.2000000476837","true","52","","","","","","","","","","","","","","","","","","",""
"","","","","","html-keyboard-response","142","362793","0.0-2.0-7.0-0.21","63ea729bf9951e30282eaae6","F1","batch6","","null","<p class=block-text>Trial 61 out of 78</p>","null","pattern_show_trial_num","","","","","","","","","","","","","","","","","","","","","","","","",""
"","","","","","image-keyboard-response","143","365787","0.0-2.0-7.0-1.21","63ea729bf9951e30282eaae6","F1","batch6","","2990.100000023842","stim/yes_31_hor_b1.png","f","pattern_response","true","f","pattern_55","2990.100000023842","true","53","","","","","","","","","","","","","","","","","","",""
"","","","","","html-keyboard-response","144","367117","0.0-2.0-7.0-0.22","63ea729bf9951e30282eaae6","F1","batch6","","null","<p class=block-text>Trial 62 out of 78</p>","null","pattern_show_trial_num","","","","","","","","","","","","","","","","","","","","","","","","",""
"","","","","","image-keyboard-response","145","369990","0.0-2.0-7.0-1.22","63ea729bf9951e30282eaae6","F1","batch6","","2867.600000023842","stim/no_42_1_w.png","j","pattern_response","true","j","pattern_22","2867.600000023842","true","54","","","","","","","","","","","","","","","","","","",""
"","","","","","html-keyboard-response","146","371300","0.0-2.0-7.0-0.23","63ea729bf9951e30282eaae6","F1","batch6","","null","<p class=block-text>Trial 63 out of 78</p>","null","pattern_show_trial_num","","","","","","","","","","","","","","","","","","","","","","","","",""
"","","","","","image-keyboard-response","147","372686","0.0-2.0-7.0-1.23","63ea729bf9951e30282eaae6","F1","batch6","","1382.3000000715256","stim/no_20_1_w.png","j","pattern_response","true","j","pattern_06","1382.3000000715256","true","55","","","","","","","","","","","","","","","","","","",""
"","","","","","html-keyboard-response","148","374010","0.0-2.0-7.0-0.24","63ea729bf9951e30282eaae6","F1","batch6","","null","<p class=block-text>Trial 64 out of 78</p>","null","pattern_show_trial_num","","","","","","","","","","","","","","","","","","","","","","","","",""
"","","","","","image-keyboard-response","149","376026","0.0-2.0-7.0-1.24","63ea729bf9951e30282eaae6","F1","batch6","","2013","stim/yes_38_hor_b1_b.png","f","pattern_response","true","f","pattern_61","2013","true","56","","","","","","","","","","","","","","","","","","",""
"","","","","","html-keyboard-response","150","377345","0.0-2.0-7.0-0.25","63ea729bf9951e30282eaae6","F1","batch6","","null","<p class=block-text>Trial 65 out of 78</p>","null","pattern_show_trial_num","","","","","","","","","","","","","","","","","","","","","","","","",""
"","","","","","image-keyboard-response","151","378057","0.0-2.0-7.0-1.25","63ea729bf9951e30282eaae6","F1","batch6","","708.3999999761581","stim/yes_14_hor_b1_w.png","f","pattern_response","true","f","pattern_43","708.3999999761581","true","57","","","","","","","","","","","","","","","","","","",""
"","","","","","html-keyboard-response","152","379376","0.0-2.0-7.0-0.26","63ea729bf9951e30282eaae6","F1","batch6","","null","<p class=block-text>Trial 66 out of 78</p>","null","pattern_show_trial_num","","","","","","","","","","","","","","","","","","","","","","","","",""
"","","","","","image-keyboard-response","153","380494","0.0-2.0-7.0-1.26","63ea729bf9951e30282eaae6","F1","batch6","","1115.3999999761581","stim/yes_17_dia_w1.png","f","pattern_response","true","f","pattern_45","1115.3999999761581","true","58","","","","","","","","","","","","","","","","","","",""
"","","","","","html-keyboard-response","154","381813","0.0-2.0-7.0-0.27","63ea729bf9951e30282eaae6","F1","batch6","","null","<p class=block-text>Trial 67 out of 78</p>","null","pattern_show_trial_num","","","","","","","","","","","","","","","","","","","","","","","","",""
"","","","","","image-keyboard-response","155","384546","0.0-2.0-7.0-1.27","63ea729bf9951e30282eaae6","F1","batch6","","2729.7000000476837","stim/no_34_1_b.png","j","pattern_response","true","j","pattern_16","2729.7000000476837","true","59","","","","","","","","","","","","","","","","","","",""
"","","","","","html-keyboard-response","156","385860","0.0-2.0-7.0-0.28","63ea729bf9951e30282eaae6","F1","batch6","","null","<p class=block-text>Trial 68 out of 78</p>","null","pattern_show_trial_num","","","","","","","","","","","","","","","","","","","","","","","","",""
"","","","","","image-keyboard-response","157","388159","0.0-2.0-7.0-1.28","63ea729bf9951e30282eaae6","F1","batch6","","2295","stim/yes_45_hor_b2_b.png","f","pattern_response","true","f","pattern_67","2295","true","60","","","","","","","","","","","","","","","","","","",""
"","","","","","html-keyboard-response","158","389474","0.0-2.0-7.0-0.29","63ea729bf9951e30282eaae6","F1","batch6","","null","<p class=block-text>Trial 69 out of 78</p>","null","pattern_show_trial_num","","","","","","","","","","","","","","","","","","","","","","","","",""
"","","","","","image-keyboard-response","159","390253","0.0-2.0-7.0-1.29","63ea729bf9951e30282eaae6","F1","batch6","","775.3000000715256","stim/yes_25_hor_b1_b.png","f","pattern_response","true","f","pattern_49","775.3000000715256","true","61","","","","","","","","","","","","","","","","","","",""
"","","","","","html-keyboard-response","160","391577","0.0-2.0-7.0-0.30","63ea729bf9951e30282eaae6","F1","batch6","","null","<p class=block-text>Trial 70 out of 78</p>","null","pattern_show_trial_num","","","","","","","","","","","","","","","","","","","","","","","","",""
"","","","","","image-keyboard-response","161","394407","0.0-2.0-7.0-1.30","63ea729bf9951e30282eaae6","F1","batch6","","2827","stim/no_46_1_b.png","j","pattern_response","true","j","pattern_26","2827","true","62","","","","","","","","","","","","","","","","","","",""
"","","","","","html-keyboard-response","162","395719","0.0-2.0-7.0-0.31","63ea729bf9951e30282eaae6","F1","batch6","","null","<p class=block-text>Trial 71 out of 78</p>","null","pattern_show_trial_num","","","","","","","","","","","","","","","","","","","","","","","","",""
"","","","","","image-keyboard-response","163","396645","0.0-2.0-7.0-1.31","63ea729bf9951e30282eaae6","F1","batch6","","923.2000000476837","stim/yes_28_ver_b1.png","f","pattern_response","true","f","pattern_51","923.2000000476837","true","63","","","","","","","","","","","","","","","","","","",""
"","","","","","html-keyboard-response","164","397975","0.0-2.0-7.0-0.32","63ea729bf9951e30282eaae6","F1","batch6","","null","<p class=block-text>Trial 72 out of 78</p>","null","pattern_show_trial_num","","","","","","","","","","","","","","","","","","","","","","","","",""
"","","","","","image-keyboard-response","165","400843","0.0-2.0-7.0-1.32","63ea729bf9951e30282eaae6","F1","batch6","","2864.1999999284744","stim/no_52_1.png","j","pattern_response","true","j","pattern_32","2864.1999999284744","true","64","","","","","","","","","","","","","","","","","","",""
"","","","","","html-keyboard-response","166","402158","0.0-2.0-7.0-0.33","63ea729bf9951e30282eaae6","F1","batch6","","null","<p class=block-text>Trial 73 out of 78</p>","null","pattern_show_trial_num","","","","","","","","","","","","","","","","","","","","","","","","",""
"","","","","","image-keyboard-response","167","403643","0.0-2.0-7.0-1.33","63ea729bf9951e30282eaae6","F1","batch6","","1481.7000000476837","stim/yes_55_hor_w1_w.png","f","pattern_response","true","f","pattern_75","1481.7000000476837","true","65","","","","","","","","","","","","","","","","","","",""
"","","","","","html-keyboard-response","168","404962","0.0-2.0-7.0-0.34","63ea729bf9951e30282eaae6","F1","batch6","","null","<p class=block-text>Trial 74 out of 78</p>","null","pattern_show_trial_num","","","","","","","","","","","","","","","","","","","","","","","","",""
"","","","","","image-keyboard-response","169","407016","0.0-2.0-7.0-1.34","63ea729bf9951e30282eaae6","F1","batch6","","2049.7000000476837","stim/no_36_2_w.png","j","pattern_response","true","j","pattern_18","2049.7000000476837","true","66","","","","","","","","","","","","","","","","","","",""
"","","","","","html-keyboard-response","170","408331","0.0-2.0-7.0-0.35","63ea729bf9951e30282eaae6","F1","batch6","","null","<p class=block-text>Trial 75 out of 78</p>","null","pattern_show_trial_num","","","","","","","","","","","","","","","","","","","","","","","","",""
"","","","","","image-keyboard-response","171","410271","0.0-2.0-7.0-1.35","63ea729bf9951e30282eaae6","F1","batch6","","1937.2000000476837","stim/yes_40_dia_b1_b.png","f","pattern_response","true","f","pattern_63","1937.2000000476837","true","67","","","","","","","","","","","","","","","","","","",""
"","","","","","html-keyboard-response","172","411590","0.0-2.0-7.0-0.36","63ea729bf9951e30282eaae6","F1","batch6","","null","<p class=block-text>Trial 76 out of 78</p>","null","pattern_show_trial_num","","","","","","","","","","","","","","","","","","","","","","","","",""
"","","","","","image-keyboard-response","173","414417","0.0-2.0-7.0-1.36","63ea729bf9951e30282eaae6","F1","batch6","","2824.100000023842","stim/no_62_1_w.png","j","pattern_response","true","j","pattern_36","2824.100000023842","true","68","","","","","","","","","","","","","","","","","","",""
"","","","","","html-keyboard-response","174","415732","0.0-2.0-7.0-0.37","63ea729bf9951e30282eaae6","F1","batch6","","null","<p class=block-text>Trial 77 out of 78</p>","null","pattern_show_trial_num","","","","","","","","","","","","","","","","","","","","","","","","",""
"","","","","","image-keyboard-response","175","418287","0.0-2.0-7.0-1.37","63ea729bf9951e30282eaae6","F1","batch6","","2551.600000023842","stim/no_48_1_w.png","j","pattern_response","true","j","pattern_28","2551.600000023842","true","69","","","","","","","","","","","","","","","","","","",""
"","","","","","html-keyboard-response","176","419596","0.0-2.0-7.0-0.38","63ea729bf9951e30282eaae6","F1","batch6","","null","<p class=block-text>Trial 78 out of 78</p>","null","pattern_show_trial_num","","","","","","","","","","","","","","","","","","","","","","","","",""
"","","","","","image-keyboard-response","177","421706","0.0-2.0-7.0-1.38","63ea729bf9951e30282eaae6","F1","batch6","","2106.6999999284744","stim/yes_60_ver_b1_b.png","f","pattern_response","true","f","pattern_77","2106.6999999284744","true","70","","","","","","","","","","","","","","","","","","",""
"","","","","","html-button-response","178","426306","0.0-2.0-8.0","63ea729bf9951e30282eaae6","F1","batch6","","4092.5","<p class = block-text>This concludes the 4-in-a-row detection game.Thank you for your responses!<br>
            You responded correctly on 90% of the trials.<br>
            When you are ready, press ""Continue"" button to continue </p>","0","","","","","","","","","","","","","","","","","","","","","","","","","",""
"true","","","","","fullscreen","179","429534","0.0-3.0-0.0","63ea729bf9951e30282eaae6","F1","batch6","","","","","","","","","","","","","","","","","","","","","","","","","","","","","",""
"","","","","","instructions","180","493936","0.0-3.0-1.0-0.0-0.0","63ea729bf9951e30282eaae6","F1","batch6","[{""page_index"":0,""viewing_time"":14118.599999904633},{""page_index"":1,""viewing_time"":7476},{""page_index"":2,""viewing_time"":7292.800000071526},{""page_index"":3,""viewing_time"":13050.399999976158},{""page_index"":4,""viewing_time"":7508.700000047684},{""page_index"":5,""viewing_time"":10837.399999976158},{""page_index"":6,""viewing_time"":4117.5}]","64401.699999928474","","","tol-instructions","","","","","","","","","","","","","","","","","","","","","","","","",""
"","","","","","html-button-response","181","495196","0.0-3.0-1.0-1.0-0.0","63ea729bf9951e30282eaae6","F1","batch6","","1259","<p class=block-text> Let's answer a few questions <br>","0","tol_enter_quiz","","","","","","","","","","","","","","","","","","","","","","","","",""
"","","","","","html-button-response","182","499794","0.0-3.0-1.0-1.0-1.0","63ea729bf9951e30282eaae6","F1","batch6","","4596.899999976158","<p class = block-text>True or False: You can only move the ball on top of a peg. <br></p>","0","tol_quiz","true","","","","","","","","","","","","","","","","","","","","","","","",""
"","","","","","html-button-response","183","501399","0.0-3.0-1.0-1.0-2.0","63ea729bf9951e30282eaae6","F1","batch6","","1604.2999999523163","<p class = block-text>Correct! You can only move the ball on top of a peg.</p>","0","tol_quiz_feedback","","","","","","","","","","","","","","","","","","","","","","","","",""
"","","","","","html-button-response","184","504234","0.0-3.0-1.0-1.0-3.0","63ea729bf9951e30282eaae6","F1","batch6","","2834.1999999284744","<p class = block-text>True or False: You should try to match your board with the target board with fewest moves possible. <br></p>","0","tol_quiz","true","","","","","","","","","","","","","","","","","","","","","","","",""
"","","","","","html-button-response","185","505329","0.0-3.0-1.0-1.0-4.0","63ea729bf9951e30282eaae6","F1","batch6","","1094.1999999284744","<p class = block-text>Correct! </p>","0","tol_quiz_feedback","","","","","","","","","","","","","","","","","","","","","","","","",""
"","","","","","html-button-response","186","507212","0.0-3.0-2.0","63ea729bf9951e30282eaae6","F1","batch6","","1881.5","<p class=block-text> Now that you've understood the game, let's practice a few easier examples before we start!<br> <br>","0","","","","","","","","","","","","","","","","","","","","","","","","","",""
"","","","","","single-stim-button","187","509702","0.0-3.0-3.0-0.0","63ea729bf9951e30282eaae6","F1","batch6","","2489","","","tol_practice","","","","","","","","","tol_peg_2","2489","2489","0","[[1,2,0],[0,0],[0]]","1","[[1,2,0],[0,0],[3]]","practice","2489","","","","","","","",""
"","","","","","single-stim-button","188","511230","0.0-3.0-3.0-1.0","63ea729bf9951e30282eaae6","F1","batch6","","1527","","","tol_practice","","","","","","","","","tol_peg_3","1527","1527","0","[[1,2,0],[0,0],[3]]","1","[[1,2,0],[0,0],[3]]","practice","1527","","","","","","","",""
"","","","","","poldrack-single-stim","189","512240","0.0-3.0-4.0","63ea729bf9951e30282eaae6","F1","batch6","","-1","","","tol_feedback","true","","","","","","","","","1000","1000","500","","","","","","-1","none","true","","0","","",""
"","","","","","single-stim-button","190","517809","0.0-3.0-5.0-0.0","63ea729bf9951e30282eaae6","F1","batch6","","5568","","","tol_practice","","","","","","","","","tol_peg_1","5568","5568","0","[[1,0,0],[3,0],[0]]","2","[[0,0,0],[3,1],[2]]","practice","5568","","","","","","","",""
"","","","","","single-stim-button","191","519024","0.0-3.0-5.0-1.0","63ea729bf9951e30282eaae6","F1","batch6","","1213","","","tol_practice","","","","","","","","","tol_peg_3","1213","1213","0","[[1,0,0],[3,0],[2]]","2","[[0,0,0],[3,1],[2]]","practice","1213","","","","","","","",""
"","","","","","single-stim-button","192","520262","0.0-3.0-5.1-0.1","63ea729bf9951e30282eaae6","F1","batch6","","1237","","","tol_practice","","","","","","","","","tol_peg_1","1237","1237","0","[[0,0,0],[3,0],[2]]","3","[[0,0,0],[3,1],[2]]","practice","1237","","","","","","","",""
"","","","","","single-stim-button","193","521229","0.0-3.0-5.1-1.1","63ea729bf9951e30282eaae6","F1","batch6","","967","","","tol_practice","","","","","","","","","tol_peg_2","967","967","0","[[0,0,0],[3,1],[2]]","3","[[0,0,0],[3,1],[2]]","practice","967","","","","","","","",""
"","","","","","poldrack-single-stim","194","522235","0.0-3.0-6.0","63ea729bf9951e30282eaae6","F1","batch6","","-1","","","tol_feedback","true","","","","","","","","","1000","1000","500","","","","","","-1","none","true","","0","","",""
"","","","","","single-stim-button","195","525257","0.0-3.0-7.0-0.0","63ea729bf9951e30282eaae6","F1","batch6","","3021","","","tol_practice","","","","","","","","","tol_peg_2","3021","3021","0","[[1,2,0],[0,0],[0]]","4","[[1,0,0],[2,0],[3]]","practice","3021","","","","","","","",""
"","","","","","single-stim-button","196","526194","0.0-3.0-7.0-1.0","63ea729bf9951e30282eaae6","F1","batch6","","937","","","tol_practice","","","","","","","","","tol_peg_3","937","937","0","[[1,2,0],[0,0],[3]]","4","[[1,0,0],[2,0],[3]]","practice","937","","","","","","","",""
"","","","","","single-stim-button","197","527282","0.0-3.0-7.1-0.1","63ea729bf9951e30282eaae6","F1","batch6","","1087","","","tol_practice","","","","","","","","","tol_peg_1","1087","1087","0","[[1,0,0],[0,0],[3]]","5","[[1,0,0],[2,0],[3]]","practice","1087","","","","","","","",""
"","","","","","single-stim-button","198","528572","0.0-3.0-7.1-1.1","63ea729bf9951e30282eaae6","F1","batch6","","1289","","","tol_practice","","","","","","","","","tol_peg_2","1289","1289","0","[[1,0,0],[2,0],[3]]","5","[[1,0,0],[2,0],[3]]","practice","1289","","","","","","","",""
"","","","","","poldrack-single-stim","199","529587","0.0-3.0-8.0","63ea729bf9951e30282eaae6","F1","batch6","","-1","","","tol_feedback","true","","","","","","","","","1000","1000","500","","","","","","-1","none","true","","0","","",""
"","","","","","html-button-response","200","533281","0.0-3.0-9.0","63ea729bf9951e30282eaae6","F1","batch6","","3692.5","<div class = centerbox><p class = center-block-text>Great job! You are done with practice trials<br>You are about to start official trials.<br> <br> Problem <strong>1</strong> out of 25 problems</p></div>","0","tol_instruction","","","","","","","","","","","","","","","","","","","","","","","","",""
"","","","","","single-stim-button","201","546250","0.0-3.0-10.0-0.0","63ea729bf9951e30282eaae6","F1","batch6","","11965","","","tol_tohand","","","","","","","","","tol_peg_1","11965","11965","0","[[1,0,0],[3,0],[0]]","1","[[1,3,0],[2,0],[0]]","0","0","","","","","","3","",""
"","","","","","single-stim-button","202","547847","0.0-3.0-10.0-1.0","63ea729bf9951e30282eaae6","F1","batch6","","1596","","","tol_toboard","","","","","","","","","tol_peg_3","1596","1596","0","[[1,0,0],[3,0],[2]]","1","[[1,3,0],[2,0],[0]]","0","0","","","","","","3","",""
"","","","","","single-stim-button","203","549175","0.0-3.0-10.1-0.1","63ea729bf9951e30282eaae6","F1","batch6","","1327","","","tol_tohand","","","","","","","","","tol_peg_2","1327","1327","0","[[1,0,0],[0,0],[2]]","2","[[1,3,0],[2,0],[0]]","0","0","","","","","","3","",""
"","","","","","single-stim-button","204","550859","0.0-3.0-10.1-1.1","63ea729bf9951e30282eaae6","F1","batch6","","1684","","","tol_toboard","","","","","","","","","tol_peg_1","1684","1684","0","[[1,3,0],[0,0],[2]]","2","[[1,3,0],[2,0],[0]]","0","0","","","","","","3","",""
"","","","","","single-stim-button","205","551800","0.0-3.0-10.2-0.2","63ea729bf9951e30282eaae6","F1","batch6","","941","","","tol_tohand","","","","","","","","","tol_peg_3","941","941","0","[[1,3,0],[0,0],[0]]","3","[[1,3,0],[2,0],[0]]","0","0","","","","","","3","",""
"","","","","","single-stim-button","206","552782","0.0-3.0-10.2-1.2","63ea729bf9951e30282eaae6","F1","batch6","","981","","","tol_toboard","","","","","","","","","tol_peg_2","981","981","0","[[1,3,0],[2,0],[0]]","3","[[1,3,0],[2,0],[0]]","0","0","","","","","","3","",""
"","","","","","poldrack-single-stim","207","553791","0.0-3.0-11.0","63ea729bf9951e30282eaae6","F1","batch6","","-1","","","tol_feedback","true","","","","","","","","","1000","1000","500","","","","","","-1","none","true","11965","14233","","",""
"","","","","","html-button-response","208","555107","0.0-3.0-12.0","63ea729bf9951e30282eaae6","F1","batch6","","1315.5","<div class = centerbox><p class = center-block-text>problem <strong>2</strong> out of 25 problems</p></div>","0","tol_trial_num","","","","","","","","","","","","","","","","","","","","","","","","",""
"","","","","","single-stim-button","209","566463","0.0-3.0-13.0-0.0","63ea729bf9951e30282eaae6","F1","batch6","","11355","","","tol_tohand","","","","","","","","","tol_peg_2","11355","11355","0","[[1,2,0],[0,0],[0]]","1","[[2,1,3],[0,0],[0]]","1","0","","","","","","5","",""
"","","","","","single-stim-button","210","567821","0.0-3.0-13.0-1.0","63ea729bf9951e30282eaae6","F1","batch6","","1356","","","tol_toboard","","","","","","","","","tol_peg_3","1356","1356","0","[[1,2,0],[0,0],[3]]","1","[[2,1,3],[0,0],[0]]","1","0","","","","","","5","",""
"","","","","","single-stim-button","211","569148","0.0-3.0-13.1-0.1","63ea729bf9951e30282eaae6","F1","batch6","","1327","","","tol_tohand","","","","","","","","","tol_peg_1","1327","1327","0","[[1,0,0],[0,0],[3]]","2","[[2,1,3],[0,0],[0]]","1","0","","","","","","5","",""
"","","","","","single-stim-button","212","575822","0.0-3.0-13.1-1.1","63ea729bf9951e30282eaae6","F1","batch6","","6674","","","tol_toboard","","","","","","","","","tol_peg_2","6674","6674","0","[[1,0,0],[2,0],[3]]","2","[[2,1,3],[0,0],[0]]","1","0","","","","","","5","",""
"","","","","","single-stim-button","213","580196","0.0-3.0-13.2-0.2","63ea729bf9951e30282eaae6","F1","batch6","","4373","","","tol_tohand","","","","","","","","","tol_peg_3","4373","4373","0","[[1,0,0],[2,0],[0]]","3","[[2,1,3],[0,0],[0]]","1","0","","","","","","5","",""
"","","","","","single-stim-button","214","581328","0.0-3.0-13.2-1.2","63ea729bf9951e30282eaae6","F1","batch6","","1132","","","tol_toboard","","","","","","","","","tol_peg_1","1132","1132","0","[[1,3,0],[2,0],[0]]","3","[[2,1,3],[0,0],[0]]","1","0","","","","","","5","",""
"","","","","","single-stim-button","215","583113","0.0-3.0-13.3-0.3","63ea729bf9951e30282eaae6","F1","batch6","","1785","","","tol_tohand","","","","","","","","","tol_peg_1","1785","1785","0","[[1,0,0],[2,0],[0]]","4","[[2,1,3],[0,0],[0]]","1","0","","","","","","5","",""
"","","","","","single-stim-button","216","585521","0.0-3.0-13.3-1.3","63ea729bf9951e30282eaae6","F1","batch6","","2407","","","tol_toboard","","","","","","","","","tol_peg_2","2407","2407","0","[[1,0,0],[2,3],[0]]","4","[[2,1,3],[0,0],[0]]","1","0","","","","","","5","",""
"","","","","","single-stim-button","217","587253","0.0-3.0-13.4-0.4","63ea729bf9951e30282eaae6","F1","batch6","","1732","","","tol_tohand","","","","","","","","","tol_peg_1","1732","1732","0","[[0,0,0],[2,3],[0]]","5","[[2,1,3],[0,0],[0]]","1","0","","","","","","5","",""
"","","","","","single-stim-button","218","588498","0.0-3.0-13.4-1.4","63ea729bf9951e30282eaae6","F1","batch6","","1244","","","tol_toboard","","","","","","","","","tol_peg_3","1244","1244","0","[[0,0,0],[2,3],[1]]","5","[[2,1,3],[0,0],[0]]","1","0","","","","","","5","",""
"","","","","","single-stim-button","219","590171","0.0-3.0-13.5-0.5","63ea729bf9951e30282eaae6","F1","batch6","","1673","","","tol_tohand","","","","","","","","","tol_peg_2","1673","1673","0","[[0,0,0],[2,0],[1]]","6","[[2,1,3],[0,0],[0]]","1","0","","","","","","5","",""
"","","","","","single-stim-button","220","594468","0.0-3.0-13.5-1.5","63ea729bf9951e30282eaae6","F1","batch6","","4297","","","tol_toboard","","","","","","","","","tol_peg_1","4297","4297","0","[[3,0,0],[2,0],[1]]","6","[[2,1,3],[0,0],[0]]","1","0","","","","","","5","",""
"","","","","","single-stim-button","221","595345","0.0-3.0-13.6-0.6","63ea729bf9951e30282eaae6","F1","batch6","","876","","","tol_tohand","","","","","","","","","tol_peg_2","876","876","0","[[3,0,0],[0,0],[1]]","7","[[2,1,3],[0,0],[0]]","1","0","","","","","","5","",""
"","","","","","single-stim-button","222","602096","0.0-3.0-13.6-1.6","63ea729bf9951e30282eaae6","F1","batch6","","6750","","","tol_toboard","","","","","","","","","tol_peg_2","6750","6750","0","[[3,0,0],[2,0],[1]]","7","[[2,1,3],[0,0],[0]]","1","0","","","","","","5","",""
"","","","","","single-stim-button","223","603056","0.0-3.0-13.7-0.7","63ea729bf9951e30282eaae6","F1","batch6","","960","","","tol_tohand","","","","","","","","","tol_peg_3","960","960","0","[[3,0,0],[2,0],[0]]","8","[[2,1,3],[0,0],[0]]","1","0","","","","","","5","",""
"","","","","","single-stim-button","224","604083","0.0-3.0-13.7-1.7","63ea729bf9951e30282eaae6","F1","batch6","","1026","","","tol_toboard","","","","","","","","","tol_peg_2","1026","1026","0","[[3,0,0],[2,1],[0]]","8","[[2,1,3],[0,0],[0]]","1","0","","","","","","5","",""
"","","","","","single-stim-button","225","604698","0.0-3.0-13.8-0.8","63ea729bf9951e30282eaae6","F1","batch6","","614","","","tol_tohand","","","","","","","","","tol_peg_1","614","614","0","[[0,0,0],[2,1],[0]]","9","[[2,1,3],[0,0],[0]]","1","0","","","","","","5","",""
"","","","","","single-stim-button","226","606266","0.0-3.0-13.8-1.8","63ea729bf9951e30282eaae6","F1","batch6","","1568","","","tol_toboard","","","","","","","","","tol_peg_3","1568","1568","0","[[0,0,0],[2,1],[3]]","9","[[2,1,3],[0,0],[0]]","1","0","","","","","","5","",""
"","","","","","single-stim-button","227","609274","0.0-3.0-13.9-0.9","63ea729bf9951e30282eaae6","F1","batch6","","3006","","","tol_tohand","","","","","","","","","tol_peg_2","3006","3006","0","[[0,0,0],[2,0],[3]]","10","[[2,1,3],[0,0],[0]]","1","0","","","","","","5","",""
"","","","","","single-stim-button","228","613481","0.0-3.0-13.9-1.9","63ea729bf9951e30282eaae6","F1","batch6","","4207","","","tol_toboard","","","","","","","","","tol_peg_1","4207","4207","0","[[1,0,0],[2,0],[3]]","10","[[2,1,3],[0,0],[0]]","1","0","","","","","","5","",""
"","","","","","single-stim-button","229","615807","0.0-3.0-13.10-0.10","63ea729bf9951e30282eaae6","F1","batch6","","2324","","","tol_tohand","","","","","","","","","tol_peg_2","2324","2324","0","[[1,0,0],[0,0],[3]]","11","[[2,1,3],[0,0],[0]]","1","0","","","","","","5","",""
"","","","","","single-stim-button","230","621904","0.0-3.0-13.10-1.10","63ea729bf9951e30282eaae6","F1","batch6","","6097","","","tol_toboard","","","","","","","","","tol_peg_1","6097","6097","0","[[1,2,0],[0,0],[3]]","11","[[2,1,3],[0,0],[0]]","1","0","","","","","","5","",""
"","","","","","single-stim-button","231","623772","0.0-3.0-13.11-0.11","63ea729bf9951e30282eaae6","F1","batch6","","1868","","","tol_tohand","","","","","","","","","tol_peg_3","1868","1868","0","[[1,2,0],[0,0],[0]]","12","[[2,1,3],[0,0],[0]]","1","0","","","","","","5","",""
"","","","","","single-stim-button","232","626982","0.0-3.0-13.11-1.11","63ea729bf9951e30282eaae6","F1","batch6","","3210","","","tol_toboard","","","","","","","","","tol_peg_2","3210","3210","0","[[1,2,0],[3,0],[0]]","12","[[2,1,3],[0,0],[0]]","1","0","","","","","","5","",""
"","","","","","single-stim-button","233","627919","0.0-3.0-13.12-0.12","63ea729bf9951e30282eaae6","F1","batch6","","937","","","tol_tohand","","","","","","","","","tol_peg_1","937","937","0","[[1,0,0],[3,0],[0]]","13","[[2,1,3],[0,0],[0]]","1","0","","","","","","5","",""
"","","","","","single-stim-button","234","629982","0.0-3.0-13.12-1.12","63ea729bf9951e30282eaae6","F1","batch6","","2063","","","tol_toboard","","","","","","","","","tol_peg_3","2063","2063","0","[[1,0,0],[3,0],[2]]","13","[[2,1,3],[0,0],[0]]","1","0","","","","","","5","",""
"","","","","","single-stim-button","235","630844","0.0-3.0-13.13-0.13","63ea729bf9951e30282eaae6","F1","batch6","","862","","","tol_tohand","","","","","","","","","tol_peg_1","862","862","0","[[0,0,0],[3,0],[2]]","14","[[2,1,3],[0,0],[0]]","1","0","","","","","","5","",""
"","","","","","single-stim-button","236","631759","0.0-3.0-13.13-1.13","63ea729bf9951e30282eaae6","F1","batch6","","914","","","tol_toboard","","","","","","","","","tol_peg_2","914","914","0","[[0,0,0],[3,1],[2]]","14","[[2,1,3],[0,0],[0]]","1","0","","","","","","5","",""
"","","","","","single-stim-button","237","632433","0.0-3.0-13.14-0.14","63ea729bf9951e30282eaae6","F1","batch6","","674","","","tol_tohand","","","","","","","","","tol_peg_3","674","674","0","[[0,0,0],[3,1],[0]]","15","[[2,1,3],[0,0],[0]]","1","0","","","","","","5","",""
"","","","","","single-stim-button","238","633568","0.0-3.0-13.14-1.14","63ea729bf9951e30282eaae6","F1","batch6","","1133","","","tol_toboard","","","","","","","","","tol_peg_1","1133","1133","0","[[2,0,0],[3,1],[0]]","15","[[2,1,3],[0,0],[0]]","1","0","","","","","","5","",""
"","","","","","single-stim-button","239","634279","0.0-3.0-13.15-0.15","63ea729bf9951e30282eaae6","F1","batch6","","711","","","tol_tohand","","","","","","","","","tol_peg_2","711","711","0","[[2,0,0],[3,0],[0]]","16","[[2,1,3],[0,0],[0]]","1","0","","","","","","5","",""
"","","","","","single-stim-button","240","635464","0.0-3.0-13.15-1.15","63ea729bf9951e30282eaae6","F1","batch6","","1183","","","tol_toboard","","","","","","","","","tol_peg_1","1183","1183","0","[[2,1,0],[3,0],[0]]","16","[[2,1,3],[0,0],[0]]","1","0","","","","","","5","",""
"","","","","","single-stim-button","241","636094","0.0-3.0-13.16-0.16","63ea729bf9951e30282eaae6","F1","batch6","","630","","","tol_tohand","","","","","","","","","tol_peg_2","630","630","0","[[2,1,0],[0,0],[0]]","17","[[2,1,3],[0,0],[0]]","1","0","","","","","","5","",""
"","","","","","single-stim-button","242","636971","0.0-3.0-13.16-1.16","63ea729bf9951e30282eaae6","F1","batch6","","876","","","tol_toboard","","","","","","","","","tol_peg_1","876","876","0","[[2,1,3],[0,0],[0]]","17","[[2,1,3],[0,0],[0]]","1","0","","","","","","5","",""
"","","","","","poldrack-single-stim","243","637977","0.0-3.0-14.0","63ea729bf9951e30282eaae6","F1","batch6","","-1","","","tol_feedback","true","","","","","","","","","1000","1000","500","","","","","","-1","none","true","11355","35707","","",""
"","","","","","html-button-response","244","639355","0.0-3.0-15.0","63ea729bf9951e30282eaae6","F1","batch6","","1377.3999999761581","<div class = centerbox><p class = center-block-text>problem <strong>3</strong> out of 25 problems</p></div>","0","tol_trial_num","","","","","","","","","","","","","","","","","","","","","","","","",""
"","","","","","single-stim-button","245","648002","0.0-3.0-16.0-0.0","63ea729bf9951e30282eaae6","F1","batch6","","8646","","","tol_tohand","","","","","","","","","tol_peg_1","8646","8646","0","[[2,0,0],[0,0],[1]]","1","[[1,2,0],[3,0],[0]]","2","0","","","","","","4","",""
"","","","","","single-stim-button","246","651297","0.0-3.0-16.0-1.0","63ea729bf9951e30282eaae6","F1","batch6","","3294","","","tol_toboard","","","","","","","","","tol_peg_2","3294","3294","0","[[2,0,0],[3,0],[1]]","1","[[1,2,0],[3,0],[0]]","2","0","","","","","","4","",""
"","","","","","single-stim-button","247","653284","0.0-3.0-16.1-0.1","63ea729bf9951e30282eaae6","F1","batch6","","1985","","","tol_tohand","","","","","","","","","tol_peg_1","1985","1985","0","[[0,0,0],[3,0],[1]]","2","[[1,2,0],[3,0],[0]]","2","0","","","","","","4","",""
"","","","","","single-stim-button","248","654161","0.0-3.0-16.1-1.1","63ea729bf9951e30282eaae6","F1","batch6","","877","","","tol_toboard","","","","","","","","","tol_peg_2","877","877","0","[[0,0,0],[3,2],[1]]","2","[[1,2,0],[3,0],[0]]","2","0","","","","","","4","",""
"","","","","","single-stim-button","249","654807","0.0-3.0-16.2-0.2","63ea729bf9951e30282eaae6","F1","batch6","","644","","","tol_tohand","","","","","","","","","tol_peg_3","644","644","0","[[0,0,0],[3,2],[0]]","3","[[1,2,0],[3,0],[0]]","2","0","","","","","","4","",""
"","","","","","single-stim-button","250","656112","0.0-3.0-16.2-1.2","63ea729bf9951e30282eaae6","F1","batch6","","1305","","","tol_toboard","","","","","","","","","tol_peg_1","1305","1305","0","[[1,0,0],[3,2],[0]]","3","[[1,2,0],[3,0],[0]]","2","0","","","","","","4","",""
"","","","","","single-stim-button","251","657147","0.0-3.0-16.3-0.3","63ea729bf9951e30282eaae6","F1","batch6","","1033","","","tol_tohand","","","","","","","","","tol_peg_2","1033","1033","0","[[1,0,0],[3,0],[0]]","4","[[1,2,0],[3,0],[0]]","2","0","","","","","","4","",""
"","","","","","single-stim-button","252","657874","0.0-3.0-16.3-1.3","63ea729bf9951e30282eaae6","F1","batch6","","727","","","tol_toboard","","","","","","","","","tol_peg_1","727","727","0","[[1,2,0],[3,0],[0]]","4","[[1,2,0],[3,0],[0]]","2","0","","","","","","4","",""
"","","","","","poldrack-single-stim","253","658882","0.0-3.0-17.0","63ea729bf9951e30282eaae6","F1","batch6","","-1","","","tol_feedback","true","","","","","","","","","1000","1000","500","","","","","","-1","none","true","8646","12308","","",""
"","","","","","html-button-response","254","659915","0.0-3.0-18.0","63ea729bf9951e30282eaae6","F1","batch6","","1032","<div class = centerbox><p class = center-block-text>problem <strong>4</strong> out of 25 problems</p></div>","0","tol_trial_num","","","","","","","","","","","","","","","","","","","","","","","","",""
"","","","","","single-stim-button","255","668083","0.0-3.0-19.0-0.0","63ea729bf9951e30282eaae6","F1","batch6","","8167","","","tol_tohand","","","","","","","","","tol_peg_2","8167","8167","0","[[3,0,0],[2,0],[0]]","1","[[3,0,0],[1,0],[2]]","3","0","","","","","","3","",""
"","","","","","single-stim-button","256","669875","0.0-3.0-19.0-1.0","63ea729bf9951e30282eaae6","F1","batch6","","1790","","","tol_toboard","","","","","","","","","tol_peg_1","1790","1790","0","[[3,1,0],[2,0],[0]]","1","[[3,0,0],[1,0],[2]]","3","0","","","","","","3","",""
"","","","","","single-stim-button","257","670692","0.0-3.0-19.1-0.1","63ea729bf9951e30282eaae6","F1","batch6","","817","","","tol_tohand","","","","","","","","","tol_peg_2","817","817","0","[[3,1,0],[0,0],[0]]","2","[[3,0,0],[1,0],[2]]","3","0","","","","","","3","",""
"","","","","","single-stim-button","258","671885","0.0-3.0-19.1-1.1","63ea729bf9951e30282eaae6","F1","batch6","","1192","","","tol_toboard","","","","","","","","","tol_peg_3","1192","1192","0","[[3,1,0],[0,0],[2]]","2","[[3,0,0],[1,0],[2]]","3","0","","","","","","3","",""
"","","","","","single-stim-button","259","672642","0.0-3.0-19.2-0.2","63ea729bf9951e30282eaae6","F1","batch6","","757","","","tol_tohand","","","","","","","","","tol_peg_1","757","757","0","[[3,0,0],[0,0],[2]]","3","[[3,0,0],[1,0],[2]]","3","0","","","","","","3","",""
"","","","","","single-stim-button","260","673505","0.0-3.0-19.2-1.2","63ea729bf9951e30282eaae6","F1","batch6","","862","","","tol_toboard","","","","","","","","","tol_peg_2","862","862","0","[[3,0,0],[1,0],[2]]","3","[[3,0,0],[1,0],[2]]","3","0","","","","","","3","",""
"","","","","","poldrack-single-stim","261","674515","0.0-3.0-20.0","63ea729bf9951e30282eaae6","F1","batch6","","-1","","","tol_feedback","true","","","","","","","","","1000","1000","500","","","","","","-1","none","true","8167","9741","","",""
"","","","","","html-button-response","262","676655","0.0-3.0-21.0","63ea729bf9951e30282eaae6","F1","batch6","","2138.5","<div class = centerbox><p class = center-block-text>problem <strong>5</strong> out of 25 problems</p></div>","0","tol_trial_num","","","","","","","","","","","","","","","","","","","","","","","","",""
"","","","","","single-stim-button","263","683644","0.0-3.0-22.0-0.0","63ea729bf9951e30282eaae6","F1","batch6","","6989","","","tol_tohand","","","","","","","","","tol_peg_2","6989","6989","0","[[1,0,0],[0,0],[3]]","1","[[0,0,0],[1,2],[3]]","4","0","","","","","","7","",""
"","","","","","single-stim-button","264","691752","0.0-3.0-22.0-1.0","63ea729bf9951e30282eaae6","F1","batch6","","8108","","","tol_toboard","","","","","","","","","tol_peg_1","8108","8108","0","[[1,2,0],[0,0],[3]]","1","[[0,0,0],[1,2],[3]]","4","0","","","","","","7","",""
"","","","","","single-stim-button","265","694070","0.0-3.0-22.1-0.1","63ea729bf9951e30282eaae6","F1","batch6","","2317","","","tol_tohand","","","","","","","","","tol_peg_3","2317","2317","0","[[1,2,0],[0,0],[0]]","2","[[0,0,0],[1,2],[3]]","4","0","","","","","","7","",""
"","","","","","single-stim-button","266","695015","0.0-3.0-22.1-1.1","63ea729bf9951e30282eaae6","F1","batch6","","945","","","tol_toboard","","","","","","","","","tol_peg_2","945","945","0","[[1,2,0],[3,0],[0]]","2","[[0,0,0],[1,2],[3]]","4","0","","","","","","7","",""
"","","","","","single-stim-button","267","715465","0.0-3.0-22.2-0.2","63ea729bf9951e30282eaae6","F1","batch6","","20449","","","tol_tohand","","","","","","","","","tol_peg_1","20449","20449","0","[[1,0,0],[3,0],[0]]","3","[[0,0,0],[1,2],[3]]","4","0","","","","","","7","",""
"","","","","","single-stim-button","268","716729","0.0-3.0-22.2-1.2","63ea729bf9951e30282eaae6","F1","batch6","","1263","","","tol_toboard","","","","","","","","","tol_peg_3","1263","1263","0","[[1,0,0],[3,0],[2]]","3","[[0,0,0],[1,2],[3]]","4","0","","","","","","7","",""
"","","","","","single-stim-button","269","720180","0.0-3.0-22.3-0.3","63ea729bf9951e30282eaae6","F1","batch6","","3449","","","tol_tohand","","","","","","","","","tol_peg_1","3449","3449","0","[[0,0,0],[3,0],[2]]","4","[[0,0,0],[1,2],[3]]","4","0","","","","","","7","",""
"","","","","","single-stim-button","270","722812","0.0-3.0-22.3-1.3","63ea729bf9951e30282eaae6","F1","batch6","","2631","","","tol_toboard","","","","","","","","","tol_peg_2","2631","2631","0","[[0,0,0],[3,1],[2]]","4","[[0,0,0],[1,2],[3]]","4","0","","","","","","7","",""
"","","","","","single-stim-button","271","723847","0.0-3.0-22.4-0.4","63ea729bf9951e30282eaae6","F1","batch6","","1034","","","tol_tohand","","","","","","","","","tol_peg_3","1034","1034","0","[[0,0,0],[3,1],[0]]","5","[[0,0,0],[1,2],[3]]","4","0","","","","","","7","",""
"","","","","","single-stim-button","272","725136","0.0-3.0-22.4-1.4","63ea729bf9951e30282eaae6","F1","batch6","","1289","","","tol_toboard","","","","","","","","","tol_peg_1","1289","1289","0","[[2,0,0],[3,1],[0]]","5","[[0,0,0],[1,2],[3]]","4","0","","","","","","7","",""
"","","","","","single-stim-button","273","727657","0.0-3.0-22.5-0.5","63ea729bf9951e30282eaae6","F1","batch6","","2519","","","tol_tohand","","","","","","","","","tol_peg_2","2519","2519","0","[[2,0,0],[3,0],[0]]","6","[[0,0,0],[1,2],[3]]","4","0","","","","","","7","",""
"","","","","","single-stim-button","274","728797","0.0-3.0-22.5-1.5","63ea729bf9951e30282eaae6","F1","batch6","","1140","","","tol_toboard","","","","","","","","","tol_peg_1","1140","1140","0","[[2,1,0],[3,0],[0]]","6","[[0,0,0],[1,2],[3]]","4","0","","","","","","7","",""
"","","","","","single-stim-button","275","729510","0.0-3.0-22.6-0.6","63ea729bf9951e30282eaae6","F1","batch6","","712","","","tol_tohand","","","","","","","","","tol_peg_2","712","712","0","[[2,1,0],[0,0],[0]]","7","[[0,0,0],[1,2],[3]]","4","0","","","","","","7","",""
"","","","","","single-stim-button","276","730619","0.0-3.0-22.6-1.6","63ea729bf9951e30282eaae6","F1","batch6","","1108","","","tol_toboard","","","","","","","","","tol_peg_3","1108","1108","0","[[2,1,0],[0,0],[3]]","7","[[0,0,0],[1,2],[3]]","4","0","","","","","","7","",""
"","","","","","single-stim-button","277","734317","0.0-3.0-22.7-0.7","63ea729bf9951e30282eaae6","F1","batch6","","3697","","","tol_tohand","","","","","","","","","tol_peg_1","3697","3697","0","[[2,0,0],[0,0],[3]]","8","[[0,0,0],[1,2],[3]]","4","0","","","","","","7","",""
"","","","","","single-stim-button","278","735472","0.0-3.0-22.7-1.7","63ea729bf9951e30282eaae6","F1","batch6","","1154","","","tol_toboard","","","","","","","","","tol_peg_2","1154","1154","0","[[2,0,0],[1,0],[3]]","8","[[0,0,0],[1,2],[3]]","4","0","","","","","","7","",""
"","","","","","single-stim-button","279","736034","0.0-3.0-22.8-0.8","63ea729bf9951e30282eaae6","F1","batch6","","562","","","tol_tohand","","","","","","","","","tol_peg_1","562","562","0","[[0,0,0],[1,0],[3]]","9","[[0,0,0],[1,2],[3]]","4","0","","","","","","7","",""
"","","","","","single-stim-button","280","736822","0.0-3.0-22.8-1.8","63ea729bf9951e30282eaae6","F1","batch6","","786","","","tol_toboard","","","","","","","","","tol_peg_2","786","786","0","[[0,0,0],[1,2],[3]]","9","[[0,0,0],[1,2],[3]]","4","0","","","","","","7","",""
"","","","","","poldrack-single-stim","281","737838","0.0-3.0-23.0","63ea729bf9951e30282eaae6","F1","batch6","","-1","","","tol_feedback","true","","","","","","","","","1000","1000","500","","","","","","-1","none","true","6989","41728","","",""
"","","","","","html-button-response","282","738974","0.0-3.0-24.0","63ea729bf9951e30282eaae6","F1","batch6","","1135.2999999523163","<div class = centerbox><p class = center-block-text>problem <strong>6</strong> out of 25 problems</p></div>","0","tol_trial_num","","","","","","","","","","","","","","","","","","","","","","","","",""
"","","","","","single-stim-button","283","746391","0.0-3.0-25.0-0.0","63ea729bf9951e30282eaae6","F1","batch6","","7416","","","tol_tohand","","","","","","","","","tol_peg_3","7416","7416","0","[[0,0,0],[1,2],[0]]","1","[[1,0,0],[2,3],[0]]","5","0","","","","","","6","",""
"","","","","","single-stim-button","284","747487","0.0-3.0-25.0-1.0","63ea729bf9951e30282eaae6","F1","batch6","","1095","","","tol_toboard","","","","","","","","","tol_peg_1","1095","1095","0","[[3,0,0],[1,2],[0]]","1","[[1,0,0],[2,3],[0]]","5","0","","","","","","6","",""
"","","","","","single-stim-button","285","749212","0.0-3.0-25.1-0.1","63ea729bf9951e30282eaae6","F1","batch6","","1724","","","tol_tohand","","","","","","","","","tol_peg_2","1724","1724","0","[[3,0,0],[1,0],[0]]","2","[[1,0,0],[2,3],[0]]","5","0","","","","","","6","",""
"","","","","","single-stim-button","286","750299","0.0-3.0-25.1-1.1","63ea729bf9951e30282eaae6","F1","batch6","","1087","","","tol_toboard","","","","","","","","","tol_peg_3","1087","1087","0","[[3,0,0],[1,0],[2]]","2","[[1,0,0],[2,3],[0]]","5","0","","","","","","6","",""
"","","","","","single-stim-button","287","753262","0.0-3.0-25.2-0.2","63ea729bf9951e30282eaae6","F1","batch6","","2962","","","tol_tohand","","","","","","","","","tol_peg_2","2962","2962","0","[[3,0,0],[0,0],[2]]","3","[[1,0,0],[2,3],[0]]","5","0","","","","","","6","",""
"","","","","","single-stim-button","288","754514","0.0-3.0-25.2-1.2","63ea729bf9951e30282eaae6","F1","batch6","","1251","","","tol_toboard","","","","","","","","","tol_peg_1","1251","1251","0","[[3,1,0],[0,0],[2]]","3","[[1,0,0],[2,3],[0]]","5","0","","","","","","6","",""
"","","","","","single-stim-button","289","755216","0.0-3.0-25.3-0.3","63ea729bf9951e30282eaae6","F1","batch6","","701","","","tol_tohand","","","","","","","","","tol_peg_3","701","701","0","[[3,1,0],[0,0],[0]]","4","[[1,0,0],[2,3],[0]]","5","0","","","","","","6","",""
"","","","","","single-stim-button","290","756048","0.0-3.0-25.3-1.3","63ea729bf9951e30282eaae6","F1","batch6","","831","","","tol_toboard","","","","","","","","","tol_peg_2","831","831","0","[[3,1,0],[2,0],[0]]","4","[[1,0,0],[2,3],[0]]","5","0","","","","","","6","",""
"","","","","","single-stim-button","291","759100","0.0-3.0-25.4-0.4","63ea729bf9951e30282eaae6","F1","batch6","","3052","","","tol_tohand","","","","","","","","","tol_peg_1","3052","3052","0","[[3,0,0],[2,0],[0]]","5","[[1,0,0],[2,3],[0]]","5","0","","","","","","6","",""
"","","","","","single-stim-button","292","760278","0.0-3.0-25.4-1.4","63ea729bf9951e30282eaae6","F1","batch6","","1177","","","tol_toboard","","","","","","","","","tol_peg_3","1177","1177","0","[[3,0,0],[2,0],[1]]","5","[[1,0,0],[2,3],[0]]","5","0","","","","","","6","",""
"","","","","","single-stim-button","293","760937","0.0-3.0-25.5-0.5","63ea729bf9951e30282eaae6","F1","batch6","","659","","","tol_tohand","","","","","","","","","tol_peg_1","659","659","0","[[0,0,0],[2,0],[1]]","6","[[1,0,0],[2,3],[0]]","5","0","","","","","","6","",""
"","","","","","single-stim-button","294","761822","0.0-3.0-25.5-1.5","63ea729bf9951e30282eaae6","F1","batch6","","885","","","tol_toboard","","","","","","","","","tol_peg_2","885","885","0","[[0,0,0],[2,3],[1]]","6","[[1,0,0],[2,3],[0]]","5","0","","","","","","6","",""
"","","","","","single-stim-button","295","762805","0.0-3.0-25.6-0.6","63ea729bf9951e30282eaae6","F1","batch6","","982","","","tol_tohand","","","","","","","","","tol_peg_3","982","982","0","[[0,0,0],[2,3],[0]]","7","[[1,0,0],[2,3],[0]]","5","0","","","","","","6","",""
"","","","","","single-stim-button","296","763742","0.0-3.0-25.6-1.6","63ea729bf9951e30282eaae6","F1","batch6","","937","","","tol_toboard","","","","","","","","","tol_peg_1","937","937","0","[[1,0,0],[2,3],[0]]","7","[[1,0,0],[2,3],[0]]","5","0","","","","","","6","",""
"","","","","","poldrack-single-stim","297","764751","0.0-3.0-26.0","63ea729bf9951e30282eaae6","F1","batch6","","-1","","","tol_feedback","true","","","","","","","","","1000","1000","500","","","","","","-1","none","true","7416","17496","","",""
"","","","","","html-button-response","298","766053","0.0-3.0-27.0","63ea729bf9951e30282eaae6","F1","batch6","","1300.5","<div class = centerbox><p class = center-block-text>problem <strong>7</strong> out of 25 problems</p></div>","0","tol_trial_num","","","","","","","","","","","","","","","","","","","","","","","","",""
"","","","","","single-stim-button","299","778022","0.0-3.0-28.0-0.0","63ea729bf9951e30282eaae6","F1","batch6","","11968","","","tol_tohand","","","","","","","","","tol_peg_1","11968","11968","0","[[2,0,0],[0,0],[3]]","1","[[1,2,0],[3,0],[0]]","6","0","","","","","","5","",""
"","","","","","single-stim-button","300","778886","0.0-3.0-28.0-1.0","63ea729bf9951e30282eaae6","F1","batch6","","863","","","tol_toboard","","","","","","","","","tol_peg_2","863","863","0","[[2,0,0],[1,0],[3]]","1","[[1,2,0],[3,0],[0]]","6","0","","","","","","5","",""
"","","","","","single-stim-button","301","785260","0.0-3.0-28.1-0.1","63ea729bf9951e30282eaae6","F1","batch6","","6374","","","tol_tohand","","","","","","","","","tol_peg_1","6374","6374","0","[[0,0,0],[1,0],[3]]","2","[[1,2,0],[3,0],[0]]","6","0","","","","","","5","",""
"","","","","","single-stim-button","302","786266","0.0-3.0-28.1-1.1","63ea729bf9951e30282eaae6","F1","batch6","","1004","","","tol_toboard","","","","","","","","","tol_peg_2","1004","1004","0","[[0,0,0],[1,2],[3]]","2","[[1,2,0],[3,0],[0]]","6","0","","","","","","5","",""
"","","","","","single-stim-button","303","787016","0.0-3.0-28.2-0.2","63ea729bf9951e30282eaae6","F1","batch6","","750","","","tol_tohand","","","","","","","","","tol_peg_3","750","750","0","[[0,0,0],[1,2],[0]]","3","[[1,2,0],[3,0],[0]]","6","0","","","","","","5","",""
"","","","","","single-stim-button","304","787788","0.0-3.0-28.2-1.2","63ea729bf9951e30282eaae6","F1","batch6","","772","","","tol_toboard","","","","","","","","","tol_peg_1","772","772","0","[[3,0,0],[1,2],[0]]","3","[[1,2,0],[3,0],[0]]","6","0","","","","","","5","",""
"","","","","","single-stim-button","305","790203","0.0-3.0-28.3-0.3","63ea729bf9951e30282eaae6","F1","batch6","","2415","","","tol_tohand","","","","","","","","","tol_peg_2","2415","2415","0","[[3,0,0],[1,0],[0]]","4","[[1,2,0],[3,0],[0]]","6","0","","","","","","5","",""
"","","","","","single-stim-button","306","791096","0.0-3.0-28.3-1.3","63ea729bf9951e30282eaae6","F1","batch6","","892","","","tol_toboard","","","","","","","","","tol_peg_3","892","892","0","[[3,0,0],[1,0],[2]]","4","[[1,2,0],[3,0],[0]]","6","0","","","","","","5","",""
"","","","","","single-stim-button","307","798116","0.0-3.0-28.4-0.4","63ea729bf9951e30282eaae6","F1","batch6","","7019","","","tol_tohand","","","","","","","","","tol_peg_2","7019","7019","0","[[3,0,0],[0,0],[2]]","5","[[1,2,0],[3,0],[0]]","6","0","","","","","","5","",""
"","","","","","single-stim-button","308","799031","0.0-3.0-28.4-1.4","63ea729bf9951e30282eaae6","F1","batch6","","913","","","tol_toboard","","","","","","","","","tol_peg_1","913","913","0","[[3,1,0],[0,0],[2]]","5","[[1,2,0],[3,0],[0]]","6","0","","","","","","5","",""
"","","","","","single-stim-button","309","799728","0.0-3.0-28.5-0.5","63ea729bf9951e30282eaae6","F1","batch6","","696","","","tol_tohand","","","","","","","","","tol_peg_3","696","696","0","[[3,1,0],[0,0],[0]]","6","[[1,2,0],[3,0],[0]]","6","0","","","","","","5","",""
"","","","","","single-stim-button","310","800673","0.0-3.0-28.5-1.5","63ea729bf9951e30282eaae6","F1","batch6","","945","","","tol_toboard","","","","","","","","","tol_peg_2","945","945","0","[[3,1,0],[2,0],[0]]","6","[[1,2,0],[3,0],[0]]","6","0","","","","","","5","",""
"","","","","","single-stim-button","311","803232","0.0-3.0-28.6-0.6","63ea729bf9951e30282eaae6","F1","batch6","","2559","","","tol_tohand","","","","","","","","","tol_peg_1","2559","2559","0","[[3,0,0],[2,0],[0]]","7","[[1,2,0],[3,0],[0]]","6","0","","","","","","5","",""
"","","","","","single-stim-button","312","807116","0.0-3.0-28.6-1.6","63ea729bf9951e30282eaae6","F1","batch6","","3884","","","tol_toboard","","","","","","","","","tol_peg_3","3884","3884","0","[[3,0,0],[2,0],[1]]","7","[[1,2,0],[3,0],[0]]","6","0","","","","","","5","",""
"","","","","","single-stim-button","313","808054","0.0-3.0-28.7-0.7","63ea729bf9951e30282eaae6","F1","batch6","","937","","","tol_tohand","","","","","","","","","tol_peg_1","937","937","0","[[0,0,0],[2,0],[1]]","8","[[1,2,0],[3,0],[0]]","6","0","","","","","","5","",""
"","","","","","single-stim-button","314","809156","0.0-3.0-28.7-1.7","63ea729bf9951e30282eaae6","F1","batch6","","1102","","","tol_toboard","","","","","","","","","tol_peg_2","1102","1102","0","[[0,0,0],[2,3],[1]]","8","[[1,2,0],[3,0],[0]]","6","0","","","","","","5","",""
"","","","","","single-stim-button","315","809779","0.0-3.0-28.8-0.8","63ea729bf9951e30282eaae6","F1","batch6","","622","","","tol_tohand","","","","","","","","","tol_peg_3","622","622","0","[[0,0,0],[2,3],[0]]","9","[[1,2,0],[3,0],[0]]","6","0","","","","","","5","",""
"","","","","","single-stim-button","316","810919","0.0-3.0-28.8-1.8","63ea729bf9951e30282eaae6","F1","batch6","","1138","","","tol_toboard","","","","","","","","","tol_peg_1","1138","1138","0","[[1,0,0],[2,3],[0]]","9","[[1,2,0],[3,0],[0]]","6","0","","","","","","5","",""
"","","","","","single-stim-button","317","811819","0.0-3.0-28.9-0.9","63ea729bf9951e30282eaae6","F1","batch6","","900","","","tol_tohand","","","","","","","","","tol_peg_2","900","900","0","[[1,0,0],[2,0],[0]]","10","[[1,2,0],[3,0],[0]]","6","0","","","","","","5","",""
"","","","","","single-stim-button","318","812794","0.0-3.0-28.9-1.9","63ea729bf9951e30282eaae6","F1","batch6","","974","","","tol_toboard","","","","","","","","","tol_peg_3","974","974","0","[[1,0,0],[2,0],[3]]","10","[[1,2,0],[3,0],[0]]","6","0","","","","","","5","",""
"","","","","","single-stim-button","319","813386","0.0-3.0-28.10-0.10","63ea729bf9951e30282eaae6","F1","batch6","","592","","","tol_tohand","","","","","","","","","tol_peg_2","592","592","0","[[1,0,0],[0,0],[3]]","11","[[1,2,0],[3,0],[0]]","6","0","","","","","","5","",""
"","","","","","single-stim-button","320","814323","0.0-3.0-28.10-1.10","63ea729bf9951e30282eaae6","F1","batch6","","936","","","tol_toboard","","","","","","","","","tol_peg_1","936","936","0","[[1,2,0],[0,0],[3]]","11","[[1,2,0],[3,0],[0]]","6","0","","","","","","5","",""
"","","","","","single-stim-button","321","815237","0.0-3.0-28.11-0.11","63ea729bf9951e30282eaae6","F1","batch6","","913","","","tol_tohand","","","","","","","","","tol_peg_3","913","913","0","[[1,2,0],[0,0],[0]]","12","[[1,2,0],[3,0],[0]]","6","0","","","","","","5","",""
"","","","","","single-stim-button","322","816077","0.0-3.0-28.11-1.11","63ea729bf9951e30282eaae6","F1","batch6","","839","","","tol_toboard","","","","","","","","","tol_peg_2","839","839","0","[[1,2,0],[3,0],[0]]","12","[[1,2,0],[3,0],[0]]","6","0","","","","","","5","",""
"","","","","","poldrack-single-stim","323","817085","0.0-3.0-29.0","63ea729bf9951e30282eaae6","F1","batch6","","-1","","","tol_feedback","true","","","","","","","","","1000","1000","500","","","","","","-1","none","true","11968","35745","","",""
"","","","","","html-button-response","324","818184","0.0-3.0-30.0","63ea729bf9951e30282eaae6","F1","batch6","","1097","<div class = centerbox><p class = center-block-text>problem <strong>8</strong> out of 25 problems</p></div>","0","tol_trial_num","","","","","","","","","","","","","","","","","","","","","","","","",""
"","","","","","single-stim-button","325","825423","0.0-3.0-31.0-0.0","63ea729bf9951e30282eaae6","F1","batch6","","7239","","","tol_tohand","","","","","","","","","tol_peg_2","7239","7239","0","[[0,0,0],[2,0],[1]]","1","[[1,2,0],[3,0],[0]]","7","0","","","","","","4","",""
"","","","","","single-stim-button","326","826382","0.0-3.0-31.0-1.0","63ea729bf9951e30282eaae6","F1","batch6","","959","","","tol_toboard","","","","","","","","","tol_peg_1","959","959","0","[[3,0,0],[2,0],[1]]","1","[[1,2,0],[3,0],[0]]","7","0","","","","","","4","",""
"","","","","","single-stim-button","327","828061","0.0-3.0-31.1-0.1","63ea729bf9951e30282eaae6","F1","batch6","","1679","","","tol_tohand","","","","","","","","","tol_peg_3","1679","1679","0","[[3,0,0],[2,0],[0]]","2","[[1,2,0],[3,0],[0]]","7","0","","","","","","4","",""
"","","","","","single-stim-button","328","828962","0.0-3.0-31.1-1.1","63ea729bf9951e30282eaae6","F1","batch6","","899","","","tol_toboard","","","","","","","","","tol_peg_2","899","899","0","[[3,0,0],[2,1],[0]]","2","[[1,2,0],[3,0],[0]]","7","0","","","","","","4","",""
"","","","","","single-stim-button","329","829546","0.0-3.0-31.2-0.2","63ea729bf9951e30282eaae6","F1","batch6","","583","","","tol_tohand","","","","","","","","","tol_peg_1","583","583","0","[[0,0,0],[2,1],[0]]","3","[[1,2,0],[3,0],[0]]","7","0","","","","","","4","",""
"","","","","","single-stim-button","330","830559","0.0-3.0-31.2-1.2","63ea729bf9951e30282eaae6","F1","batch6","","1013","","","tol_toboard","","","","","","","","","tol_peg_3","1013","1013","0","[[0,0,0],[2,1],[3]]","3","[[1,2,0],[3,0],[0]]","7","0","","","","","","4","",""
"","","","","","single-stim-button","331","831528","0.0-3.0-31.3-0.3","63ea729bf9951e30282eaae6","F1","batch6","","968","","","tol_tohand","","","","","","","","","tol_peg_2","968","968","0","[[0,0,0],[2,0],[3]]","4","[[1,2,0],[3,0],[0]]","7","0","","","","","","4","",""
"","","","","","single-stim-button","332","832420","0.0-3.0-31.3-1.3","63ea729bf9951e30282eaae6","F1","batch6","","891","","","tol_toboard","","","","","","","","","tol_peg_1","891","891","0","[[1,0,0],[2,0],[3]]","4","[[1,2,0],[3,0],[0]]","7","0","","","","","","4","",""
"","","","","","single-stim-button","333","832990","0.0-3.0-31.4-0.4","63ea729bf9951e30282eaae6","F1","batch6","","569","","","tol_tohand","","","","","","","","","tol_peg_2","569","569","0","[[1,0,0],[0,0],[3]]","5","[[1,2,0],[3,0],[0]]","7","0","","","","","","4","",""
"","","","","","single-stim-button","334","833800","0.0-3.0-31.4-1.4","63ea729bf9951e30282eaae6","F1","batch6","","810","","","tol_toboard","","","","","","","","","tol_peg_1","810","810","0","[[1,2,0],[0,0],[3]]","5","[[1,2,0],[3,0],[0]]","7","0","","","","","","4","",""
"","","","","","single-stim-button","335","834407","0.0-3.0-31.5-0.5","63ea729bf9951e30282eaae6","F1","batch6","","607","","","tol_tohand","","","","","","","","","tol_peg_3","607","607","0","[[1,2,0],[0,0],[0]]","6","[[1,2,0],[3,0],[0]]","7","0","","","","","","4","",""
"","","","","","single-stim-button","336","835247","0.0-3.0-31.5-1.5","63ea729bf9951e30282eaae6","F1","batch6","","840","","","tol_toboard","","","","","","","","","tol_peg_2","840","840","0","[[1,2,0],[3,0],[0]]","6","[[1,2,0],[3,0],[0]]","7","0","","","","","","4","",""
"","","","","","poldrack-single-stim","337","836257","0.0-3.0-32.0","63ea729bf9951e30282eaae6","F1","batch6","","-1","","","tol_feedback","true","","","","","","","","","1000","1000","500","","","","","","-1","none","true","7239","11645","","",""
"","","","","","html-button-response","338","837242","0.0-3.0-33.0","63ea729bf9951e30282eaae6","F1","batch6","","983.6000000238419","<div class = centerbox><p class = center-block-text>problem <strong>9</strong> out of 25 problems</p></div>","0","tol_trial_num","","","","","","","","","","","","","","","","","","","","","","","","",""
"","","","","","single-stim-button","339","845931","0.0-3.0-34.0-0.0","63ea729bf9951e30282eaae6","F1","batch6","","8689","","","tol_tohand","","","","","","","","","tol_peg_1","8689","8689","0","[[3,0,0],[0,0],[1]]","1","[[2,1,0],[3,0],[0]]","8","0","","","","","","6","",""
"","","","","","single-stim-button","340","846670","0.0-3.0-34.0-1.0","63ea729bf9951e30282eaae6","F1","batch6","","738","","","tol_toboard","","","","","","","","","tol_peg_2","738","738","0","[[3,0,0],[2,0],[1]]","1","[[2,1,0],[3,0],[0]]","8","0","","","","","","6","",""
"","","","","","single-stim-button","341","847541","0.0-3.0-34.1-0.1","63ea729bf9951e30282eaae6","F1","batch6","","869","","","tol_tohand","","","","","","","","","tol_peg_3","869","869","0","[[3,0,0],[2,0],[0]]","2","[[2,1,0],[3,0],[0]]","8","0","","","","","","6","",""
"","","","","","single-stim-button","342","848358","0.0-3.0-34.1-1.1","63ea729bf9951e30282eaae6","F1","batch6","","816","","","tol_toboard","","","","","","","","","tol_peg_2","816","816","0","[[3,0,0],[2,1],[0]]","2","[[2,1,0],[3,0],[0]]","8","0","","","","","","6","",""
"","","","","","single-stim-button","343","849055","0.0-3.0-34.2-0.2","63ea729bf9951e30282eaae6","F1","batch6","","697","","","tol_tohand","","","","","","","","","tol_peg_1","697","697","0","[[0,0,0],[2,1],[0]]","3","[[2,1,0],[3,0],[0]]","8","0","","","","","","6","",""
"","","","","","single-stim-button","344","852722","0.0-3.0-34.2-1.2","63ea729bf9951e30282eaae6","F1","batch6","","3666","","","tol_toboard","","","","","","","","","tol_peg_1","3666","3666","0","[[3,0,0],[2,1],[0]]","3","[[2,1,0],[3,0],[0]]","8","0","","","","","","6","",""
"","","","","","single-stim-button","345","853915","0.0-3.0-34.3-0.3","63ea729bf9951e30282eaae6","F1","batch6","","1192","","","tol_tohand","","","","","","","","","tol_peg_2","1192","1192","0","[[3,0,0],[2,0],[0]]","4","[[2,1,0],[3,0],[0]]","8","0","","","","","","6","",""
"","","","","","single-stim-button","346","854769","0.0-3.0-34.3-1.3","63ea729bf9951e30282eaae6","F1","batch6","","854","","","tol_toboard","","","","","","","","","tol_peg_3","854","854","0","[[3,0,0],[2,0],[1]]","4","[[2,1,0],[3,0],[0]]","8","0","","","","","","6","",""
"","","","","","single-stim-button","347","855813","0.0-3.0-34.4-0.4","63ea729bf9951e30282eaae6","F1","batch6","","1043","","","tol_tohand","","","","","","","","","tol_peg_2","1043","1043","0","[[3,0,0],[0,0],[1]]","5","[[2,1,0],[3,0],[0]]","8","0","","","","","","6","",""
"","","","","","single-stim-button","348","856893","0.0-3.0-34.4-1.4","63ea729bf9951e30282eaae6","F1","batch6","","1079","","","tol_toboard","","","","","","","","","tol_peg_1","1079","1079","0","[[3,2,0],[0,0],[1]]","5","[[2,1,0],[3,0],[0]]","8","0","","","","","","6","",""
