"success","timeout","failed_images","failed_audio","failed_video","trial_type","trial_index","time_elapsed","internal_node_id","subject_id","study_id","session_id","view_history","rt","stimulus","response","task","correct","answer","item","fiar_detect_rt","fiar_detect_correct","total_correct_fiar_detect","post_trial_gap","choices","mouse_click","stim_duration","block_duration","timing_post_trial","current_position","tol_num_moves_made","tol_target","tol_problem_id","tol_rt","key_press","possible_responses","tol_correct","preplanning","tol_rt_per_trial","tol_min_moves","spm_correct","spm_rt"
"true","false","[]","[]","[]","preload","0","2138","0.0-0.0","63ead665638c8546d8c3a962","F1","batch6","","","","","","","","","","","","","","","","","","","","","","","","","","","","","",""
"true","","","","","fullscreen","1","25386","0.0-1.0-0.0","63ead665638c8546d8c3a962","F1","batch6","","","","","","","","","","","","","","","","","","","","","","","","","","","","","",""
"true","","","","","fullscreen","2","27798","0.0-2.0-0.0","63ead665638c8546d8c3a962","F1","batch6","","","","","","","","","","","","","","","","","","","","","","","","","","","","","",""
"","","","","","instructions","3","50798","0.0-2.0-1.0-0.0","63ead665638c8546d8c3a962","F1","batch6","[{""page_index"":0,""viewing_time"":15774.200000047684},{""page_index"":1,""viewing_time"":7223.600000023842}]","22998.200000047684","","","","","","","","","","","","","","","","","","","","","","","","","","","",""
"","","","","","html-button-response","4","52382","0.0-2.0-1.0-1.0-0.0","63ead665638c8546d8c3a962","F1","batch6","","1581.6000000238419","<p class=block-text> Let's answer a few questions <br>","0","pattern_enter_quiz","","","","","","","","","","","","","","","","","","","","","","","","",""
"","","","","","html-button-response","5","54382","0.0-2.0-1.0-1.0-1.0","63ead665638c8546d8c3a962","F1","batch6","","1998.7000000476837","<p class = block-text>True or False: You will have as much time as you want to make each choice. <br></p>","1","pattern_quiz","true","","","","","","","","","","","","","","","","","","","","","","","",""
"","","","","","html-button-response","6","55454","0.0-2.0-1.0-1.0-2.0","63ead665638c8546d8c3a962","F1","batch6","","1070.2000000476837","<p class = block-text>Correct! You should make your choice <strong> as fast as you can</strong>.</p>","0","pattern_quiz_feedback","","","","","","","","","","","","","","","","","","","","","","","","",""
"","","","","","html-button-response","7","58770","0.0-2.0-1.0-1.0-3.0","63ead665638c8546d8c3a962","F1","batch6","","3315.7999999523163","<p class = block-text>True or False: You will look for 4 pieces in black or white color connected in a row either horizontally, vertically or diagonally. <br></p>","0","pattern_quiz","true","","","","","","","","","","","","","","","","","","","","","","","",""
"","","","","","html-button-response","8","59433","0.0-2.0-1.0-1.0-4.0","63ead665638c8546d8c3a962","F1","batch6","","662.1000000238419","<p class = block-text>Correct! </p>","0","pattern_quiz_feedback","","","","","","","","","","","","","","","","","","","","","","","","",""
"","","","","","html-button-response","9","60760","0.0-2.0-2.0","63ead665638c8546d8c3a962","F1","batch6","","1325.2000000476837","<p class=block-text> Now that you've understood the game, let's do a few practice trials before we start!<br> <br>","0","pattern_enter_practice","","","","","","","","","","","","","","","","","","","","","","","","",""
"","","","","","image-keyboard-response","10","62521","0.0-2.0-3.0-0.0","63ead665638c8546d8c3a962","F1","batch6","","1756.5999999046326","stim/prac_yes_16_ver_w1.png","f","pattern_practice","true","f","","","","","","","","","","","","","","","","","","","","","","",""
"","","","","","html-keyboard-response","11","63528","0.0-2.0-3.0-1.0","63ead665638c8546d8c3a962","F1","batch6","","null","<p style=""font-size:30px;color:green;"">Correct!</p>","null","pattern_feedback","","","","","","","","","","","","","","","","","","","","","","","","",""
"","","","","","image-keyboard-response","12","65031","0.0-2.0-3.0-0.1","63ead665638c8546d8c3a962","F1","batch6","","1501.7999999523163","stim/prac_yes_20_dia_b1.png","j","pattern_practice","false","f","","","","","","","","","","","","","","","","","","","","","","",""
"","","","","","html-keyboard-response","13","66045","0.0-2.0-3.0-1.1","63ead665638c8546d8c3a962","F1","batch6","","null","<p style=""font-size:30px;color:red;"">Wrong.</p>","null","pattern_feedback","","","","","","","","","","","","","","","","","","","","","","","","",""
"","","","","","image-keyboard-response","14","67838","0.0-2.0-3.0-0.2","63ead665638c8546d8c3a962","F1","batch6","","1792.1000000238419","stim/prac_no_18_1.png","j","pattern_practice","true","j","","","","","","","","","","","","","","","","","","","","","","",""
"","","","","","html-keyboard-response","15","68855","0.0-2.0-3.0-1.2","63ead665638c8546d8c3a962","F1","batch6","","null","<p style=""font-size:30px;color:green;"">Correct!</p>","null","pattern_feedback","","","","","","","","","","","","","","","","","","","","","","","","",""
"","","","","","image-keyboard-response","16","70525","0.0-2.0-3.0-0.3","63ead665638c8546d8c3a962","F1","batch6","","1668.0999999046326","stim/prac_no_16_1.png","f","pattern_practice","false","j","","","","","","","","","","","","","","","","","","","","","","",""
"","","","","","html-keyboard-response","17","71546","0.0-2.0-3.0-1.3","63ead665638c8546d8c3a962","F1","batch6","","null","<p style=""font-size:30px;color:red;"">Wrong.</p>","null","pattern_feedback","","","","","","","","","","","","","","","","","","","","","","","","",""
"","","","","","image-keyboard-response","18","72450","0.0-2.0-3.0-0.4","63ead665638c8546d8c3a962","F1","batch6","","902.6000000238419","stim/prac_yes_18_hor_w1.png","j","pattern_practice","false","f","","","","","","","","","","","","","","","","","","","","","","",""
"","","","","","html-keyboard-response","19","73467","0.0-2.0-3.0-1.4","63ead665638c8546d8c3a962","F1","batch6","","null","<p style=""font-size:30px;color:red;"">Wrong.</p>","null","pattern_feedback","","","","","","","","","","","","","","","","","","","","","","","","",""
"","","","","","html-button-response","20","77325","0.0-2.0-4.0","63ead665638c8546d8c3a962","F1","batch6","","3854.899999976158","<p class=block-text> Good job! You are done with practice trials!<br>
        You responded correctly on 40% of the trials.<br>
        Press the button below to start official trials. Now you won't see any feedback about your response</p>","0","pattern_enter_official_trials","","","","","","","","","","","","","","","","","","","","","","","","",""
"","","","","","html-keyboard-response","21","78128","0.0-2.0-5.0-0.0","63ead665638c8546d8c3a962","F1","batch6","","null","<p class=block-text>Trial 1 out of 78</p>","null","pattern_show_trial_num","","","","","","","","","","","","","","","","","","","","","","","","",""
"","","","","","image-keyboard-response","22","79839","0.0-2.0-5.0-1.0","63ead665638c8546d8c3a962","F1","batch6","","1708.7999999523163","stim/no_18_1_b.png","j","pattern_response","true","j","pattern_05","1708.7999999523163","true","1","","","","","","","","","","","","","","","","","","",""
"","","","","","html-keyboard-response","23","81158","0.0-2.0-5.0-0.1","63ead665638c8546d8c3a962","F1","batch6","","null","<p class=block-text>Trial 2 out of 78</p>","null","pattern_show_trial_num","","","","","","","","","","","","","","","","","","","","","","","","",""
"","","","","","image-keyboard-response","24","83165","0.0-2.0-5.0-1.1","63ead665638c8546d8c3a962","F1","batch6","","2003.7999999523163","stim/yes_53_ver_b1_b.png","f","pattern_response","true","f","pattern_74","2003.7999999523163","true","2","","","","","","","","","","","","","","","","","","",""
"","","","","","html-keyboard-response","25","84486","0.0-2.0-5.0-0.2","63ead665638c8546d8c3a962","F1","batch6","","null","<p class=block-text>Trial 3 out of 78</p>","null","pattern_show_trial_num","","","","","","","","","","","","","","","","","","","","","","","","",""
"","","","","","image-keyboard-response","26","87511","0.0-2.0-5.0-1.2","63ead665638c8546d8c3a962","F1","batch6","","3019.899999976158","stim/no_36_1_b.png","j","pattern_response","true","j","pattern_17","3019.899999976158","true","3","","","","","","","","","","","","","","","","","","",""
"","","","","","html-keyboard-response","27","88829","0.0-2.0-5.0-0.3","63ead665638c8546d8c3a962","F1","batch6","","null","<p class=block-text>Trial 4 out of 78</p>","null","pattern_show_trial_num","","","","","","","","","","","","","","","","","","","","","","","","",""
"","","","","","image-keyboard-response","28","89645","0.0-2.0-5.0-1.3","63ead665638c8546d8c3a962","F1","batch6","","812.1000000238419","stim/yes_17_ver_b1_b.png","f","pattern_response","true","f","pattern_46","812.1000000238419","true","4","","","","","","","","","","","","","","","","","","",""
"","","","","","html-keyboard-response","29","90954","0.0-2.0-5.0-0.4","63ead665638c8546d8c3a962","F1","batch6","","null","<p class=block-text>Trial 5 out of 78</p>","null","pattern_show_trial_num","","","","","","","","","","","","","","","","","","","","","","","","",""
"","","","","","image-keyboard-response","30","92052","0.0-2.0-5.0-1.4","63ead665638c8546d8c3a962","F1","batch6","","1095.6000000238419","stim/yes_51_dia_b1.png","j","pattern_response","false","f","pattern_72","1095.6000000238419","false","4","","","","","","","","","","","","","","","","","","",""
"","","","","","html-keyboard-response","31","93377","0.0-2.0-5.0-0.5","63ead665638c8546d8c3a962","F1","batch6","","null","<p class=block-text>Trial 6 out of 78</p>","null","pattern_show_trial_num","","","","","","","","","","","","","","","","","","","","","","","","",""
"","","","","","image-keyboard-response","32","94509","0.0-2.0-5.0-1.5","63ead665638c8546d8c3a962","F1","batch6","","1130","stim/yes_46_ver_b1_b.png","f","pattern_response","true","f","pattern_68","1130","true","5","","","","","","","","","","","","","","","","","","",""
"","","","","","html-keyboard-response","33","95826","0.0-2.0-5.0-0.6","63ead665638c8546d8c3a962","F1","batch6","","null","<p class=block-text>Trial 7 out of 78</p>","null","pattern_show_trial_num","","","","","","","","","","","","","","","","","","","","","","","","",""
"","","","","","image-keyboard-response","34","96489","0.0-2.0-5.0-1.6","63ead665638c8546d8c3a962","F1","batch6","","659.3999999761581","stim/yes_15_dia_b1u_b.png","f","pattern_response","true","f","pattern_44","659.3999999761581","true","6","","","","","","","","","","","","","","","","","","",""
"","","","","","html-keyboard-response","35","97807","0.0-2.0-5.0-0.7","63ead665638c8546d8c3a962","F1","batch6","","null","<p class=block-text>Trial 8 out of 78</p>","null","pattern_show_trial_num","","","","","","","","","","","","","","","","","","","","","","","","",""
"","","","","","image-keyboard-response","36","100463","0.0-2.0-5.0-1.7","63ead665638c8546d8c3a962","F1","batch6","","2652.899999976158","stim/no_25_1_b.png","j","pattern_response","true","j","pattern_09","2652.899999976158","true","7","","","","","","","","","","","","","","","","","","",""
"","","","","","html-keyboard-response","37","101782","0.0-2.0-5.0-0.8","63ead665638c8546d8c3a962","F1","batch6","","null","<p class=block-text>Trial 9 out of 78</p>","null","pattern_show_trial_num","","","","","","","","","","","","","","","","","","","","","","","","",""
"","","","","","image-keyboard-response","38","104059","0.0-2.0-5.0-1.8","63ead665638c8546d8c3a962","F1","batch6","","2273.399999976158","stim/yes_26_dia_w2_w.png","f","pattern_response","true","f","pattern_50","2273.399999976158","true","8","","","","","","","","","","","","","","","","","","",""
"","","","","","html-keyboard-response","39","105374","0.0-2.0-5.0-0.9","63ead665638c8546d8c3a962","F1","batch6","","null","<p class=block-text>Trial 10 out of 78</p>","null","pattern_show_trial_num","","","","","","","","","","","","","","","","","","","","","","","","",""
"","","","","","image-keyboard-response","40","110180","0.0-2.0-5.0-1.9","63ead665638c8546d8c3a962","F1","batch6","","4804.199999928474","stim/no_51_1.png","j","pattern_response","true","j","pattern_31","4804.199999928474","true","9","","","","","","","","","","","","","","","","","","",""
"","","","","","html-keyboard-response","41","111495","0.0-2.0-5.0-0.10","63ead665638c8546d8c3a962","F1","batch6","","null","<p class=block-text>Trial 11 out of 78</p>","null","pattern_show_trial_num","","","","","","","","","","","","","","","","","","","","","","","","",""
"","","","","","image-keyboard-response","42","112206","0.0-2.0-5.0-1.10","63ead665638c8546d8c3a962","F1","batch6","","707.8000000715256","stim/yes_23_ver_b1.png","f","pattern_response","true","f","pattern_48","707.8000000715256","true","10","","","","","","","","","","","","","","","","","","",""
"","","","","","html-keyboard-response","43","113524","0.0-2.0-5.0-0.11","63ead665638c8546d8c3a962","F1","batch6","","null","<p class=block-text>Trial 12 out of 78</p>","null","pattern_show_trial_num","","","","","","","","","","","","","","","","","","","","","","","","",""
"","","","","","image-keyboard-response","44","116602","0.0-2.0-5.0-1.11","63ead665638c8546d8c3a962","F1","batch6","","3076.399999976158","stim/no_37_2_w.png","j","pattern_response","true","j","pattern_19","3076.399999976158","true","11","","","","","","","","","","","","","","","","","","",""
"","","","","","html-keyboard-response","45","117920","0.0-2.0-5.0-0.12","63ead665638c8546d8c3a962","F1","batch6","","null","<p class=block-text>Trial 13 out of 78</p>","null","pattern_show_trial_num","","","","","","","","","","","","","","","","","","","","","","","","",""
"","","","","","image-keyboard-response","46","118564","0.0-2.0-5.0-1.12","63ead665638c8546d8c3a962","F1","batch6","","640","stim/yes_12_hor_w1_w.png","f","pattern_response","true","f","pattern_42","640","true","12","","","","","","","","","","","","","","","","","","",""
"","","","","","html-keyboard-response","47","119884","0.0-2.0-5.0-0.13","63ead665638c8546d8c3a962","F1","batch6","","null","<p class=block-text>Trial 14 out of 78</p>","null","pattern_show_trial_num","","","","","","","","","","","","","","","","","","","","","","","","",""
"","","","","","image-keyboard-response","48","122998","0.0-2.0-5.0-1.13","63ead665638c8546d8c3a962","F1","batch6","","3111.3000000715256","stim/no_33_1_b.png","j","pattern_response","true","j","pattern_15","3111.3000000715256","true","13","","","","","","","","","","","","","","","","","","",""
"","","","","","html-keyboard-response","49","124313","0.0-2.0-5.0-0.14","63ead665638c8546d8c3a962","F1","batch6","","null","<p class=block-text>Trial 15 out of 78</p>","null","pattern_show_trial_num","","","","","","","","","","","","","","","","","","","","","","","","",""
"","","","","","image-keyboard-response","50","128713","0.0-2.0-5.0-1.14","63ead665638c8546d8c3a962","F1","batch6","","4395.899999976158","stim/no_39_1_w.png","j","pattern_response","true","j","pattern_21","4395.899999976158","true","14","","","","","","","","","","","","","","","","","","",""
"","","","","","html-keyboard-response","51","130024","0.0-2.0-5.0-0.15","63ead665638c8546d8c3a962","F1","batch6","","null","<p class=block-text>Trial 16 out of 78</p>","null","pattern_show_trial_num","","","","","","","","","","","","","","","","","","","","","","","","",""
"","","","","","image-keyboard-response","52","130779","0.0-2.0-5.0-1.15","63ead665638c8546d8c3a962","F1","batch6","","752.4000000953674","stim/yes_70_ver_b1.png","f","pattern_response","true","f","pattern_80","752.4000000953674","true","15","","","","","","","","","","","","","","","","","","",""
"","","","","","html-keyboard-response","53","132089","0.0-2.0-5.0-0.16","63ead665638c8546d8c3a962","F1","batch6","","null","<p class=block-text>Trial 17 out of 78</p>","null","pattern_show_trial_num","","","","","","","","","","","","","","","","","","","","","","","","",""
"","","","","","image-keyboard-response","54","134868","0.0-2.0-5.0-1.16","63ead665638c8546d8c3a962","F1","batch6","","2773.899999976158","stim/yes_58_dia_w1_w.png","f","pattern_response","true","f","pattern_76","2773.899999976158","true","16","","","","","","","","","","","","","","","","","","",""
"","","","","","html-keyboard-response","55","136186","0.0-2.0-5.0-0.17","63ead665638c8546d8c3a962","F1","batch6","","null","<p class=block-text>Trial 18 out of 78</p>","null","pattern_show_trial_num","","","","","","","","","","","","","","","","","","","","","","","","",""
"","","","","","image-keyboard-response","56","141261","0.0-2.0-5.0-1.17","63ead665638c8546d8c3a962","F1","batch6","","5072.899999976158","stim/no_45_1_w.png","j","pattern_response","true","j","pattern_25","5072.899999976158","true","17","","","","","","","","","","","","","","","","","","",""
"","","","","","html-keyboard-response","57","142577","0.0-2.0-5.0-0.18","63ead665638c8546d8c3a962","F1","batch6","","null","<p class=block-text>Trial 19 out of 78</p>","null","pattern_show_trial_num","","","","","","","","","","","","","","","","","","","","","","","","",""
"","","","","","image-keyboard-response","58","143662","0.0-2.0-5.0-1.18","63ead665638c8546d8c3a962","F1","batch6","","1080.3000000715256","stim/yes_37_hor_w1_w.png","f","pattern_response","true","f","pattern_60","1080.3000000715256","true","18","","","","","","","","","","","","","","","","","","",""
"","","","","","html-keyboard-response","59","144979","0.0-2.0-5.0-0.19","63ead665638c8546d8c3a962","F1","batch6","","null","<p class=block-text>Trial 20 out of 78</p>","null","pattern_show_trial_num","","","","","","","","","","","","","","","","","","","","","","","","",""
"","","","","","image-keyboard-response","60","145812","0.0-2.0-5.0-1.19","63ead665638c8546d8c3a962","F1","batch6","","829.7999999523163","stim/yes_33_dia_w1_w.png","f","pattern_response","true","f","pattern_56","829.7999999523163","true","19","","","","","","","","","","","","","","","","","","",""
"","","","","","html-keyboard-response","61","147155","0.0-2.0-5.0-0.20","63ead665638c8546d8c3a962","F1","batch6","","null","<p class=block-text>Trial 21 out of 78</p>","null","pattern_show_trial_num","","","","","","","","","","","","","","","","","","","","","","","","",""
"","","","","","image-keyboard-response","62","148029","0.0-2.0-5.0-1.20","63ead665638c8546d8c3a962","F1","batch6","","871.1000000238419","stim/yes_63_dia_b1.png","f","pattern_response","true","f","pattern_78","871.1000000238419","true","20","","","","","","","","","","","","","","","","","","",""
"","","","","","html-keyboard-response","63","149354","0.0-2.0-5.0-0.21","63ead665638c8546d8c3a962","F1","batch6","","null","<p class=block-text>Trial 22 out of 78</p>","null","pattern_show_trial_num","","","","","","","","","","","","","","","","","","","","","","","","",""
"","","","","","image-keyboard-response","64","155473","0.0-2.0-5.0-1.21","63ead665638c8546d8c3a962","F1","batch6","","6116.799999952316","stim/no_53_1_b.png","j","pattern_response","true","j","pattern_33","6116.799999952316","true","21","","","","","","","","","","","","","","","","","","",""
"","","","","","html-keyboard-response","65","156798","0.0-2.0-5.0-0.22","63ead665638c8546d8c3a962","F1","batch6","","null","<p class=block-text>Trial 23 out of 78</p>","null","pattern_show_trial_num","","","","","","","","","","","","","","","","","","","","","","","","",""
"","","","","","image-keyboard-response","66","158217","0.0-2.0-5.0-1.22","63ead665638c8546d8c3a962","F1","batch6","","1415.3999999761581","stim/no_12_1.png","j","pattern_response","true","j","pattern_01","1415.3999999761581","true","22","","","","","","","","","","","","","","","","","","",""
"","","","","","html-keyboard-response","67","159528","0.0-2.0-5.0-0.23","63ead665638c8546d8c3a962","F1","batch6","","null","<p class=block-text>Trial 24 out of 78</p>","null","pattern_show_trial_num","","","","","","","","","","","","","","","","","","","","","","","","",""
"","","","","","image-keyboard-response","68","163948","0.0-2.0-5.0-1.23","63ead665638c8546d8c3a962","F1","batch6","","4418.599999904633","stim/yes_44_ver_w1_w.png","j","pattern_response","false","f","pattern_66","4418.599999904633","false","22","","","","","","","","","","","","","","","","","","",""
"","","","","","html-keyboard-response","69","165263","0.0-2.0-5.0-0.24","63ead665638c8546d8c3a962","F1","batch6","","null","<p class=block-text>Trial 25 out of 78</p>","null","pattern_show_trial_num","","","","","","","","","","","","","","","","","","","","","","","","",""
"","","","","","image-keyboard-response","70","168525","0.0-2.0-5.0-1.24","63ead665638c8546d8c3a962","F1","batch6","","3257.600000023842","stim/no_28_2.png","j","pattern_response","true","j","pattern_11","3257.600000023842","true","23","","","","","","","","","","","","","","","","","","",""
"","","","","","html-keyboard-response","71","169839","0.0-2.0-5.0-0.25","63ead665638c8546d8c3a962","F1","batch6","","null","<p class=block-text>Trial 26 out of 78</p>","null","pattern_show_trial_num","","","","","","","","","","","","","","","","","","","","","","","","",""
"","","","","","image-keyboard-response","72","172884","0.0-2.0-5.0-1.25","63ead665638c8546d8c3a962","F1","batch6","","3041.399999976158","stim/yes_29_hor_b1_b.png","f","pattern_response","true","f","pattern_52","3041.399999976158","true","24","","","","","","","","","","","","","","","","","","",""
"","","","","","html-keyboard-response","73","174202","0.0-2.0-5.0-0.26","63ead665638c8546d8c3a962","F1","batch6","","null","<p class=block-text>Trial 27 out of 78</p>","null","pattern_show_trial_num","","","","","","","","","","","","","","","","","","","","","","","","",""
"","","","","","image-keyboard-response","74","182111","0.0-2.0-5.0-1.26","63ead665638c8546d8c3a962","F1","batch6","","7905.799999952316","stim/no_67_1.png","j","pattern_response","true","j","pattern_39","7905.799999952316","true","25","","","","","","","","","","","","","","","","","","",""
"","","","","","html-keyboard-response","75","183438","0.0-2.0-5.0-0.27","63ead665638c8546d8c3a962","F1","batch6","","null","<p class=block-text>Trial 28 out of 78</p>","null","pattern_show_trial_num","","","","","","","","","","","","","","","","","","","","","","","","",""
"","","","","","image-keyboard-response","76","184359","0.0-2.0-5.0-1.27","63ead665638c8546d8c3a962","F1","batch6","","916.2999999523163","stim/yes_39_hor_w1_w.png","f","pattern_response","true","f","pattern_62","916.2999999523163","true","26","","","","","","","","","","","","","","","","","","",""
"","","","","","html-keyboard-response","77","185685","0.0-2.0-5.0-0.28","63ead665638c8546d8c3a962","F1","batch6","","null","<p class=block-text>Trial 29 out of 78</p>","null","pattern_show_trial_num","","","","","","","","","","","","","","","","","","","","","","","","",""
"","","","","","image-keyboard-response","78","188737","0.0-2.0-5.0-1.28","63ead665638c8546d8c3a962","F1","batch6","","3049.399999976158","stim/no_47_1_b.png","j","pattern_response","true","j","pattern_27","3049.399999976158","true","27","","","","","","","","","","","","","","","","","","",""
"","","","","","html-keyboard-response","79","190064","0.0-2.0-5.0-0.29","63ead665638c8546d8c3a962","F1","batch6","","null","<p class=block-text>Trial 30 out of 78</p>","null","pattern_show_trial_num","","","","","","","","","","","","","","","","","","","","","","","","",""
"","","","","","image-keyboard-response","80","191514","0.0-2.0-5.0-1.29","63ead665638c8546d8c3a962","F1","batch6","","1446.7000000476837","stim/no_22_1_b.png","j","pattern_response","true","j","pattern_07","1446.7000000476837","true","28","","","","","","","","","","","","","","","","","","",""
"","","","","","html-keyboard-response","81","192821","0.0-2.0-5.0-0.30","63ead665638c8546d8c3a962","F1","batch6","","null","<p class=block-text>Trial 31 out of 78</p>","null","pattern_show_trial_num","","","","","","","","","","","","","","","","","","","","","","","","",""
"","","","","","image-keyboard-response","82","198863","0.0-2.0-5.0-1.30","63ead665638c8546d8c3a962","F1","batch6","","6038.900000095367","stim/no_49_2_b.png","j","pattern_response","true","j","pattern_29","6038.900000095367","true","29","","","","","","","","","","","","","","","","","","",""
"","","","","","html-keyboard-response","83","200185","0.0-2.0-5.0-0.31","63ead665638c8546d8c3a962","F1","batch6","","null","<p class=block-text>Trial 32 out of 78</p>","null","pattern_show_trial_num","","","","","","","","","","","","","","","","","","","","","","","","",""
"","","","","","image-keyboard-response","84","203169","0.0-2.0-5.0-1.31","63ead665638c8546d8c3a962","F1","batch6","","2980.600000023842","stim/no_43_2_b.png","j","pattern_response","true","j","pattern_23","2980.600000023842","true","30","","","","","","","","","","","","","","","","","","",""
"","","","","","html-keyboard-response","85","204473","0.0-2.0-5.0-0.32","63ead665638c8546d8c3a962","F1","batch6","","null","<p class=block-text>Trial 33 out of 78</p>","null","pattern_show_trial_num","","","","","","","","","","","","","","","","","","","","","","","","",""
"","","","","","image-keyboard-response","86","205624","0.0-2.0-5.0-1.32","63ead665638c8546d8c3a962","F1","batch6","","1147.1000000238419","stim/no_15_1_w.png","j","pattern_response","true","j","pattern_03","1147.1000000238419","true","31","","","","","","","","","","","","","","","","","","",""
"","","","","","html-keyboard-response","87","206947","0.0-2.0-5.0-0.33","63ead665638c8546d8c3a962","F1","batch6","","null","<p class=block-text>Trial 34 out of 78</p>","null","pattern_show_trial_num","","","","","","","","","","","","","","","","","","","","","","","","",""
"","","","","","image-keyboard-response","88","209458","0.0-2.0-5.0-1.33","63ead665638c8546d8c3a962","F1","batch6","","2508.4000000953674","stim/yes_42_dia_w1_w.png","f","pattern_response","true","f","pattern_64","2508.4000000953674","true","32","","","","","","","","","","","","","","","","","","",""
"","","","","","html-keyboard-response","89","210777","0.0-2.0-5.0-0.34","63ead665638c8546d8c3a962","F1","batch6","","null","<p class=block-text>Trial 35 out of 78</p>","null","pattern_show_trial_num","","","","","","","","","","","","","","","","","","","","","","","","",""
"","","","","","image-keyboard-response","90","211558","0.0-2.0-5.0-1.34","63ead665638c8546d8c3a962","F1","batch6","","776.6000000238419","stim/yes_36_ver_w1_w.png","f","pattern_response","true","f","pattern_58","776.6000000238419","true","33","","","","","","","","","","","","","","","","","","",""
"","","","","","html-keyboard-response","91","212875","0.0-2.0-5.0-0.35","63ead665638c8546d8c3a962","F1","batch6","","null","<p class=block-text>Trial 36 out of 78</p>","null","pattern_show_trial_num","","","","","","","","","","","","","","","","","","","","","","","","",""
"","","","","","image-keyboard-response","92","214019","0.0-2.0-5.0-1.35","63ead665638c8546d8c3a962","F1","batch6","","1142.1000000238419","stim/yes_30_ver_b1_b.png","f","pattern_response","true","f","pattern_54","1142.1000000238419","true","34","","","","","","","","","","","","","","","","","","",""
"","","","","","html-keyboard-response","93","215340","0.0-2.0-5.0-0.36","63ead665638c8546d8c3a962","F1","batch6","","null","<p class=block-text>Trial 37 out of 78</p>","null","pattern_show_trial_num","","","","","","","","","","","","","","","","","","","","","","","","",""
"","","","","","image-keyboard-response","94","218510","0.0-2.0-5.0-1.36","63ead665638c8546d8c3a962","F1","batch6","","3167.0999999046326","stim/no_30_1_b.png","j","pattern_response","true","j","pattern_13","3167.0999999046326","true","35","","","","","","","","","","","","","","","","","","",""
"","","","","","html-keyboard-response","95","219834","0.0-2.0-5.0-0.37","63ead665638c8546d8c3a962","F1","batch6","","null","<p class=block-text>Trial 38 out of 78</p>","null","pattern_show_trial_num","","","","","","","","","","","","","","","","","","","","","","","","",""
"","","","","","image-keyboard-response","96","220962","0.0-2.0-5.0-1.37","63ead665638c8546d8c3a962","F1","batch6","","1124.8999999761581","stim/yes_49_hor_w1_b.png","f","pattern_response","true","f","pattern_70","1124.8999999761581","true","36","","","","","","","","","","","","","","","","","","",""
"","","","","","html-keyboard-response","97","222282","0.0-2.0-5.0-0.38","63ead665638c8546d8c3a962","F1","batch6","","null","<p class=block-text>Trial 39 out of 78</p>","null","pattern_show_trial_num","","","","","","","","","","","","","","","","","","","","","","","","",""
"","","","","","image-keyboard-response","98","230450","0.0-2.0-5.0-1.38","63ead665638c8546d8c3a962","F1","batch6","","8166","stim/no_58_1_w.png","j","pattern_response","true","j","pattern_35","8166","true","37","","","","","","","","","","","","","","","","","","",""
"","","","","","image-keyboard-response","99","232072","0.0-2.0-6.0","63ead665638c8546d8c3a962","F1","batch6","","1109.7999999523163","stim/empty_board.png","j","attention_check","true","j","","","","","500","[""f"",""j""]","","","","","","","","","","","","","","","","",""
"","","","","","html-keyboard-response","100","232888","0.0-2.0-7.0-0.0","63ead665638c8546d8c3a962","F1","batch6","","null","<p class=block-text>Trial 40 out of 78</p>","null","pattern_show_trial_num","","","","","","","","","","","","","","","","","","","","","","","","",""
"","","","","","image-keyboard-response","101","235039","0.0-2.0-7.0-1.0","63ead665638c8546d8c3a962","F1","batch6","","2148.899999976158","stim/yes_28_ver_b1.png","f","pattern_response","true","f","pattern_51","2148.899999976158","true","38","","","","","","","","","","","","","","","","","","",""
"","","","","","html-keyboard-response","102","236355","0.0-2.0-7.0-0.1","63ead665638c8546d8c3a962","F1","batch6","","null","<p class=block-text>Trial 41 out of 78</p>","null","pattern_show_trial_num","","","","","","","","","","","","","","","","","","","","","","","","",""
"","","","","","image-keyboard-response","103","237026","0.0-2.0-7.0-1.1","63ead665638c8546d8c3a962","F1","batch6","","667.7000000476837","stim/yes_14_hor_b1_w.png","f","pattern_response","true","f","pattern_43","667.7000000476837","true","39","","","","","","","","","","","","","","","","","","",""
"","","","","","html-keyboard-response","104","238343","0.0-2.0-7.0-0.2","63ead665638c8546d8c3a962","F1","batch6","","null","<p class=block-text>Trial 42 out of 78</p>","null","pattern_show_trial_num","","","","","","","","","","","","","","","","","","","","","","","","",""
"","","","","","image-keyboard-response","105","239155","0.0-2.0-7.0-1.2","63ead665638c8546d8c3a962","F1","batch6","","809.2000000476837","stim/yes_55_hor_w1_w.png","f","pattern_response","true","f","pattern_75","809.2000000476837","true","40","","","","","","","","","","","","","","","","","","",""
"","","","","","html-keyboard-response","106","240483","0.0-2.0-7.0-0.3","63ead665638c8546d8c3a962","F1","batch6","","null","<p class=block-text>Trial 43 out of 78</p>","null","pattern_show_trial_num","","","","","","","","","","","","","","","","","","","","","","","","",""
"","","","","","image-keyboard-response","107","241318","0.0-2.0-7.0-1.3","63ead665638c8546d8c3a962","F1","batch6","","831","stim/yes_43_ver_w1_w.png","f","pattern_response","true","f","pattern_65","831","true","41","","","","","","","","","","","","","","","","","","",""
"","","","","","html-keyboard-response","108","242642","0.0-2.0-7.0-0.4","63ead665638c8546d8c3a962","F1","batch6","","null","<p class=block-text>Trial 44 out of 78</p>","null","pattern_show_trial_num","","","","","","","","","","","","","","","","","","","","","","","","",""
"","","","","","image-keyboard-response","109","243545","0.0-2.0-7.0-1.4","63ead665638c8546d8c3a962","F1","batch6","","901.3999999761581","stim/no_13_2_b.png","j","pattern_response","true","j","pattern_02","901.3999999761581","true","42","","","","","","","","","","","","","","","","","","",""
"","","","","","html-keyboard-response","110","244858","0.0-2.0-7.0-0.5","63ead665638c8546d8c3a962","F1","batch6","","null","<p class=block-text>Trial 45 out of 78</p>","null","pattern_show_trial_num","","","","","","","","","","","","","","","","","","","","","","","","",""
"","","","","","image-keyboard-response","111","246225","0.0-2.0-7.0-1.5","63ead665638c8546d8c3a962","F1","batch6","","1364","stim/yes_38_hor_b1_b.png","f","pattern_response","true","f","pattern_61","1364","true","43","","","","","","","","","","","","","","","","","","",""
"","","","","","html-keyboard-response","112","247540","0.0-2.0-7.0-0.6","63ead665638c8546d8c3a962","F1","batch6","","null","<p class=block-text>Trial 46 out of 78</p>","null","pattern_show_trial_num","","","","","","","","","","","","","","","","","","","","","","","","",""
"","","","","","image-keyboard-response","113","249877","0.0-2.0-7.0-1.6","63ead665638c8546d8c3a962","F1","batch6","","2334","stim/yes_67_hor_b1.png","f","pattern_response","true","f","pattern_79","2334","true","44","","","","","","","","","","","","","","","","","","",""
"","","","","","html-keyboard-response","114","251203","0.0-2.0-7.0-0.7","63ead665638c8546d8c3a962","F1","batch6","","null","<p class=block-text>Trial 47 out of 78</p>","null","pattern_show_trial_num","","","","","","","","","","","","","","","","","","","","","","","","",""
"","","","","","image-keyboard-response","115","255388","0.0-2.0-7.0-1.7","63ead665638c8546d8c3a962","F1","batch6","","4180.5","stim/no_34_1_b.png","j","pattern_response","true","j","pattern_16","4180.5","true","45","","","","","","","","","","","","","","","","","","",""
"","","","","","html-keyboard-response","116","256716","0.0-2.0-7.0-0.8","63ead665638c8546d8c3a962","F1","batch6","","null","<p class=block-text>Trial 48 out of 78</p>","null","pattern_show_trial_num","","","","","","","","","","","","","","","","","","","","","","","","",""
"","","","","","image-keyboard-response","117","261610","0.0-2.0-7.0-1.8","63ead665638c8546d8c3a962","F1","batch6","","4891.899999976158","stim/yes_50_dia_w1.png","j","pattern_response","false","f","pattern_71","4891.899999976158","false","45","","","","","","","","","","","","","","","","","","",""
"","","","","","html-keyboard-response","118","262923","0.0-2.0-7.0-0.9","63ead665638c8546d8c3a962","F1","batch6","","null","<p class=block-text>Trial 49 out of 78</p>","null","pattern_show_trial_num","","","","","","","","","","","","","","","","","","","","","","","","",""
"","","","","","image-keyboard-response","119","263628","0.0-2.0-7.0-1.9","63ead665638c8546d8c3a962","F1","batch6","","701.4000000953674","stim/yes_22_ver_w1.png","f","pattern_response","true","f","pattern_47","701.4000000953674","true","46","","","","","","","","","","","","","","","","","","",""
"","","","","","html-keyboard-response","120","264944","0.0-2.0-7.0-0.10","63ead665638c8546d8c3a962","F1","batch6","","null","<p class=block-text>Trial 50 out of 78</p>","null","pattern_show_trial_num","","","","","","","","","","","","","","","","","","","","","","","","",""
"","","","","","image-keyboard-response","121","267736","0.0-2.0-7.0-1.10","63ead665638c8546d8c3a962","F1","batch6","","2789.9000000953674","stim/yes_37_dia_w1.png","j","pattern_response","false","f","pattern_59","2789.9000000953674","false","46","","","","","","","","","","","","","","","","","","",""
"","","","","","html-keyboard-response","122","269050","0.0-2.0-7.0-0.11","63ead665638c8546d8c3a962","F1","batch6","","null","<p class=block-text>Trial 51 out of 78</p>","null","pattern_show_trial_num","","","","","","","","","","","","","","","","","","","","","","","","",""
"","","","","","image-keyboard-response","123","269737","0.0-2.0-7.0-1.11","63ead665638c8546d8c3a962","F1","batch6","","683.6000000238419","stim/yes_25_hor_b1_b.png","f","pattern_response","true","f","pattern_49","683.6000000238419","true","47","","","","","","","","","","","","","","","","","","",""
"","","","","","html-keyboard-response","124","271065","0.0-2.0-7.0-0.12","63ead665638c8546d8c3a962","F1","batch6","","null","<p class=block-text>Trial 52 out of 78</p>","null","pattern_show_trial_num","","","","","","","","","","","","","","","","","","","","","","","","",""
"","","","","","image-keyboard-response","125","275482","0.0-2.0-7.0-1.12","63ead665638c8546d8c3a962","F1","batch6","","4413.399999976158","stim/no_55_1_w.png","j","pattern_response","true","j","pattern_34","4413.399999976158","true","48","","","","","","","","","","","","","","","","","","",""
"","","","","","html-keyboard-response","126","276795","0.0-2.0-7.0-0.13","63ead665638c8546d8c3a962","F1","batch6","","null","<p class=block-text>Trial 53 out of 78</p>","null","pattern_show_trial_num","","","","","","","","","","","","","","","","","","","","","","","","",""
"","","","","","image-keyboard-response","127","279720","0.0-2.0-7.0-1.13","63ead665638c8546d8c3a962","F1","batch6","","2922.2000000476837","stim/no_44_1.png","j","pattern_response","true","j","pattern_24","2922.2000000476837","true","49","","","","","","","","","","","","","","","","","","",""
"","","","","","html-keyboard-response","128","281031","0.0-2.0-7.0-0.14","63ead665638c8546d8c3a962","F1","batch6","","null","<p class=block-text>Trial 54 out of 78</p>","null","pattern_show_trial_num","","","","","","","","","","","","","","","","","","","","","","","","",""
"","","","","","image-keyboard-response","129","282766","0.0-2.0-7.0-1.14","63ead665638c8546d8c3a962","F1","batch6","","1731.5999999046326","stim/yes_29_ver_w1.png","f","pattern_response","true","f","pattern_53","1731.5999999046326","true","50","","","","","","","","","","","","","","","","","","",""
"","","","","","html-keyboard-response","130","284086","0.0-2.0-7.0-0.15","63ead665638c8546d8c3a962","F1","batch6","","null","<p class=block-text>Trial 55 out of 78</p>","null","pattern_show_trial_num","","","","","","","","","","","","","","","","","","","","","","","","",""
"","","","","","image-keyboard-response","131","287931","0.0-2.0-7.0-1.15","63ead665638c8546d8c3a962","F1","batch6","","3841.9000000953674","stim/no_48_1_w.png","j","pattern_response","true","j","pattern_28","3841.9000000953674","true","51","","","","","","","","","","","","","","","","","","",""
"","","","","","html-keyboard-response","132","289251","0.0-2.0-7.0-0.16","63ead665638c8546d8c3a962","F1","batch6","","null","<p class=block-text>Trial 56 out of 78</p>","null","pattern_show_trial_num","","","","","","","","","","","","","","","","","","","","","","","","",""
"","","","","","image-keyboard-response","133","295752","0.0-2.0-7.0-1.16","63ead665638c8546d8c3a962","F1","batch6","","6497.5","stim/no_70_2.png","j","pattern_response","true","j","pattern_40","6497.5","true","52","","","","","","","","","","","","","","","","","","",""
"","","","","","html-keyboard-response","134","297076","0.0-2.0-7.0-0.17","63ead665638c8546d8c3a962","F1","batch6","","null","<p class=block-text>Trial 57 out of 78</p>","null","pattern_show_trial_num","","","","","","","","","","","","","","","","","","","","","","","","",""
"","","","","","image-keyboard-response","135","300070","0.0-2.0-7.0-1.17","63ead665638c8546d8c3a962","F1","batch6","","2991.600000023842","stim/no_46_1_b.png","j","pattern_response","true","j","pattern_26","2991.600000023842","true","53","","","","","","","","","","","","","","","","","","",""
"","","","","","html-keyboard-response","136","301386","0.0-2.0-7.0-0.18","63ead665638c8546d8c3a962","F1","batch6","","null","<p class=block-text>Trial 58 out of 78</p>","null","pattern_show_trial_num","","","","","","","","","","","","","","","","","","","","","","","","",""
"","","","","","image-keyboard-response","137","303351","0.0-2.0-7.0-1.18","63ead665638c8546d8c3a962","F1","batch6","","1962","stim/no_26_1_w.png","j","pattern_response","true","j","pattern_10","1962","true","54","","","","","","","","","","","","","","","","","","",""
"","","","","","html-keyboard-response","138","304672","0.0-2.0-7.0-0.19","63ead665638c8546d8c3a962","F1","batch6","","null","<p class=block-text>Trial 59 out of 78</p>","null","pattern_show_trial_num","","","","","","","","","","","","","","","","","","","","","","","","",""
"","","","","","image-keyboard-response","139","306279","0.0-2.0-7.0-1.19","63ead665638c8546d8c3a962","F1","batch6","","1602.8000000715256","stim/yes_31_hor_b1.png","f","pattern_response","true","f","pattern_55","1602.8000000715256","true","55","","","","","","","","","","","","","","","","","","",""
"","","","","","html-keyboard-response","140","307594","0.0-2.0-7.0-0.20","63ead665638c8546d8c3a962","F1","batch6","","null","<p class=block-text>Trial 60 out of 78</p>","null","pattern_show_trial_num","","","","","","","","","","","","","","","","","","","","","","","","",""
"","","","","","image-keyboard-response","141","308791","0.0-2.0-7.0-1.20","63ead665638c8546d8c3a962","F1","batch6","","1194.2000000476837","stim/no_20_1_w.png","j","pattern_response","true","j","pattern_06","1194.2000000476837","true","56","","","","","","","","","","","","","","","","","","",""
"","","","","","html-keyboard-response","142","310109","0.0-2.0-7.0-0.21","63ead665638c8546d8c3a962","F1","batch6","","null","<p class=block-text>Trial 61 out of 78</p>","null","pattern_show_trial_num","","","","","","","","","","","","","","","","","","","","","","","","",""
"","","","","","image-keyboard-response","143","312999","0.0-2.0-7.0-1.21","63ead665638c8546d8c3a962","F1","batch6","","2886.7999999523163","stim/no_38_1_b.png","j","pattern_response","true","j","pattern_20","2886.7999999523163","true","57","","","","","","","","","","","","","","","","","","",""
"","","","","","html-keyboard-response","144","314321","0.0-2.0-7.0-0.22","63ead665638c8546d8c3a962","F1","batch6","","null","<p class=block-text>Trial 62 out of 78</p>","null","pattern_show_trial_num","","","","","","","","","","","","","","","","","","","","","","","","",""
"","","","","","image-keyboard-response","145","316637","0.0-2.0-7.0-1.22","63ead665638c8546d8c3a962","F1","batch6","","2313.399999976158","stim/yes_35_dia_b1.png","f","pattern_response","true","f","pattern_57","2313.399999976158","true","58","","","","","","","","","","","","","","","","","","",""
"","","","","","html-keyboard-response","146","317951","0.0-2.0-7.0-0.23","63ead665638c8546d8c3a962","F1","batch6","","null","<p class=block-text>Trial 63 out of 78</p>","null","pattern_show_trial_num","","","","","","","","","","","","","","","","","","","","","","","","",""
"","","","","","image-keyboard-response","147","323342","0.0-2.0-7.0-1.23","63ead665638c8546d8c3a962","F1","batch6","","5383.699999928474","stim/yes_48_dia_w1_w.png","j","pattern_response","false","f","pattern_69","5383.699999928474","false","58","","","","","","","","","","","","","","","","","","",""
"","","","","","html-keyboard-response","148","324666","0.0-2.0-7.0-0.24","63ead665638c8546d8c3a962","F1","batch6","","null","<p class=block-text>Trial 64 out of 78</p>","null","pattern_show_trial_num","","","","","","","","","","","","","","","","","","","","","","","","",""
"","","","","","image-keyboard-response","149","325512","0.0-2.0-7.0-1.24","63ead665638c8546d8c3a962","F1","batch6","","844.2999999523163","stim/yes_17_dia_w1.png","f","pattern_response","true","f","pattern_45","844.2999999523163","true","59","","","","","","","","","","","","","","","","","","",""
"","","","","","html-keyboard-response","150","326829","0.0-2.0-7.0-0.25","63ead665638c8546d8c3a962","F1","batch6","","null","<p class=block-text>Trial 65 out of 78</p>","null","pattern_show_trial_num","","","","","","","","","","","","","","","","","","","","","","","","",""
"","","","","","image-keyboard-response","151","330695","0.0-2.0-7.0-1.25","63ead665638c8546d8c3a962","F1","batch6","","3864.1999999284744","stim/no_36_2_w.png","j","pattern_response","true","j","pattern_18","3864.1999999284744","true","60","","","","","","","","","","","","","","","","","","",""
"","","","","","html-keyboard-response","152","332015","0.0-2.0-7.0-0.26","63ead665638c8546d8c3a962","F1","batch6","","null","<p class=block-text>Trial 66 out of 78</p>","null","pattern_show_trial_num","","","","","","","","","","","","","","","","","","","","","","","","",""
"","","","","","image-keyboard-response","153","333156","0.0-2.0-7.0-1.26","63ead665638c8546d8c3a962","F1","batch6","","1138.9000000953674","stim/yes_45_hor_b2_b.png","f","pattern_response","true","f","pattern_67","1138.9000000953674","true","61","","","","","","","","","","","","","","","","","","",""
"","","","","","html-keyboard-response","154","334468","0.0-2.0-7.0-0.27","63ead665638c8546d8c3a962","F1","batch6","","null","<p class=block-text>Trial 67 out of 78</p>","null","pattern_show_trial_num","","","","","","","","","","","","","","","","","","","","","","","","",""
"","","","","","image-keyboard-response","155","335458","0.0-2.0-7.0-1.27","63ead665638c8546d8c3a962","F1","batch6","","987","stim/no_17_1_w.png","j","pattern_response","true","j","pattern_04","987","true","62","","","","","","","","","","","","","","","","","","",""
"","","","","","html-keyboard-response","156","336771","0.0-2.0-7.0-0.28","63ead665638c8546d8c3a962","F1","batch6","","null","<p class=block-text>Trial 68 out of 78</p>","null","pattern_show_trial_num","","","","","","","","","","","","","","","","","","","","","","","","",""
"","","","","","image-keyboard-response","157","337999","0.0-2.0-7.0-1.28","63ead665638c8546d8c3a962","F1","batch6","","1224.5999999046326","stim/no_23_1.png","j","pattern_response","true","j","pattern_08","1224.5999999046326","true","63","","","","","","","","","","","","","","","","","","",""
"","","","","","html-keyboard-response","158","339315","0.0-2.0-7.0-0.29","63ead665638c8546d8c3a962","F1","batch6","","null","<p class=block-text>Trial 69 out of 78</p>","null","pattern_show_trial_num","","","","","","","","","","","","","","","","","","","","","","","","",""
"","","","","","image-keyboard-response","159","341568","0.0-2.0-7.0-1.29","63ead665638c8546d8c3a962","F1","batch6","","2232.2000000476837","stim/no_29_1_b.png","j","pattern_response","true","j","pattern_12","2232.2000000476837","true","64","","","","","","","","","","","","","","","","","","",""
"","","","","","html-keyboard-response","160","342890","0.0-2.0-7.0-0.30","63ead665638c8546d8c3a962","F1","batch6","","null","<p class=block-text>Trial 70 out of 78</p>","null","pattern_show_trial_num","","","","","","","","","","","","","","","","","","","","","","","","",""
"","","","","","image-keyboard-response","161","344277","0.0-2.0-7.0-1.30","63ead665638c8546d8c3a962","F1","batch6","","1384.3000000715256","stim/yes_40_dia_b1_b.png","f","pattern_response","true","f","pattern_63","1384.3000000715256","true","65","","","","","","","","","","","","","","","","","","",""
"","","","","","html-keyboard-response","162","345592","0.0-2.0-7.0-0.31","63ead665638c8546d8c3a962","F1","batch6","","null","<p class=block-text>Trial 71 out of 78</p>","null","pattern_show_trial_num","","","","","","","","","","","","","","","","","","","","","","","","",""
"","","","","","image-keyboard-response","163","350562","0.0-2.0-7.0-1.31","63ead665638c8546d8c3a962","F1","batch6","","4967.700000047684","stim/no_50_1.png","j","pattern_response","true","j","pattern_30","4967.700000047684","true","66","","","","","","","","","","","","","","","","","","",""
"","","","","","html-keyboard-response","164","351887","0.0-2.0-7.0-0.32","63ead665638c8546d8c3a962","F1","batch6","","null","<p class=block-text>Trial 72 out of 78</p>","null","pattern_show_trial_num","","","","","","","","","","","","","","","","","","","","","","","","",""
"","","","","","image-keyboard-response","165","354927","0.0-2.0-7.0-1.32","63ead665638c8546d8c3a962","F1","batch6","","3037.6999999284744","stim/yes_52_ver_w1.png","f","pattern_response","true","f","pattern_73","3037.6999999284744","true","67","","","","","","","","","","","","","","","","","","",""
"","","","","","html-keyboard-response","166","356248","0.0-2.0-7.0-0.33","63ead665638c8546d8c3a962","F1","batch6","","null","<p class=block-text>Trial 73 out of 78</p>","null","pattern_show_trial_num","","","","","","","","","","","","","","","","","","","","","","","","",""
"","","","","","image-keyboard-response","167","358002","0.0-2.0-7.0-1.33","63ead665638c8546d8c3a962","F1","batch6","","1751.1000000238419","stim/no_32_1_w.png","j","pattern_response","true","j","pattern_14","1751.1000000238419","true","68","","","","","","","","","","","","","","","","","","",""
"","","","","","html-keyboard-response","168","359331","0.0-2.0-7.0-0.34","63ead665638c8546d8c3a962","F1","batch6","","null","<p class=block-text>Trial 74 out of 78</p>","null","pattern_show_trial_num","","","","","","","","","","","","","","","","","","","","","","","","",""
"","","","","","image-keyboard-response","169","360641","0.0-2.0-7.0-1.34","63ead665638c8546d8c3a962","F1","batch6","","1307.1999999284744","stim/yes_60_ver_b1_b.png","f","pattern_response","true","f","pattern_77","1307.1999999284744","true","69","","","","","","","","","","","","","","","","","","",""
"","","","","","html-keyboard-response","170","361954","0.0-2.0-7.0-0.35","63ead665638c8546d8c3a962","F1","batch6","","null","<p class=block-text>Trial 75 out of 78</p>","null","pattern_show_trial_num","","","","","","","","","","","","","","","","","","","","","","","","",""
"","","","","","image-keyboard-response","171","365804","0.0-2.0-7.0-1.35","63ead665638c8546d8c3a962","F1","batch6","","3847.3000000715256","stim/no_65_1_b.png","j","pattern_response","true","j","pattern_38","3847.3000000715256","true","70","","","","","","","","","","","","","","","","","","",""
"","","","","","html-keyboard-response","172","367121","0.0-2.0-7.0-0.36","63ead665638c8546d8c3a962","F1","batch6","","null","<p class=block-text>Trial 76 out of 78</p>","null","pattern_show_trial_num","","","","","","","","","","","","","","","","","","","","","","","","",""
"","","","","","image-keyboard-response","173","371008","0.0-2.0-7.0-1.36","63ead665638c8546d8c3a962","F1","batch6","","3884","stim/no_52_1.png","j","pattern_response","true","j","pattern_32","3884","true","71","","","","","","","","","","","","","","","","","","",""
"","","","","","html-keyboard-response","174","372330","0.0-2.0-7.0-0.37","63ead665638c8546d8c3a962","F1","batch6","","null","<p class=block-text>Trial 77 out of 78</p>","null","pattern_show_trial_num","","","","","","","","","","","","","","","","","","","","","","","","",""
"","","","","","image-keyboard-response","175","377210","0.0-2.0-7.0-1.37","63ead665638c8546d8c3a962","F1","batch6","","4876","stim/no_62_1_w.png","j","pattern_response","true","j","pattern_36","4876","true","72","","","","","","","","","","","","","","","","","","",""
"","","","","","html-keyboard-response","176","378525","0.0-2.0-7.0-0.38","63ead665638c8546d8c3a962","F1","batch6","","null","<p class=block-text>Trial 78 out of 78</p>","null","pattern_show_trial_num","","","","","","","","","","","","","","","","","","","","","","","","",""
"","","","","","image-keyboard-response","177","381486","0.0-2.0-7.0-1.38","63ead665638c8546d8c3a962","F1","batch6","","2959","stim/no_42_1_w.png","j","pattern_response","true","j","pattern_22","2959","true","73","","","","","","","","","","","","","","","","","","",""
"","","","","","html-button-response","178","414524","0.0-2.0-8.0","63ead665638c8546d8c3a962","F1","batch6","","32531.400000095367","<p class = block-text>This concludes the 4-in-a-row detection game.Thank you for your responses!<br>
            You responded correctly on 94% of the trials.<br>
            When you are ready, press ""Continue"" button to continue </p>","0","","","","","","","","","","","","","","","","","","","","","","","","","",""
"true","","","","","fullscreen","179","416751","0.0-3.0-0.0","63ead665638c8546d8c3a962","F1","batch6","","","","","","","","","","","","","","","","","","","","","","","","","","","","","",""
"","","","","","instructions","180","481258","0.0-3.0-1.0-0.0-0.0","63ead665638c8546d8c3a962","F1","batch6","[{""page_index"":0,""viewing_time"":9934.5},{""page_index"":1,""viewing_time"":5515.600000023842},{""page_index"":2,""viewing_time"":8020.199999928474},{""page_index"":3,""viewing_time"":8782},{""page_index"":4,""viewing_time"":17745.300000071526},{""page_index"":5,""viewing_time"":12121.399999976158},{""page_index"":6,""viewing_time"":2385.899999976158}]","64505.199999928474","","","tol-instructions","","","","","","","","","","","","","","","","","","","","","","","","",""
"","","","","","html-button-response","181","482012","0.0-3.0-1.0-1.0-0.0","63ead665638c8546d8c3a962","F1","batch6","","753","<p class=block-text> Let's answer a few questions <br>","0","tol_enter_quiz","","","","","","","","","","","","","","","","","","","","","","","","",""
"","","","","","html-button-response","182","486539","0.0-3.0-1.0-1.0-1.0","63ead665638c8546d8c3a962","F1","batch6","","4526.200000047684","<p class = block-text>True or False: You can only move the ball on top of a peg. <br></p>","0","tol_quiz","true","","","","","","","","","","","","","","","","","","","","","","","",""
"","","","","","html-button-response","183","487406","0.0-3.0-1.0-1.0-2.0","63ead665638c8546d8c3a962","F1","batch6","","865.7000000476837","<p class = block-text>Correct! You can only move the ball on top of a peg.</p>","0","tol_quiz_feedback","","","","","","","","","","","","","","","","","","","","","","","","",""
"","","","","","html-button-response","184","489487","0.0-3.0-1.0-1.0-3.0","63ead665638c8546d8c3a962","F1","batch6","","2079.899999976158","<p class = block-text>True or False: You should try to match your board with the target board with fewest moves possible. <br></p>","0","tol_quiz","true","","","","","","","","","","","","","","","","","","","","","","","",""
"","","","","","html-button-response","185","490068","0.0-3.0-1.0-1.0-4.0","63ead665638c8546d8c3a962","F1","batch6","","580.3000000715256","<p class = block-text>Correct! </p>","0","tol_quiz_feedback","","","","","","","","","","","","","","","","","","","","","","","","",""
"","","","","","html-button-response","186","490904","0.0-3.0-2.0","63ead665638c8546d8c3a962","F1","batch6","","834.7999999523163","<p class=block-text> Now that you've understood the game, let's practice a few easier examples before we start!<br> <br>","0","","","","","","","","","","","","","","","","","","","","","","","","","",""
"","","","","","single-stim-button","187","494024","0.0-3.0-3.0-0.0","63ead665638c8546d8c3a962","F1","batch6","","3118","","","tol_practice","","","","","","","","","tol_peg_2","3118","3118","0","[[1,2,0],[0,0],[0]]","1","[[1,2,0],[0,0],[3]]","practice","3118","","","","","","","",""
"","","","","","single-stim-button","188","495001","0.0-3.0-3.0-1.0","63ead665638c8546d8c3a962","F1","batch6","","975","","","tol_practice","","","","","","","","","tol_peg_3","975","975","0","[[1,2,0],[0,0],[3]]","1","[[1,2,0],[0,0],[3]]","practice","975","","","","","","","",""
"","","","","","poldrack-single-stim","189","496012","0.0-3.0-4.0","63ead665638c8546d8c3a962","F1","batch6","","-1","","","tol_feedback","true","","","","","","","","","1000","1000","500","","","","","","-1","none","true","","0","","",""
"","","","","","single-stim-button","190","502551","0.0-3.0-5.0-0.0","63ead665638c8546d8c3a962","F1","batch6","","6538","","","tol_practice","","","","","","","","","tol_peg_1","6538","6538","0","[[1,0,0],[3,0],[0]]","2","[[0,0,0],[3,1],[2]]","practice","6538","","","","","","","",""
"","","","","","single-stim-button","191","503253","0.0-3.0-5.0-1.0","63ead665638c8546d8c3a962","F1","batch6","","701","","","tol_practice","","","","","","","","","tol_peg_3","701","701","0","[[1,0,0],[3,0],[2]]","2","[[0,0,0],[3,1],[2]]","practice","701","","","","","","","",""
"","","","","","single-stim-button","192","503917","0.0-3.0-5.1-0.1","63ead665638c8546d8c3a962","F1","batch6","","662","","","tol_practice","","","","","","","","","tol_peg_1","662","662","0","[[0,0,0],[3,0],[2]]","3","[[0,0,0],[3,1],[2]]","practice","662","","","","","","","",""
"","","","","","single-stim-button","193","504732","0.0-3.0-5.1-1.1","63ead665638c8546d8c3a962","F1","batch6","","814","","","tol_practice","","","","","","","","","tol_peg_2","814","814","0","[[0,0,0],[3,1],[2]]","3","[[0,0,0],[3,1],[2]]","practice","814","","","","","","","",""
"","","","","","poldrack-single-stim","194","505733","0.0-3.0-6.0","63ead665638c8546d8c3a962","F1","batch6","","-1","","","tol_feedback","true","","","","","","","","","1000","1000","500","","","","","","-1","none","true","","0","","",""
"","","","","","single-stim-button","195","509892","0.0-3.0-7.0-0.0","63ead665638c8546d8c3a962","F1","batch6","","4157","","","tol_practice","","","","","","","","","tol_peg_2","4157","4157","0","[[1,2,0],[0,0],[0]]","4","[[1,0,0],[2,0],[3]]","practice","4157","","","","","","","",""
"","","","","","single-stim-button","196","510666","0.0-3.0-7.0-1.0","63ead665638c8546d8c3a962","F1","batch6","","774","","","tol_practice","","","","","","","","","tol_peg_3","774","774","0","[[1,2,0],[0,0],[3]]","4","[[1,0,0],[2,0],[3]]","practice","774","","","","","","","",""
"","","","","","single-stim-button","197","511277","0.0-3.0-7.1-0.1","63ead665638c8546d8c3a962","F1","batch6","","610","","","tol_practice","","","","","","","","","tol_peg_1","610","610","0","[[1,0,0],[0,0],[3]]","5","[[1,0,0],[2,0],[3]]","practice","610","","","","","","","",""
"","","","","","single-stim-button","198","511930","0.0-3.0-7.1-1.1","63ead665638c8546d8c3a962","F1","batch6","","652","","","tol_practice","","","","","","","","","tol_peg_2","652","652","0","[[1,0,0],[2,0],[3]]","5","[[1,0,0],[2,0],[3]]","practice","652","","","","","","","",""
"","","","","","poldrack-single-stim","199","512945","0.0-3.0-8.0","63ead665638c8546d8c3a962","F1","batch6","","-1","","","tol_feedback","true","","","","","","","","","1000","1000","500","","","","","","-1","none","true","","0","","",""
"","","","","","html-button-response","200","516687","0.0-3.0-9.0","63ead665638c8546d8c3a962","F1","batch6","","3740.600000023842","<div class = centerbox><p class = center-block-text>Great job! You are done with practice trials<br>You are about to start official trials.<br> <br> Problem <strong>1</strong> out of 25 problems</p></div>","0","tol_instruction","","","","","","","","","","","","","","","","","","","","","","","","",""
"","","","","","single-stim-button","201","520708","0.0-3.0-10.0-0.0","63ead665638c8546d8c3a962","F1","batch6","","3010","","","tol_tohand","","","","","","","","","tol_peg_2","3010","3010","0","[[1,2,0],[0,0],[0]]","1","[[1,3,0],[2,0],[0]]","0","0","","","","","","3","",""
"","","","","","single-stim-button","202","521564","0.0-3.0-10.0-1.0","63ead665638c8546d8c3a962","F1","batch6","","855","","","tol_toboard","","","","","","","","","tol_peg_3","855","855","0","[[1,2,0],[0,0],[3]]","1","[[1,3,0],[2,0],[0]]","0","0","","","","","","3","",""
"","","","","","single-stim-button","203","524008","0.0-3.0-10.1-0.1","63ead665638c8546d8c3a962","F1","batch6","","2443","","","tol_tohand","","","","","","","","","tol_peg_1","2443","2443","0","[[1,0,0],[0,0],[3]]","2","[[1,3,0],[2,0],[0]]","0","0","","","","","","3","",""
"","","","","","single-stim-button","204","524874","0.0-3.0-10.1-1.1","63ead665638c8546d8c3a962","F1","batch6","","864","","","tol_toboard","","","","","","","","","tol_peg_2","864","864","0","[[1,0,0],[2,0],[3]]","2","[[1,3,0],[2,0],[0]]","0","0","","","","","","3","",""
"","","","","","single-stim-button","205","525790","0.0-3.0-10.2-0.2","63ead665638c8546d8c3a962","F1","batch6","","915","","","tol_tohand","","","","","","","","","tol_peg_3","915","915","0","[[1,0,0],[2,0],[0]]","3","[[1,3,0],[2,0],[0]]","0","0","","","","","","3","",""
"","","","","","single-stim-button","206","526474","0.0-3.0-10.2-1.2","63ead665638c8546d8c3a962","F1","batch6","","683","","","tol_toboard","","","","","","","","","tol_peg_1","683","683","0","[[1,3,0],[2,0],[0]]","3","[[1,3,0],[2,0],[0]]","0","0","","","","","","3","",""
"","","","","","poldrack-single-stim","207","527477","0.0-3.0-11.0","63ead665638c8546d8c3a962","F1","batch6","","-1","","","tol_feedback","true","","","","","","","","","1000","1000","500","","","","","","-1","none","true","3010","6368","","",""
"","","","","","html-button-response","208","528698","0.0-3.0-12.0","63ead665638c8546d8c3a962","F1","batch6","","1219","<div class = centerbox><p class = center-block-text>problem <strong>2</strong> out of 25 problems</p></div>","0","tol_trial_num","","","","","","","","","","","","","","","","","","","","","","","","",""
"","","","","","single-stim-button","209","540034","0.0-3.0-13.0-0.0","63ead665638c8546d8c3a962","F1","batch6","","11335","","","tol_tohand","","","","","","","","","tol_peg_1","11335","11335","0","[[1,0,0],[3,0],[0]]","1","[[2,1,3],[0,0],[0]]","1","0","","","","","","5","",""
"","","","","","single-stim-button","210","542000","0.0-3.0-13.0-1.0","63ead665638c8546d8c3a962","F1","batch6","","1964","","","tol_toboard","","","","","","","","","tol_peg_2","1964","1964","0","[[1,0,0],[3,2],[0]]","1","[[2,1,3],[0,0],[0]]","1","0","","","","","","5","",""
"","","","","","single-stim-button","211","542692","0.0-3.0-13.1-0.1","63ead665638c8546d8c3a962","F1","batch6","","691","","","tol_tohand","","","","","","","","","tol_peg_1","691","691","0","[[0,0,0],[3,2],[0]]","2","[[2,1,3],[0,0],[0]]","1","0","","","","","","5","",""
"","","","","","single-stim-button","212","543802","0.0-3.0-13.1-1.1","63ead665638c8546d8c3a962","F1","batch6","","1110","","","tol_toboard","","","","","","","","","tol_peg_3","1110","1110","0","[[0,0,0],[3,2],[1]]","2","[[2,1,3],[0,0],[0]]","1","0","","","","","","5","",""
"","","","","","single-stim-button","213","544495","0.0-3.0-13.2-0.2","63ead665638c8546d8c3a962","F1","batch6","","692","","","tol_tohand","","","","","","","","","tol_peg_2","692","692","0","[[0,0,0],[3,0],[1]]","3","[[2,1,3],[0,0],[0]]","1","0","","","","","","5","",""
"","","","","","single-stim-button","214","545493","0.0-3.0-13.2-1.2","63ead665638c8546d8c3a962","F1","batch6","","997","","","tol_toboard","","","","","","","","","tol_peg_1","997","997","0","[[2,0,0],[3,0],[1]]","3","[[2,1,3],[0,0],[0]]","1","0","","","","","","5","",""
"","","","","","single-stim-button","215","546644","0.0-3.0-13.3-0.3","63ead665638c8546d8c3a962","F1","batch6","","1151","","","tol_tohand","","","","","","","","","tol_peg_3","1151","1151","0","[[2,0,0],[3,0],[0]]","4","[[2,1,3],[0,0],[0]]","1","0","","","","","","5","",""
"","","","","","single-stim-button","216","547408","0.0-3.0-13.3-1.3","63ead665638c8546d8c3a962","F1","batch6","","763","","","tol_toboard","","","","","","","","","tol_peg_1","763","763","0","[[2,1,0],[3,0],[0]]","4","[[2,1,3],[0,0],[0]]","1","0","","","","","","5","",""
"","","","","","single-stim-button","217","548009","0.0-3.0-13.4-0.4","63ead665638c8546d8c3a962","F1","batch6","","599","","","tol_tohand","","","","","","","","","tol_peg_2","599","599","0","[[2,1,0],[0,0],[0]]","5","[[2,1,3],[0,0],[0]]","1","0","","","","","","5","",""
"","","","","","single-stim-button","218","548467","0.0-3.0-13.4-1.4","63ead665638c8546d8c3a962","F1","batch6","","457","","","tol_toboard","","","","","","","","","tol_peg_1","457","457","0","[[2,1,3],[0,0],[0]]","5","[[2,1,3],[0,0],[0]]","1","0","","","","","","5","",""
"","","","","","poldrack-single-stim","219","549478","0.0-3.0-14.0","63ead665638c8546d8c3a962","F1","batch6","","-1","","","tol_feedback","true","","","","","","","","","1000","1000","500","","","","","","-1","none","true","11335","14468","","",""
"","","","","","html-button-response","220","550417","0.0-3.0-15.0","63ead665638c8546d8c3a962","F1","batch6","","937.7000000476837","<div class = centerbox><p class = center-block-text>problem <strong>3</strong> out of 25 problems</p></div>","0","tol_trial_num","","","","","","","","","","","","","","","","","","","","","","","","",""
"","","","","","single-stim-button","221","553269","0.0-3.0-16.0-0.0","63ead665638c8546d8c3a962","F1","batch6","","2852","","","tol_tohand","","","","","","","","","tol_peg_1","2852","2852","0","[[2,0,0],[0,0],[1]]","1","[[1,2,0],[3,0],[0]]","2","0","","","","","","4","",""
"","","","","","single-stim-button","222","554002","0.0-3.0-16.0-1.0","63ead665638c8546d8c3a962","F1","batch6","","733","","","tol_toboard","","","","","","","","","tol_peg_2","733","733","0","[[2,0,0],[3,0],[1]]","1","[[1,2,0],[3,0],[0]]","2","0","","","","","","4","",""
"","","","","","single-stim-button","223","555957","0.0-3.0-16.1-0.1","63ead665638c8546d8c3a962","F1","batch6","","1953","","","tol_tohand","","","","","","","","","tol_peg_1","1953","1953","0","[[0,0,0],[3,0],[1]]","2","[[1,2,0],[3,0],[0]]","2","0","","","","","","4","",""
"","","","","","single-stim-button","224","557006","0.0-3.0-16.1-1.1","63ead665638c8546d8c3a962","F1","batch6","","1048","","","tol_toboard","","","","","","","","","tol_peg_2","1048","1048","0","[[0,0,0],[3,2],[1]]","2","[[1,2,0],[3,0],[0]]","2","0","","","","","","4","",""
"","","","","","single-stim-button","225","557882","0.0-3.0-16.2-0.2","63ead665638c8546d8c3a962","F1","batch6","","876","","","tol_tohand","","","","","","","","","tol_peg_3","876","876","0","[[0,0,0],[3,2],[0]]","3","[[1,2,0],[3,0],[0]]","2","0","","","","","","4","",""
"","","","","","single-stim-button","226","558655","0.0-3.0-16.2-1.2","63ead665638c8546d8c3a962","F1","batch6","","773","","","tol_toboard","","","","","","","","","tol_peg_1","773","773","0","[[1,0,0],[3,2],[0]]","3","[[1,2,0],[3,0],[0]]","2","0","","","","","","4","",""
"","","","","","single-stim-button","227","559165","0.0-3.0-16.3-0.3","63ead665638c8546d8c3a962","F1","batch6","","509","","","tol_tohand","","","","","","","","","tol_peg_2","509","509","0","[[1,0,0],[3,0],[0]]","4","[[1,2,0],[3,0],[0]]","2","0","","","","","","4","",""
"","","","","","single-stim-button","228","559623","0.0-3.0-16.3-1.3","63ead665638c8546d8c3a962","F1","batch6","","458","","","tol_toboard","","","","","","","","","tol_peg_1","458","458","0","[[1,2,0],[3,0],[0]]","4","[[1,2,0],[3,0],[0]]","2","0","","","","","","4","",""
"","","","","","poldrack-single-stim","229","560634","0.0-3.0-17.0","63ead665638c8546d8c3a962","F1","batch6","","-1","","","tol_feedback","true","","","","","","","","","1000","1000","500","","","","","","-1","none","true","2852","6190","","",""
"","","","","","html-button-response","230","561532","0.0-3.0-18.0","63ead665638c8546d8c3a962","F1","batch6","","896.5","<div class = centerbox><p class = center-block-text>problem <strong>4</strong> out of 25 problems</p></div>","0","tol_trial_num","","","","","","","","","","","","","","","","","","","","","","","","",""
"","","","","","single-stim-button","231","565779","0.0-3.0-19.0-0.0","63ead665638c8546d8c3a962","F1","batch6","","4245","","","tol_tohand","","","","","","","","","tol_peg_2","4245","4245","0","[[3,0,0],[2,0],[0]]","1","[[3,0,0],[1,0],[2]]","3","0","","","","","","3","",""
"","","","","","single-stim-button","232","567276","0.0-3.0-19.0-1.0","63ead665638c8546d8c3a962","F1","batch6","","1497","","","tol_toboard","","","","","","","","","tol_peg_3","1497","1497","0","[[3,0,0],[2,0],[1]]","1","[[3,0,0],[1,0],[2]]","3","0","","","","","","3","",""
"","","","","","single-stim-button","233","568121","0.0-3.0-19.1-0.1","63ead665638c8546d8c3a962","F1","batch6","","843","","","tol_tohand","","","","","","","","","tol_peg_2","843","843","0","[[3,0,0],[0,0],[1]]","2","[[3,0,0],[1,0],[2]]","3","0","","","","","","3","",""
"","","","","","single-stim-button","234","570030","0.0-3.0-19.1-1.1","63ead665638c8546d8c3a962","F1","batch6","","1909","","","tol_toboard","","","","","","","","","tol_peg_1","1909","1909","0","[[3,2,0],[0,0],[1]]","2","[[3,0,0],[1,0],[2]]","3","0","","","","","","3","",""
"","","","","","single-stim-button","235","570661","0.0-3.0-19.2-0.2","63ead665638c8546d8c3a962","F1","batch6","","631","","","tol_tohand","","","","","","","","","tol_peg_3","631","631","0","[[3,2,0],[0,0],[0]]","3","[[3,0,0],[1,0],[2]]","3","0","","","","","","3","",""
"","","","","","single-stim-button","236","571150","0.0-3.0-19.2-1.2","63ead665638c8546d8c3a962","F1","batch6","","489","","","tol_toboard","","","","","","","","","tol_peg_2","489","489","0","[[3,2,0],[1,0],[0]]","3","[[3,0,0],[1,0],[2]]","3","0","","","","","","3","",""
"","","","","","single-stim-button","237","571661","0.0-3.0-19.3-0.3","63ead665638c8546d8c3a962","F1","batch6","","510","","","tol_tohand","","","","","","","","","tol_peg_1","510","510","0","[[3,0,0],[1,0],[0]]","4","[[3,0,0],[1,0],[2]]","3","0","","","","","","3","",""
"","","","","","single-stim-button","238","572189","0.0-3.0-19.3-1.3","63ead665638c8546d8c3a962","F1","batch6","","527","","","tol_toboard","","","","","","","","","tol_peg_3","527","527","0","[[3,0,0],[1,0],[2]]","4","[[3,0,0],[1,0],[2]]","3","0","","","","","","3","",""
"","","","","","poldrack-single-stim","239","573194","0.0-3.0-20.0","63ead665638c8546d8c3a962","F1","batch6","","-1","","","tol_feedback","true","","","","","","","","","1000","1000","500","","","","","","-1","none","true","4245","6229","","",""
"","","","","","html-button-response","240","573996","0.0-3.0-21.0","63ead665638c8546d8c3a962","F1","batch6","","801.7000000476837","<div class = centerbox><p class = center-block-text>problem <strong>5</strong> out of 25 problems</p></div>","0","tol_trial_num","","","","","","","","","","","","","","","","","","","","","","","","",""
"","","","","","single-stim-button","241","580228","0.0-3.0-22.0-0.0","63ead665638c8546d8c3a962","F1","batch6","","6231","","","tol_tohand","","","","","","","","","tol_peg_2","6231","6231","0","[[1,0,0],[0,0],[3]]","1","[[0,0,0],[1,2],[3]]","4","0","","","","","","7","",""
"","","","","","single-stim-button","242","582479","0.0-3.0-22.0-1.0","63ead665638c8546d8c3a962","F1","batch6","","2251","","","tol_toboard","","","","","","","","","tol_peg_1","2251","2251","0","[[1,2,0],[0,0],[3]]","1","[[0,0,0],[1,2],[3]]","4","0","","","","","","7","",""
"","","","","","single-stim-button","243","583000","0.0-3.0-22.1-0.1","63ead665638c8546d8c3a962","F1","batch6","","521","","","tol_tohand","","","","","","","","","tol_peg_3","521","521","0","[[1,2,0],[0,0],[0]]","2","[[0,0,0],[1,2],[3]]","4","0","","","","","","7","",""
"","","","","","single-stim-button","244","583457","0.0-3.0-22.1-1.1","63ead665638c8546d8c3a962","F1","batch6","","455","","","tol_toboard","","","","","","","","","tol_peg_2","455","455","0","[[1,2,0],[3,0],[0]]","2","[[0,0,0],[1,2],[3]]","4","0","","","","","","7","",""
"","","","","","single-stim-button","245","583915","0.0-3.0-22.2-0.2","63ead665638c8546d8c3a962","F1","batch6","","458","","","tol_tohand","","","","","","","","","tol_peg_1","458","458","0","[[1,0,0],[3,0],[0]]","3","[[0,0,0],[1,2],[3]]","4","0","","","","","","7","",""
"","","","","","single-stim-button","246","584404","0.0-3.0-22.2-1.2","63ead665638c8546d8c3a962","F1","batch6","","489","","","tol_toboard","","","","","","","","","tol_peg_3","489","489","0","[[1,0,0],[3,0],[2]]","3","[[0,0,0],[1,2],[3]]","4","0","","","","","","7","",""
"","","","","","single-stim-button","247","588030","0.0-3.0-22.3-0.3","63ead665638c8546d8c3a962","F1","batch6","","3624","","","tol_tohand","","","","","","","","","tol_peg_2","3624","3624","0","[[1,0,0],[0,0],[2]]","4","[[0,0,0],[1,2],[3]]","4","0","","","","","","7","",""
"","","","","","single-stim-button","248","588518","0.0-3.0-22.3-1.3","63ead665638c8546d8c3a962","F1","batch6","","487","","","tol_toboard","","","","","","","","","tol_peg_1","487","487","0","[[1,3,0],[0,0],[2]]","4","[[0,0,0],[1,2],[3]]","4","0","","","","","","7","",""
"","","","","","single-stim-button","249","589292","0.0-3.0-22.4-0.4","63ead665638c8546d8c3a962","F1","batch6","","773","","","tol_tohand","","","","","","","","","tol_peg_3","773","773","0","[[1,3,0],[0,0],[0]]","5","[[0,0,0],[1,2],[3]]","4","0","","","","","","7","",""
"","","","","","single-stim-button","250","589730","0.0-3.0-22.4-1.4","63ead665638c8546d8c3a962","F1","batch6","","438","","","tol_toboard","","","","","","","","","tol_peg_2","438","438","0","[[1,3,0],[2,0],[0]]","5","[[0,0,0],[1,2],[3]]","4","0","","","","","","7","",""
"","","","","","single-stim-button","251","591410","0.0-3.0-22.5-0.5","63ead665638c8546d8c3a962","F1","batch6","","1679","","","tol_tohand","","","","","","","","","tol_peg_2","1679","1679","0","[[1,3,0],[0,0],[0]]","6","[[0,0,0],[1,2],[3]]","4","0","","","","","","7","",""
"","","","","","single-stim-button","252","591899","0.0-3.0-22.5-1.5","63ead665638c8546d8c3a962","F1","batch6","","488","","","tol_toboard","","","","","","","","","tol_peg_1","488","488","0","[[1,3,2],[0,0],[0]]","6","[[0,0,0],[1,2],[3]]","4","0","","","","","","7","",""
"","","","","","single-stim-button","253","595015","0.0-3.0-22.6-0.6","63ead665638c8546d8c3a962","F1","batch6","","3116","","","tol_tohand","","","","","","","","","tol_peg_1","3116","3116","0","[[1,3,0],[0,0],[0]]","7","[[0,0,0],[1,2],[3]]","4","0","","","","","","7","",""
"","","","","","single-stim-button","254","596023","0.0-3.0-22.6-1.6","63ead665638c8546d8c3a962","F1","batch6","","1008","","","tol_toboard","","","","","","","","","tol_peg_3","1008","1008","0","[[1,3,0],[0,0],[2]]","7","[[0,0,0],[1,2],[3]]","4","0","","","","","","7","",""
"","","","","","single-stim-button","255","597428","0.0-3.0-22.7-0.7","63ead665638c8546d8c3a962","F1","batch6","","1404","","","tol_tohand","","","","","","","","","tol_peg_1","1404","1404","0","[[1,0,0],[0,0],[2]]","8","[[0,0,0],[1,2],[3]]","4","0","","","","","","7","",""
"","","","","","single-stim-button","256","598080","0.0-3.0-22.7-1.7","63ead665638c8546d8c3a962","F1","batch6","","651","","","tol_toboard","","","","","","","","","tol_peg_2","651","651","0","[[1,0,0],[3,0],[2]]","8","[[0,0,0],[1,2],[3]]","4","0","","","","","","7","",""
"","","","","","single-stim-button","257","599220","0.0-3.0-22.8-0.8","63ead665638c8546d8c3a962","F1","batch6","","1140","","","tol_tohand","","","","","","","","","tol_peg_1","1140","1140","0","[[0,0,0],[3,0],[2]]","9","[[0,0,0],[1,2],[3]]","4","0","","","","","","7","",""
"","","","","","single-stim-button","258","599953","0.0-3.0-22.8-1.8","63ead665638c8546d8c3a962","F1","batch6","","732","","","tol_toboard","","","","","","","","","tol_peg_2","732","732","0","[[0,0,0],[3,1],[2]]","9","[[0,0,0],[1,2],[3]]","4","0","","","","","","7","",""
"","","","","","single-stim-button","259","600462","0.0-3.0-22.9-0.9","63ead665638c8546d8c3a962","F1","batch6","","508","","","tol_tohand","","","","","","","","","tol_peg_3","508","508","0","[[0,0,0],[3,1],[0]]","10","[[0,0,0],[1,2],[3]]","4","0","","","","","","7","",""
"","","","","","single-stim-button","260","601074","0.0-3.0-22.9-1.9","63ead665638c8546d8c3a962","F1","batch6","","610","","","tol_toboard","","","","","","","","","tol_peg_1","610","610","0","[[2,0,0],[3,1],[0]]","10","[[0,0,0],[1,2],[3]]","4","0","","","","","","7","",""
"","","","","","single-stim-button","261","602082","0.0-3.0-22.10-0.10","63ead665638c8546d8c3a962","F1","batch6","","1007","","","tol_tohand","","","","","","","","","tol_peg_2","1007","1007","0","[[2,0,0],[3,0],[0]]","11","[[0,0,0],[1,2],[3]]","4","0","","","","","","7","",""
"","","","","","single-stim-button","262","602499","0.0-3.0-22.10-1.10","63ead665638c8546d8c3a962","F1","batch6","","417","","","tol_toboard","","","","","","","","","tol_peg_1","417","417","0","[[2,1,0],[3,0],[0]]","11","[[0,0,0],[1,2],[3]]","4","0","","","","","","7","",""
"","","","","","single-stim-button","263","603252","0.0-3.0-22.11-0.11","63ead665638c8546d8c3a962","F1","batch6","","752","","","tol_tohand","","","","","","","","","tol_peg_2","752","752","0","[[2,1,0],[0,0],[0]]","12","[[0,0,0],[1,2],[3]]","4","0","","","","","","7","",""
"","","","","","single-stim-button","264","603670","0.0-3.0-22.11-1.11","63ead665638c8546d8c3a962","F1","batch6","","417","","","tol_toboard","","","","","","","","","tol_peg_3","417","417","0","[[2,1,0],[0,0],[3]]","12","[[0,0,0],[1,2],[3]]","4","0","","","","","","7","",""
"","","","","","single-stim-button","265","604220","0.0-3.0-22.12-0.12","63ead665638c8546d8c3a962","F1","batch6","","550","","","tol_tohand","","","","","","","","","tol_peg_1","550","550","0","[[2,0,0],[0,0],[3]]","13","[[0,0,0],[1,2],[3]]","4","0","","","","","","7","",""
"","","","","","single-stim-button","266","604627","0.0-3.0-22.12-1.12","63ead665638c8546d8c3a962","F1","batch6","","407","","","tol_toboard","","","","","","","","","tol_peg_2","407","407","0","[[2,0,0],[1,0],[3]]","13","[[0,0,0],[1,2],[3]]","4","0","","","","","","7","",""
"","","","","","single-stim-button","267","605055","0.0-3.0-22.13-0.13","63ead665638c8546d8c3a962","F1","batch6","","426","","","tol_tohand","","","","","","","","","tol_peg_1","426","426","0","[[0,0,0],[1,0],[3]]","14","[[0,0,0],[1,2],[3]]","4","0","","","","","","7","",""
"","","","","","single-stim-button","268","605493","0.0-3.0-22.13-1.13","63ead665638c8546d8c3a962","F1","batch6","","437","","","tol_toboard","","","","","","","","","tol_peg_2","437","437","0","[[0,0,0],[1,2],[3]]","14","[[0,0,0],[1,2],[3]]","4","0","","","","","","7","",""
"","","","","","poldrack-single-stim","269","606495","0.0-3.0-23.0","63ead665638c8546d8c3a962","F1","batch6","","-1","","","tol_feedback","true","","","","","","","","","1000","1000","500","","","","","","-1","none","true","6231","22189","","",""
"","","","","","html-button-response","270","607330","0.0-3.0-24.0","63ead665638c8546d8c3a962","F1","batch6","","834.5","<div class = centerbox><p class = center-block-text>problem <strong>6</strong> out of 25 problems</p></div>","0","tol_trial_num","","","","","","","","","","","","","","","","","","","","","","","","",""
"","","","","","single-stim-button","271","612266","0.0-3.0-25.0-0.0","63ead665638c8546d8c3a962","F1","batch6","","4934","","","tol_tohand","","","","","","","","","tol_peg_3","4934","4934","0","[[0,0,0],[1,2],[0]]","1","[[1,0,0],[2,3],[0]]","5","0","","","","","","6","",""
"","","","","","single-stim-button","272","612663","0.0-3.0-25.0-1.0","63ead665638c8546d8c3a962","F1","batch6","","396","","","tol_toboard","","","","","","","","","tol_peg_1","396","396","0","[[3,0,0],[1,2],[0]]","1","[[1,0,0],[2,3],[0]]","5","0","","","","","","6","",""
"","","","","","single-stim-button","273","613080","0.0-3.0-25.1-0.1","63ead665638c8546d8c3a962","F1","batch6","","417","","","tol_tohand","","","","","","","","","tol_peg_2","417","417","0","[[3,0,0],[1,0],[0]]","2","[[1,0,0],[2,3],[0]]","5","0","","","","","","6","",""
"","","","","","single-stim-button","274","614099","0.0-3.0-25.1-1.1","63ead665638c8546d8c3a962","F1","batch6","","1017","","","tol_toboard","","","","","","","","","tol_peg_3","1017","1017","0","[[3,0,0],[1,0],[2]]","2","[[1,0,0],[2,3],[0]]","5","0","","","","","","6","",""
"","","","","","single-stim-button","275","619877","0.0-3.0-25.2-0.2","63ead665638c8546d8c3a962","F1","batch6","","5778","","","tol_tohand","","","","","","","","","tol_peg_3","5778","5778","0","[[3,0,0],[1,0],[0]]","3","[[1,0,0],[2,3],[0]]","5","0","","","","","","6","",""
"","","","","","single-stim-button","276","620194","0.0-3.0-25.2-1.2","63ead665638c8546d8c3a962","F1","batch6","","315","","","tol_toboard","","","","","","","","","tol_peg_2","315","315","0","[[3,0,0],[1,2],[0]]","3","[[1,0,0],[2,3],[0]]","5","0","","","","","","6","",""
"","","","","","single-stim-button","277","620672","0.0-3.0-25.3-0.3","63ead665638c8546d8c3a962","F1","batch6","","477","","","tol_tohand","","","","","","","","","tol_peg_1","477","477","0","[[0,0,0],[1,2],[0]]","4","[[1,0,0],[2,3],[0]]","5","0","","","","","","6","",""
"","","","","","single-stim-button","278","623054","0.0-3.0-25.3-1.3","63ead665638c8546d8c3a962","F1","batch6","","2382","","","tol_toboard","","","","","","","","","tol_peg_3","2382","2382","0","[[0,0,0],[1,2],[3]]","4","[[1,0,0],[2,3],[0]]","5","0","","","","","","6","",""
"","","","","","single-stim-button","279","623573","0.0-3.0-25.4-0.4","63ead665638c8546d8c3a962","F1","batch6","","518","","","tol_tohand","","","","","","","","","tol_peg_2","518","518","0","[[0,0,0],[1,0],[3]]","5","[[1,0,0],[2,3],[0]]","5","0","","","","","","6","",""
"","","","","","single-stim-button","280","624083","0.0-3.0-25.4-1.4","63ead665638c8546d8c3a962","F1","batch6","","508","","","tol_toboard","","","","","","","","","tol_peg_1","508","508","0","[[2,0,0],[1,0],[3]]","5","[[1,0,0],[2,3],[0]]","5","0","","","","","","6","",""
"","","","","","single-stim-button","281","625244","0.0-3.0-25.5-0.5","63ead665638c8546d8c3a962","F1","batch6","","1160","","","tol_tohand","","","","","","","","","tol_peg_2","1160","1160","0","[[2,0,0],[0,0],[3]]","6","[[1,0,0],[2,3],[0]]","5","0","","","","","","6","",""
"","","","","","single-stim-button","282","625620","0.0-3.0-25.5-1.5","63ead665638c8546d8c3a962","F1","batch6","","376","","","tol_toboard","","","","","","","","","tol_peg_1","376","376","0","[[2,1,0],[0,0],[3]]","6","[[1,0,0],[2,3],[0]]","5","0","","","","","","6","",""
"","","","","","single-stim-button","283","626120","0.0-3.0-25.6-0.6","63ead665638c8546d8c3a962","F1","batch6","","498","","","tol_tohand","","","","","","","","","tol_peg_3","498","498","0","[[2,1,0],[0,0],[0]]","7","[[1,0,0],[2,3],[0]]","5","0","","","","","","6","",""
"","","","","","single-stim-button","284","626435","0.0-3.0-25.6-1.6","63ead665638c8546d8c3a962","F1","batch6","","315","","","tol_toboard","","","","","","","","","tol_peg_2","315","315","0","[[2,1,0],[3,0],[0]]","7","[[1,0,0],[2,3],[0]]","5","0","","","","","","6","",""
"","","","","","single-stim-button","285","627117","0.0-3.0-25.7-0.7","63ead665638c8546d8c3a962","F1","batch6","","682","","","tol_tohand","","","","","","","","","tol_peg_1","682","682","0","[[2,0,0],[3,0],[0]]","8","[[1,0,0],[2,3],[0]]","5","0","","","","","","6","",""
"","","","","","single-stim-button","286","628655","0.0-3.0-25.7-1.7","63ead665638c8546d8c3a962","F1","batch6","","1536","","","tol_toboard","","","","","","","","","tol_peg_3","1536","1536","0","[[2,0,0],[3,0],[1]]","8","[[1,0,0],[2,3],[0]]","5","0","","","","","","6","",""
"","","","","","single-stim-button","287","629358","0.0-3.0-25.8-0.8","63ead665638c8546d8c3a962","F1","batch6","","702","","","tol_tohand","","","","","","","","","tol_peg_1","702","702","0","[[0,0,0],[3,0],[1]]","9","[[1,0,0],[2,3],[0]]","5","0","","","","","","6","",""
"","","","","","single-stim-button","288","630681","0.0-3.0-25.8-1.8","63ead665638c8546d8c3a962","F1","batch6","","1323","","","tol_toboard","","","","","","","","","tol_peg_2","1323","1323","0","[[0,0,0],[3,2],[1]]","9","[[1,0,0],[2,3],[0]]","5","0","","","","","","6","",""
"","","","","","single-stim-button","289","631068","0.0-3.0-25.9-0.9","63ead665638c8546d8c3a962","F1","batch6","","386","","","tol_tohand","","","","","","","","","tol_peg_3","386","386","0","[[0,0,0],[3,2],[0]]","10","[[1,0,0],[2,3],[0]]","5","0","","","","","","6","",""
"","","","","","single-stim-button","290","632117","0.0-3.0-25.9-1.9","63ead665638c8546d8c3a962","F1","batch6","","1048","","","tol_toboard","","","","","","","","","tol_peg_1","1048","1048","0","[[1,0,0],[3,2],[0]]","10","[[1,0,0],[2,3],[0]]","5","0","","","","","","6","",""
"","","","","","single-stim-button","291","632544","0.0-3.0-25.10-0.10","63ead665638c8546d8c3a962","F1","batch6","","427","","","tol_tohand","","","","","","","","","tol_peg_2","427","427","0","[[1,0,0],[3,0],[0]]","11","[[1,0,0],[2,3],[0]]","5","0","","","","","","6","",""
"","","","","","single-stim-button","292","632911","0.0-3.0-25.10-1.10","63ead665638c8546d8c3a962","F1","batch6","","366","","","tol_toboard","","","","","","","","","tol_peg_3","366","366","0","[[1,0,0],[3,0],[2]]","11","[[1,0,0],[2,3],[0]]","5","0","","","","","","6","",""
"","","","","","single-stim-button","293","633390","0.0-3.0-25.11-0.11","63ead665638c8546d8c3a962","F1","batch6","","477","","","tol_tohand","","","","","","","","","tol_peg_2","477","477","0","[[1,0,0],[0,0],[2]]","12","[[1,0,0],[2,3],[0]]","5","0","","","","","","6","",""
"","","","","","single-stim-button","294","634031","0.0-3.0-25.11-1.11","63ead665638c8546d8c3a962","F1","batch6","","641","","","tol_toboard","","","","","","","","","tol_peg_1","641","641","0","[[1,3,0],[0,0],[2]]","12","[[1,0,0],[2,3],[0]]","5","0","","","","","","6","",""
"","","","","","single-stim-button","295","634520","0.0-3.0-25.12-0.12","63ead665638c8546d8c3a962","F1","batch6","","487","","","tol_tohand","","","","","","","","","tol_peg_3","487","487","0","[[1,3,0],[0,0],[0]]","13","[[1,0,0],[2,3],[0]]","5","0","","","","","","6","",""
"","","","","","single-stim-button","296","634835","0.0-3.0-25.12-1.12","63ead665638c8546d8c3a962","F1","batch6","","315","","","tol_toboard","","","","","","","","","tol_peg_2","315","315","0","[[1,3,0],[2,0],[0]]","13","[[1,0,0],[2,3],[0]]","5","0","","","","","","6","",""
"","","","","","single-stim-button","297","635192","0.0-3.0-25.13-0.13","63ead665638c8546d8c3a962","F1","batch6","","356","","","tol_tohand","","","","","","","","","tol_peg_1","356","356","0","[[1,0,0],[2,0],[0]]","14","[[1,0,0],[2,3],[0]]","5","0","","","","","","6","",""
"","","","","","single-stim-button","298","636098","0.0-3.0-25.13-1.13","63ead665638c8546d8c3a962","F1","batch6","","906","","","tol_toboard","","","","","","","","","tol_peg_2","906","906","0","[[1,0,0],[2,3],[0]]","14","[[1,0,0],[2,3],[0]]","5","0","","","","","","6","",""
"","","","","","poldrack-single-stim","299","637113","0.0-3.0-26.0","63ead665638c8546d8c3a962","F1","batch6","","-1","","","tol_feedback","true","","","","","","","","","1000","1000","500","","","","","","-1","none","true","4934","17299","","",""
"","","","","","html-button-response","300","638079","0.0-3.0-27.0","63ead665638c8546d8c3a962","F1","batch6","","964.6999999284744","<div class = centerbox><p class = center-block-text>problem <strong>7</strong> out of 25 problems</p></div>","0","tol_trial_num","","","","","","","","","","","","","","","","","","","","","","","","",""
"","","","","","single-stim-button","301","643670","0.0-3.0-28.0-0.0","63ead665638c8546d8c3a962","F1","batch6","","5590","","","tol_tohand","","","","","","","","","tol_peg_3","5590","5590","0","[[2,1,0],[0,0],[0]]","1","[[1,2,0],[3,0],[0]]","6","0","","","","","","5","",""
"","","","","","single-stim-button","302","644688","0.0-3.0-28.0-1.0","63ead665638c8546d8c3a962","F1","batch6","","1017","","","tol_toboard","","","","","","","","","tol_peg_2","1017","1017","0","[[2,1,0],[3,0],[0]]","1","[[1,2,0],[3,0],[0]]","6","0","","","","","","5","",""
"","","","","","single-stim-button","303","645514","0.0-3.0-28.1-0.1","63ead665638c8546d8c3a962","F1","batch6","","824","","","tol_tohand","","","","","","","","","tol_peg_1","824","824","0","[[2,0,0],[3,0],[0]]","2","[[1,2,0],[3,0],[0]]","6","0","","","","","","5","",""
"","","","","","single-stim-button","304","646451","0.0-3.0-28.1-1.1","63ead665638c8546d8c3a962","F1","batch6","","936","","","tol_toboard","","","","","","","","","tol_peg_3","936","936","0","[[2,0,0],[3,0],[1]]","2","[[1,2,0],[3,0],[0]]","6","0","","","","","","5","",""
"","","","","","single-stim-button","305","647235","0.0-3.0-28.2-0.2","63ead665638c8546d8c3a962","F1","batch6","","783","","","tol_tohand","","","","","","","","","tol_peg_1","783","783","0","[[0,0,0],[3,0],[1]]","3","[[1,2,0],[3,0],[0]]","6","0","","","","","","5","",""
"","","","","","single-stim-button","306","647672","0.0-3.0-28.2-1.2","63ead665638c8546d8c3a962","F1","batch6","","437","","","tol_toboard","","","","","","","","","tol_peg_2","437","437","0","[[0,0,0],[3,2],[1]]","3","[[1,2,0],[3,0],[0]]","6","0","","","","","","5","",""
"","","","","","single-stim-button","307","648497","0.0-3.0-28.3-0.3","63ead665638c8546d8c3a962","F1","batch6","","824","","","tol_tohand","","","","","","","","","tol_peg_3","824","824","0","[[0,0,0],[3,2],[0]]","4","[[1,2,0],[3,0],[0]]","6","0","","","","","","5","",""
"","","","","","single-stim-button","308","648955","0.0-3.0-28.3-1.3","63ead665638c8546d8c3a962","F1","batch6","","458","","","tol_toboard","","","","","","","","","tol_peg_1","458","458","0","[[1,0,0],[3,2],[0]]","4","[[1,2,0],[3,0],[0]]","6","0","","","","","","5","",""
"","","","","","single-stim-button","309","649393","0.0-3.0-28.4-0.4","63ead665638c8546d8c3a962","F1","batch6","","437","","","tol_tohand","","","","","","","","","tol_peg_2","437","437","0","[[1,0,0],[3,0],[0]]","5","[[1,2,0],[3,0],[0]]","6","0","","","","","","5","",""
"","","","","","single-stim-button","310","649729","0.0-3.0-28.4-1.4","63ead665638c8546d8c3a962","F1","batch6","","335","","","tol_toboard","","","","","","","","","tol_peg_1","335","335","0","[[1,2,0],[3,0],[0]]","5","[[1,2,0],[3,0],[0]]","6","0","","","","","","5","",""
"","","","","","poldrack-single-stim","311","650731","0.0-3.0-29.0","63ead665638c8546d8c3a962","F1","batch6","","-1","","","tol_feedback","true","","","","","","","","","1000","1000","500","","","","","","-1","none","true","5590","8458","","",""
"","","","","","html-button-response","312","651267","0.0-3.0-30.0","63ead665638c8546d8c3a962","F1","batch6","","533.9000000953674","<div class = centerbox><p class = center-block-text>problem <strong>8</strong> out of 25 problems</p></div>","0","tol_trial_num","","","","","","","","","","","","","","","","","","","","","","","","",""
"","","","","","single-stim-button","313","655512","0.0-3.0-31.0-0.0","63ead665638c8546d8c3a962","F1","batch6","","4245","","","tol_tohand","","","","","","","","","tol_peg_2","4245","4245","0","[[0,0,0],[2,0],[1]]","1","[[1,2,0],[3,0],[0]]","7","0","","","","","","4","",""
"","","","","","single-stim-button","314","657060","0.0-3.0-31.0-1.0","63ead665638c8546d8c3a962","F1","batch6","","1547","","","tol_toboard","","","","","","","","","tol_peg_1","1547","1547","0","[[3,0,0],[2,0],[1]]","1","[[1,2,0],[3,0],[0]]","7","0","","","","","","4","",""
"","","","","","single-stim-button","315","672966","0.0-3.0-31.1-0.1","63ead665638c8546d8c3a962","F1","batch6","","15905","","","tol_tohand","","","","","","","","","tol_peg_2","15905","15905","0","[[3,0,0],[0,0],[1]]","2","[[1,2,0],[3,0],[0]]","7","0","","","","","","4","",""
"","","","","","single-stim-button","316","682675","0.0-3.0-31.1-1.1","63ead665638c8546d8c3a962","F1","batch6","","9708","","","tol_toboard","","","","","","","","","tol_peg_1","9708","9708","0","[[3,2,0],[0,0],[1]]","2","[[1,2,0],[3,0],[0]]","7","0","","","","","","4","",""
"","","","","","single-stim-button","317","683683","0.0-3.0-31.2-0.2","63ead665638c8546d8c3a962","F1","batch6","","1007","","","tol_tohand","","","","","","","","","tol_peg_3","1007","1007","0","[[3,2,0],[0,0],[0]]","3","[[1,2,0],[3,0],[0]]","7","0","","","","","","4","",""
"","","","","","single-stim-button","318","684823","0.0-3.0-31.2-1.2","63ead665638c8546d8c3a962","F1","batch6","","1139","","","tol_toboard","","","","","","","","","tol_peg_2","1139","1139","0","[[3,2,0],[1,0],[0]]","3","[[1,2,0],[3,0],[0]]","7","0","","","","","","4","",""
"","","","","","single-stim-button","319","685577","0.0-3.0-31.3-0.3","63ead665638c8546d8c3a962","F1","batch6","","753","","","tol_tohand","","","","","","","","","tol_peg_1","753","753","0","[[3,0,0],[1,0],[0]]","4","[[1,2,0],[3,0],[0]]","7","0","","","","","","4","",""
"","","","","","single-stim-button","320","686961","0.0-3.0-31.3-1.3","63ead665638c8546d8c3a962","F1","batch6","","1384","","","tol_toboard","","","","","","","","","tol_peg_2","1384","1384","0","[[3,0,0],[1,2],[0]]","4","[[1,2,0],[3,0],[0]]","7","0","","","","","","4","",""
"","","","","","single-stim-button","321","687359","0.0-3.0-31.4-0.4","63ead665638c8546d8c3a962","F1","batch6","","397","","","tol_tohand","","","","","","","","","tol_peg_1","397","397","0","[[0,0,0],[1,2],[0]]","5","[[1,2,0],[3,0],[0]]","7","0","","","","","","4","",""
"","","","","","single-stim-button","322","688662","0.0-3.0-31.4-1.4","63ead665638c8546d8c3a962","F1","batch6","","1302","","","tol_toboard","","","","","","","","","tol_peg_3","1302","1302","0","[[0,0,0],[1,2],[3]]","5","[[1,2,0],[3,0],[0]]","7","0","","","","","","4","",""
"","","","","","single-stim-button","323","689538","0.0-3.0-31.5-0.5","63ead665638c8546d8c3a962","F1","batch6","","876","","","tol_tohand","","","","","","","","","tol_peg_2","876","876","0","[[0,0,0],[1,0],[3]]","6","[[1,2,0],[3,0],[0]]","7","0","","","","","","4","",""
"","","","","","single-stim-button","324","690017","0.0-3.0-31.5-1.5","63ead665638c8546d8c3a962","F1","batch6","","478","","","tol_toboard","","","","","","","","","tol_peg_1","478","478","0","[[2,0,0],[1,0],[3]]","6","[[1,2,0],[3,0],[0]]","7","0","","","","","","4","",""
"","","","","","single-stim-button","325","691269","0.0-3.0-31.6-0.6","63ead665638c8546d8c3a962","F1","batch6","","1251","","","tol_tohand","","","","","","","","","tol_peg_2","1251","1251","0","[[2,0,0],[0,0],[3]]","7","[[1,2,0],[3,0],[0]]","7","0","","","","","","4","",""
"","","","","","single-stim-button","326","692511","0.0-3.0-31.6-1.6","63ead665638c8546d8c3a962","F1","batch6","","1242","","","tol_toboard","","","","","","","","","tol_peg_1","1242","1242","0","[[2,1,0],[0,0],[3]]","7","[[1,2,0],[3,0],[0]]","7","0","","","","","","4","",""
"","","","","","single-stim-button","327","693091","0.0-3.0-31.7-0.7","63ead665638c8546d8c3a962","F1","batch6","","580","","","tol_tohand","","","","","","","","","tol_peg_3","580","580","0","[[2,1,0],[0,0],[0]]","8","[[1,2,0],[3,0],[0]]","7","0","","","","","","4","",""
"","","","","","single-stim-button","328","693427","0.0-3.0-31.7-1.7","63ead665638c8546d8c3a962","F1","batch6","","336","","","tol_toboard","","","","","","","","","tol_peg_2","336","336","0","[[2,1,0],[3,0],[0]]","8","[[1,2,0],[3,0],[0]]","7","0","","","","","","4","",""
"","","","","","single-stim-button","329","695178","0.0-3.0-31.8-0.8","63ead665638c8546d8c3a962","F1","batch6","","1750","","","tol_tohand","","","","","","","","","tol_peg_1","1750","1750","0","[[2,0,0],[3,0],[0]]","9","[[1,2,0],[3,0],[0]]","7","0","","","","","","4","",""
"","","","","","single-stim-button","330","695576","0.0-3.0-31.8-1.8","63ead665638c8546d8c3a962","F1","batch6","","397","","","tol_toboard","","","","","","","","","tol_peg_2","397","397","0","[[2,0,0],[3,1],[0]]","9","[[1,2,0],[3,0],[0]]","7","0","","","","","","4","",""
"","","","","","single-stim-button","331","696135","0.0-3.0-31.9-0.9","63ead665638c8546d8c3a962","F1","batch6","","559","","","tol_tohand","","","","","","","","","tol_peg_1","559","559","0","[[0,0,0],[3,1],[0]]","10","[[1,2,0],[3,0],[0]]","7","0","","","","","","4","",""
"","","","","","single-stim-button","332","696686","0.0-3.0-31.9-1.9","63ead665638c8546d8c3a962","F1","batch6","","549","","","tol_toboard","","","","","","","","","tol_peg_3","549","549","0","[[0,0,0],[3,1],[2]]","10","[[1,2,0],[3,0],[0]]","7","0","","","","","","4","",""
"","","","","","single-stim-button","333","697184","0.0-3.0-31.10-0.10","63ead665638c8546d8c3a962","F1","batch6","","498","","","tol_tohand","","","","","","","","","tol_peg_2","498","498","0","[[0,0,0],[3,0],[2]]","11","[[1,2,0],[3,0],[0]]","7","0","","","","","","4","",""
"","","","","","single-stim-button","334","697663","0.0-3.0-31.10-1.10","63ead665638c8546d8c3a962","F1","batch6","","477","","","tol_toboard","","","","","","","","","tol_peg_1","477","477","0","[[1,0,0],[3,0],[2]]","11","[[1,2,0],[3,0],[0]]","7","0","","","","","","4","",""
"","","","","","single-stim-button","335","698182","0.0-3.0-31.11-0.11","63ead665638c8546d8c3a962","F1","batch6","","519","","","tol_tohand","","","","","","","","","tol_peg_3","519","519","0","[[1,0,0],[3,0],[0]]","12","[[1,2,0],[3,0],[0]]","7","0","","","","","","4","",""
"","","","","","single-stim-button","336","698477","0.0-3.0-31.11-1.11","63ead665638c8546d8c3a962","F1","batch6","","295","","","tol_toboard","","","","","","","","","tol_peg_1","295","295","0","[[1,2,0],[3,0],[0]]","12","[[1,2,0],[3,0],[0]]","7","0","","","","","","4","",""
"","","","","","poldrack-single-stim","337","699483","0.0-3.0-32.0","63ead665638c8546d8c3a962","F1","batch6","","-1","","","tol_feedback","true","","","","","","","","","1000","1000","500","","","","","","-1","none","true","4245","28340","","",""
"","","","","","html-button-response","338","700388","0.0-3.0-33.0","63ead665638c8546d8c3a962","F1","batch6","","902.6999999284744","<div class = centerbox><p class = center-block-text>problem <strong>9</strong> out of 25 problems</p></div>","0","tol_trial_num","","","","","","","","","","","","","","","","","","","","","","","","",""
"","","","","","single-stim-button","339","713395","0.0-3.0-34.0-0.0","63ead665638c8546d8c3a962","F1","batch6","","13007","","","tol_tohand","","","","","","","","","tol_peg_3","13007","13007","0","[[3,2,0],[0,0],[0]]","1","[[2,1,0],[3,0],[0]]","8","0","","","","","","6","",""
"","","","","","single-stim-button","340","713864","0.0-3.0-34.0-1.0","63ead665638c8546d8c3a962","F1","batch6","","468","","","tol_toboard","","","","","","","","","tol_peg_2","468","468","0","[[3,2,0],[1,0],[0]]","1","[[2,1,0],[3,0],[0]]","8","0","","","","","","6","",""
"","","","","","single-stim-button","341","714944","0.0-3.0-34.1-0.1","63ead665638c8546d8c3a962","F1","batch6","","1079","","","tol_tohand","","","","","","","","","tol_peg_1","1079","1079","0","[[3,0,0],[1,0],[0]]","2","[[2,1,0],[3,0],[0]]","8","0","","","","","","6","",""
"","","","","","single-stim-button","342","715595","0.0-3.0-34.1-1.1","63ead665638c8546d8c3a962","F1","batch6","","649","","","tol_toboard","","","","","","","","","tol_peg_2","649","649","0","[[3,0,0],[1,2],[0]]","2","[[2,1,0],[3,0],[0]]","8","0","","","","","","6","",""
"","","","","","single-stim-button","343","716137","0.0-3.0-34.2-0.2","63ead665638c8546d8c3a962","F1","batch6","","542","","","tol_tohand","","","","","","","","","tol_peg_1","542","542","0","[[0,0,0],[1,2],[0]]","3","[[2,1,0],[3,0],[0]]","8","0","","","","","","6","",""
"","","","","","single-stim-button","344","716144","0.0-3.0-34.2-1.2","63ead665638c8546d8c3a962","F1","batch6","","6","","","tol_toboard","","","","","","","","","tol_peg_1","6","6","0","[[3,0,0],[1,2],[0]]","3","[[2,1,0],[3,0],[0]]","8","0","","","","","","6","",""
"","","","","","single-stim-button","345","717203","0.0-3.0-34.3-0.3","63ead665638c8546d8c3a962","F1","batch6","","1058","","","tol_tohand","","","","","","","","","tol_peg_1","1058","1058","0","[[0,0,0],[1,2],[0]]","4","[[2,1,0],[3,0],[0]]","8","0","","","","","","6","",""
"","","","","","single-stim-button","346","717885","0.0-3.0-34.3-1.3","63ead665638c8546d8c3a962","F1","batch6","","682","","","tol_toboard","","","","","","","","","tol_peg_3","682","682","0","[[0,0,0],[1,2],[3]]","4","[[2,1,0],[3,0],[0]]","8","0","","","","","","6","",""
"","","","","","single-stim-button","347","719076","0.0-3.0-34.4-0.4","63ead665638c8546d8c3a962","F1","batch6","","1190","","","tol_tohand","","","","","","","","","tol_peg_2","1190","1190","0","[[0,0,0],[1,0],[3]]","5","[[2,1,0],[3,0],[0]]","8","0","","","","","","6","",""
"","","","","","single-stim-button","348","719514","0.0-3.0-34.4-1.4","63ead665638c8546d8c3a962","F1","batch6","","438","","","tol_toboard","","","","","","","","","tol_peg_1","438","438","0","[[2,0,0],[1,0],[3]]","5","[[2,1,0],[3,0],[0]]","8","0","","","","","","6","",""
"","","","","","single-stim-button","349","719952","0.0-3.0-34.5-0.5","63ead665638c8546d8c3a962","F1","batch6","","436","","","tol_tohand","","","","","","","","","tol_peg_2","436","436","0","[[2,0,0],[0,0],[3]]","6","[[2,1,0],[3,0],[0]]","8","0","","","","","","6","",""
