"success","timeout","failed_images","failed_audio","failed_video","trial_type","trial_index","time_elapsed","internal_node_id","subject_id","study_id","session_id","view_history","rt","stimulus","response","task","correct","answer","item","fiar_detect_rt","fiar_detect_correct","total_correct_fiar_detect","post_trial_gap","choices","spm_correct","spm_rt","mouse_click","stim_duration","block_duration","timing_post_trial","current_position","tol_num_moves_made","tol_target","tol_problem_id","tol_rt","key_press","possible_responses","tol_correct","preplanning","tol_rt_per_trial","tol_min_moves"
"true","false","[]","[]","[]","preload","0","9596","0.0-0.0","63ed008a1b535769b1262e50","C3","batch3","","","","","","","","","","","","","","","","","","","","","","","","","","","","","",""
"true","","","","","fullscreen","1","18400","0.0-1.0-0.0","63ed008a1b535769b1262e50","C3","batch3","","","","","","","","","","","","","","","","","","","","","","","","","","","","","",""
"true","","","","","fullscreen","2","23078","0.0-2.0-0.0","63ed008a1b535769b1262e50","C3","batch3","","","","","","","","","","","","","","","","","","","","","","","","","","","","","",""
"","","","","","instructions","3","48607","0.0-2.0-1.0-0.0","63ed008a1b535769b1262e50","C3","batch3","[{""page_index"":0,""viewing_time"":17480.900000000373},{""page_index"":1,""viewing_time"":8047.699999999255}]","25529","","","","","","","","","","","","","","","","","","","","","","","","","","","",""
"","","","","","html-button-response","4","51613","0.0-2.0-1.0-1.0-0.0","63ed008a1b535769b1262e50","C3","batch3","","3004.5","<p class=block-text> Let's answer a few questions <br>","0","pattern_enter_quiz","","","","","","","","","","","","","","","","","","","","","","","","",""
"","","","","","html-button-response","5","55533","0.0-2.0-1.0-1.0-1.0","63ed008a1b535769b1262e50","C3","batch3","","3918.199999999255","<p class = block-text>True or False: You will have as much time as you want to make each choice. <br></p>","1","pattern_quiz","true","","","","","","","","","","","","","","","","","","","","","","","",""
"","","","","","html-button-response","6","57751","0.0-2.0-1.0-1.0-2.0","63ed008a1b535769b1262e50","C3","batch3","","2216.699999999255","<p class = block-text>Correct! You should make your choice <strong> as fast as you can</strong>.</p>","0","pattern_quiz_feedback","","","","","","","","","","","","","","","","","","","","","","","","",""
"","","","","","html-button-response","7","63411","0.0-2.0-1.0-1.0-3.0","63ed008a1b535769b1262e50","C3","batch3","","5658.5","<p class = block-text>True or False: You will look for 4 pieces in black or white color connected in a row either horizontally, vertically or diagonally. <br></p>","0","pattern_quiz","true","","","","","","","","","","","","","","","","","","","","","","","",""
"","","","","","html-button-response","8","64769","0.0-2.0-1.0-1.0-4.0","63ed008a1b535769b1262e50","C3","batch3","","1356.4000000003725","<p class = block-text>Correct! </p>","0","pattern_quiz_feedback","","","","","","","","","","","","","","","","","","","","","","","","",""
"","","","","","html-button-response","9","67424","0.0-2.0-2.0","63ed008a1b535769b1262e50","C3","batch3","","2653.5999999996275","<p class=block-text> Now that you've understood the game, let's do a few practice trials before we start!<br> <br>","0","pattern_enter_practice","","","","","","","","","","","","","","","","","","","","","","","","",""
"","","","","","image-keyboard-response","10","72521","0.0-2.0-3.0-0.0","63ed008a1b535769b1262e50","C3","batch3","","5029.699999999255","stim/prac_yes_16_ver_w1.png","f","pattern_practice","true","f","","","","","","","","","","","","","","","","","","","","","","",""
"","","","","","html-keyboard-response","11","73544","0.0-2.0-3.0-1.0","63ed008a1b535769b1262e50","C3","batch3","","null","<p style=""font-size:30px;color:green;"">Correct!</p>","null","pattern_feedback","","","","","","","","","","","","","","","","","","","","","","","","",""
"","","","","","image-keyboard-response","12","75973","0.0-2.0-3.0-0.1","63ed008a1b535769b1262e50","C3","batch3","","2427.5","stim/prac_yes_18_hor_w1.png","f","pattern_practice","true","f","","","","","","","","","","","","","","","","","","","","","","",""
"","","","","","html-keyboard-response","13","76992","0.0-2.0-3.0-1.1","63ed008a1b535769b1262e50","C3","batch3","","null","<p style=""font-size:30px;color:green;"">Correct!</p>","null","pattern_feedback","","","","","","","","","","","","","","","","","","","","","","","","",""
"","","","","","image-keyboard-response","14","78726","0.0-2.0-3.0-0.2","63ed008a1b535769b1262e50","C3","batch3","","1732.199999999255","stim/prac_no_18_1.png","j","pattern_practice","true","j","","","","","","","","","","","","","","","","","","","","","","",""
"","","","","","html-keyboard-response","15","79740","0.0-2.0-3.0-1.2","63ed008a1b535769b1262e50","C3","batch3","","null","<p style=""font-size:30px;color:green;"">Correct!</p>","null","pattern_feedback","","","","","","","","","","","","","","","","","","","","","","","","",""
"","","","","","image-keyboard-response","16","81061","0.0-2.0-3.0-0.3","63ed008a1b535769b1262e50","C3","batch3","","1319.5","stim/prac_yes_20_dia_b1.png","f","pattern_practice","true","f","","","","","","","","","","","","","","","","","","","","","","",""
"","","","","","html-keyboard-response","17","82080","0.0-2.0-3.0-1.3","63ed008a1b535769b1262e50","C3","batch3","","null","<p style=""font-size:30px;color:green;"">Correct!</p>","null","pattern_feedback","","","","","","","","","","","","","","","","","","","","","","","","",""
"","","","","","image-keyboard-response","18","84077","0.0-2.0-3.0-0.4","63ed008a1b535769b1262e50","C3","batch3","","1995.2999999988824","stim/prac_no_16_1.png","j","pattern_practice","true","j","","","","","","","","","","","","","","","","","","","","","","",""
"","","","","","html-keyboard-response","19","85096","0.0-2.0-3.0-1.4","63ed008a1b535769b1262e50","C3","batch3","","null","<p style=""font-size:30px;color:green;"">Correct!</p>","null","pattern_feedback","","","","","","","","","","","","","","","","","","","","","","","","",""
"","","","","","html-button-response","20","94217","0.0-2.0-4.0","63ed008a1b535769b1262e50","C3","batch3","","9119.699999999255","<p class=block-text> Good job! You are done with practice trials!<br>
        You responded correctly on 100% of the trials.<br>
        Press the button below to start official trials. Now you won't see any feedback about your response</p>","0","pattern_enter_official_trials","","","","","","","","","","","","","","","","","","","","","","","","",""
"","","","","","html-keyboard-response","21","95022","0.0-2.0-5.0-0.0","63ed008a1b535769b1262e50","C3","batch3","","null","<p class=block-text>Trial 1 out of 78</p>","null","pattern_show_trial_num","","","","","","","","","","","","","","","","","","","","","","","","",""
"","","","","","image-keyboard-response","22","97804","0.0-2.0-5.0-1.0","63ed008a1b535769b1262e50","C3","batch3","","2780.9000000003725","stim/no_45_1_w.png","f","pattern_response","false","j","pattern_25","2780.9000000003725","false","0","","","","","","","","","","","","","","","","","","",""
"","","","","","html-keyboard-response","23","99116","0.0-2.0-5.0-0.1","63ed008a1b535769b1262e50","C3","batch3","","null","<p class=block-text>Trial 2 out of 78</p>","null","pattern_show_trial_num","","","","","","","","","","","","","","","","","","","","","","","","",""
"","","","","","image-keyboard-response","24","99956","0.0-2.0-5.0-1.1","63ed008a1b535769b1262e50","C3","batch3","","839.5999999996275","stim/no_15_1_w.png","j","pattern_response","true","j","pattern_03","839.5999999996275","true","1","","","","","","","","","","","","","","","","","","",""
"","","","","","html-keyboard-response","25","101267","0.0-2.0-5.0-0.2","63ed008a1b535769b1262e50","C3","batch3","","null","<p class=block-text>Trial 3 out of 78</p>","null","pattern_show_trial_num","","","","","","","","","","","","","","","","","","","","","","","","",""
"","","","","","image-keyboard-response","26","101892","0.0-2.0-5.0-1.2","63ed008a1b535769b1262e50","C3","batch3","","623.5","stim/yes_17_ver_b1_b.png","f","pattern_response","true","f","pattern_46","623.5","true","2","","","","","","","","","","","","","","","","","","",""
"","","","","","html-keyboard-response","27","103207","0.0-2.0-5.0-0.3","63ed008a1b535769b1262e50","C3","batch3","","null","<p class=block-text>Trial 4 out of 78</p>","null","pattern_show_trial_num","","","","","","","","","","","","","","","","","","","","","","","","",""
"","","","","","image-keyboard-response","28","104548","0.0-2.0-5.0-1.3","63ed008a1b535769b1262e50","C3","batch3","","1339.800000000745","stim/yes_70_ver_b1.png","f","pattern_response","true","f","pattern_80","1339.800000000745","true","3","","","","","","","","","","","","","","","","","","",""
"","","","","","html-keyboard-response","29","105859","0.0-2.0-5.0-0.4","63ed008a1b535769b1262e50","C3","batch3","","null","<p class=block-text>Trial 5 out of 78</p>","null","pattern_show_trial_num","","","","","","","","","","","","","","","","","","","","","","","","",""
"","","","","","image-keyboard-response","30","106853","0.0-2.0-5.0-1.4","63ed008a1b535769b1262e50","C3","batch3","","992.5","stim/no_28_2.png","j","pattern_response","true","j","pattern_11","992.5","true","4","","","","","","","","","","","","","","","","","","",""
"","","","","","html-keyboard-response","31","108165","0.0-2.0-5.0-0.5","63ed008a1b535769b1262e50","C3","batch3","","null","<p class=block-text>Trial 6 out of 78</p>","null","pattern_show_trial_num","","","","","","","","","","","","","","","","","","","","","","","","",""
"","","","","","image-keyboard-response","32","109756","0.0-2.0-5.0-1.5","63ed008a1b535769b1262e50","C3","batch3","","1589.5999999996275","stim/yes_49_hor_w1_b.png","f","pattern_response","true","f","pattern_70","1589.5999999996275","true","5","","","","","","","","","","","","","","","","","","",""
"","","","","","html-keyboard-response","33","111071","0.0-2.0-5.0-0.6","63ed008a1b535769b1262e50","C3","batch3","","null","<p class=block-text>Trial 7 out of 78</p>","null","pattern_show_trial_num","","","","","","","","","","","","","","","","","","","","","","","","",""
"","","","","","image-keyboard-response","34","112236","0.0-2.0-5.0-1.6","63ed008a1b535769b1262e50","C3","batch3","","1163.199999999255","stim/yes_36_ver_w1_w.png","f","pattern_response","true","f","pattern_58","1163.199999999255","true","6","","","","","","","","","","","","","","","","","","",""
"","","","","","html-keyboard-response","35","113551","0.0-2.0-5.0-0.7","63ed008a1b535769b1262e50","C3","batch3","","null","<p class=block-text>Trial 8 out of 78</p>","null","pattern_show_trial_num","","","","","","","","","","","","","","","","","","","","","","","","",""
"","","","","","image-keyboard-response","36","116180","0.0-2.0-5.0-1.7","63ed008a1b535769b1262e50","C3","batch3","","2627.9000000003725","stim/no_49_2_b.png","j","pattern_response","true","j","pattern_29","2627.9000000003725","true","7","","","","","","","","","","","","","","","","","","",""
"","","","","","html-keyboard-response","37","117491","0.0-2.0-5.0-0.8","63ed008a1b535769b1262e50","C3","batch3","","null","<p class=block-text>Trial 9 out of 78</p>","null","pattern_show_trial_num","","","","","","","","","","","","","","","","","","","","","","","","",""
"","","","","","image-keyboard-response","38","119708","0.0-2.0-5.0-1.8","63ed008a1b535769b1262e50","C3","batch3","","2215.2999999988824","stim/no_30_1_b.png","j","pattern_response","true","j","pattern_13","2215.2999999988824","true","8","","","","","","","","","","","","","","","","","","",""
"","","","","","html-keyboard-response","39","121022","0.0-2.0-5.0-0.9","63ed008a1b535769b1262e50","C3","batch3","","null","<p class=block-text>Trial 10 out of 78</p>","null","pattern_show_trial_num","","","","","","","","","","","","","","","","","","","","","","","","",""
"","","","","","image-keyboard-response","40","122916","0.0-2.0-5.0-1.9","63ed008a1b535769b1262e50","C3","batch3","","1891.5999999996275","stim/no_37_2_w.png","f","pattern_response","false","j","pattern_19","1891.5999999996275","false","8","","","","","","","","","","","","","","","","","","",""
"","","","","","html-keyboard-response","41","124231","0.0-2.0-5.0-0.10","63ed008a1b535769b1262e50","C3","batch3","","null","<p class=block-text>Trial 11 out of 78</p>","null","pattern_show_trial_num","","","","","","","","","","","","","","","","","","","","","","","","",""
"","","","","","image-keyboard-response","42","128420","0.0-2.0-5.0-1.10","63ed008a1b535769b1262e50","C3","batch3","","4187.9000000003725","stim/no_67_1.png","j","pattern_response","true","j","pattern_39","4187.9000000003725","true","9","","","","","","","","","","","","","","","","","","",""
"","","","","","html-keyboard-response","43","129735","0.0-2.0-5.0-0.11","63ed008a1b535769b1262e50","C3","batch3","","null","<p class=block-text>Trial 12 out of 78</p>","null","pattern_show_trial_num","","","","","","","","","","","","","","","","","","","","","","","","",""
"","","","","","image-keyboard-response","44","131475","0.0-2.0-5.0-1.11","63ed008a1b535769b1262e50","C3","batch3","","1739","stim/no_58_1_w.png","j","pattern_response","true","j","pattern_35","1739","true","10","","","","","","","","","","","","","","","","","","",""
"","","","","","html-keyboard-response","45","132790","0.0-2.0-5.0-0.12","63ed008a1b535769b1262e50","C3","batch3","","null","<p class=block-text>Trial 13 out of 78</p>","null","pattern_show_trial_num","","","","","","","","","","","","","","","","","","","","","","","","",""
"","","","","","image-keyboard-response","46","134011","0.0-2.0-5.0-1.12","63ed008a1b535769b1262e50","C3","batch3","","1219.2999999988824","stim/yes_33_dia_w1_w.png","f","pattern_response","true","f","pattern_56","1219.2999999988824","true","11","","","","","","","","","","","","","","","","","","",""
"","","","","","html-keyboard-response","47","135326","0.0-2.0-5.0-0.13","63ed008a1b535769b1262e50","C3","batch3","","null","<p class=block-text>Trial 14 out of 78</p>","null","pattern_show_trial_num","","","","","","","","","","","","","","","","","","","","","","","","",""
"","","","","","image-keyboard-response","48","136955","0.0-2.0-5.0-1.13","63ed008a1b535769b1262e50","C3","batch3","","1627.5999999996275","stim/no_51_1.png","j","pattern_response","true","j","pattern_31","1627.5999999996275","true","12","","","","","","","","","","","","","","","","","","",""
"","","","","","html-keyboard-response","49","138270","0.0-2.0-5.0-0.14","63ed008a1b535769b1262e50","C3","batch3","","null","<p class=block-text>Trial 15 out of 78</p>","null","pattern_show_trial_num","","","","","","","","","","","","","","","","","","","","","","","","",""
"","","","","","image-keyboard-response","50","140187","0.0-2.0-5.0-1.14","63ed008a1b535769b1262e50","C3","batch3","","1916","stim/no_33_1_b.png","j","pattern_response","true","j","pattern_15","1916","true","13","","","","","","","","","","","","","","","","","","",""
"","","","","","html-keyboard-response","51","141502","0.0-2.0-5.0-0.15","63ed008a1b535769b1262e50","C3","batch3","","null","<p class=block-text>Trial 16 out of 78</p>","null","pattern_show_trial_num","","","","","","","","","","","","","","","","","","","","","","","","",""
"","","","","","image-keyboard-response","52","142747","0.0-2.0-5.0-1.15","63ed008a1b535769b1262e50","C3","batch3","","1243.2999999988824","stim/no_36_1_b.png","f","pattern_response","false","j","pattern_17","1243.2999999988824","false","13","","","","","","","","","","","","","","","","","","",""
"","","","","","html-keyboard-response","53","144057","0.0-2.0-5.0-0.16","63ed008a1b535769b1262e50","C3","batch3","","null","<p class=block-text>Trial 17 out of 78</p>","null","pattern_show_trial_num","","","","","","","","","","","","","","","","","","","","","","","","",""
"","","","","","image-keyboard-response","54","144947","0.0-2.0-5.0-1.16","63ed008a1b535769b1262e50","C3","batch3","","889.2000000011176","stim/no_18_1_b.png","j","pattern_response","true","j","pattern_05","889.2000000011176","true","14","","","","","","","","","","","","","","","","","","",""
"","","","","","html-keyboard-response","55","146270","0.0-2.0-5.0-0.17","63ed008a1b535769b1262e50","C3","batch3","","null","<p class=block-text>Trial 18 out of 78</p>","null","pattern_show_trial_num","","","","","","","","","","","","","","","","","","","","","","","","",""
"","","","","","image-keyboard-response","56","147163","0.0-2.0-5.0-1.17","63ed008a1b535769b1262e50","C3","batch3","","891.6999999992549","stim/yes_15_dia_b1u_b.png","f","pattern_response","true","f","pattern_44","891.6999999992549","true","15","","","","","","","","","","","","","","","","","","",""
"","","","","","html-keyboard-response","57","148475","0.0-2.0-5.0-0.18","63ed008a1b535769b1262e50","C3","batch3","","null","<p class=block-text>Trial 19 out of 78</p>","null","pattern_show_trial_num","","","","","","","","","","","","","","","","","","","","","","","","",""
"","","","","","image-keyboard-response","58","149387","0.0-2.0-5.0-1.18","63ed008a1b535769b1262e50","C3","batch3","","910.3999999985099","stim/no_22_1_b.png","j","pattern_response","true","j","pattern_07","910.3999999985099","true","16","","","","","","","","","","","","","","","","","","",""
"","","","","","html-keyboard-response","59","150699","0.0-2.0-5.0-0.19","63ed008a1b535769b1262e50","C3","batch3","","null","<p class=block-text>Trial 20 out of 78</p>","null","pattern_show_trial_num","","","","","","","","","","","","","","","","","","","","","","","","",""
"","","","","","image-keyboard-response","60","153507","0.0-2.0-5.0-1.19","63ed008a1b535769b1262e50","C3","batch3","","2806.5","stim/yes_53_ver_b1_b.png","f","pattern_response","true","f","pattern_74","2806.5","true","17","","","","","","","","","","","","","","","","","","",""
"","","","","","html-keyboard-response","61","154822","0.0-2.0-5.0-0.20","63ed008a1b535769b1262e50","C3","batch3","","null","<p class=block-text>Trial 21 out of 78</p>","null","pattern_show_trial_num","","","","","","","","","","","","","","","","","","","","","","","","",""
"","","","","","image-keyboard-response","62","157226","0.0-2.0-5.0-1.20","63ed008a1b535769b1262e50","C3","batch3","","2403.199999999255","stim/no_39_1_w.png","j","pattern_response","true","j","pattern_21","2403.199999999255","true","18","","","","","","","","","","","","","","","","","","",""
"","","","","","html-keyboard-response","63","158542","0.0-2.0-5.0-0.21","63ed008a1b535769b1262e50","C3","batch3","","null","<p class=block-text>Trial 22 out of 78</p>","null","pattern_show_trial_num","","","","","","","","","","","","","","","","","","","","","","","","",""
"","","","","","image-keyboard-response","64","160250","0.0-2.0-5.0-1.21","63ed008a1b535769b1262e50","C3","batch3","","1707.2999999988824","stim/yes_30_ver_b1_b.png","j","pattern_response","false","f","pattern_54","1707.2999999988824","false","18","","","","","","","","","","","","","","","","","","",""
"","","","","","html-keyboard-response","65","161563","0.0-2.0-5.0-0.22","63ed008a1b535769b1262e50","C3","batch3","","null","<p class=block-text>Trial 23 out of 78</p>","null","pattern_show_trial_num","","","","","","","","","","","","","","","","","","","","","","","","",""
"","","","","","image-keyboard-response","66","162362","0.0-2.0-5.0-1.22","63ed008a1b535769b1262e50","C3","batch3","","798.1000000014901","stim/yes_37_hor_w1_w.png","f","pattern_response","true","f","pattern_60","798.1000000014901","true","19","","","","","","","","","","","","","","","","","","",""
"","","","","","html-keyboard-response","67","163677","0.0-2.0-5.0-0.23","63ed008a1b535769b1262e50","C3","batch3","","null","<p class=block-text>Trial 24 out of 78</p>","null","pattern_show_trial_num","","","","","","","","","","","","","","","","","","","","","","","","",""
"","","","","","image-keyboard-response","68","164747","0.0-2.0-5.0-1.23","63ed008a1b535769b1262e50","C3","batch3","","1068.199999999255","stim/yes_26_dia_w2_w.png","j","pattern_response","false","f","pattern_50","1068.199999999255","false","19","","","","","","","","","","","","","","","","","","",""
"","","","","","html-keyboard-response","69","166061","0.0-2.0-5.0-0.24","63ed008a1b535769b1262e50","C3","batch3","","null","<p class=block-text>Trial 25 out of 78</p>","null","pattern_show_trial_num","","","","","","","","","","","","","","","","","","","","","","","","",""
"","","","","","image-keyboard-response","70","167378","0.0-2.0-5.0-1.24","63ed008a1b535769b1262e50","C3","batch3","","1315.699999999255","stim/yes_39_hor_w1_w.png","f","pattern_response","true","f","pattern_62","1315.699999999255","true","20","","","","","","","","","","","","","","","","","","",""
"","","","","","html-keyboard-response","71","168689","0.0-2.0-5.0-0.25","63ed008a1b535769b1262e50","C3","batch3","","null","<p class=block-text>Trial 26 out of 78</p>","null","pattern_show_trial_num","","","","","","","","","","","","","","","","","","","","","","","","",""
"","","","","","image-keyboard-response","72","170330","0.0-2.0-5.0-1.25","63ed008a1b535769b1262e50","C3","batch3","","1639.7999999988824","stim/no_53_1_b.png","j","pattern_response","true","j","pattern_33","1639.7999999988824","true","21","","","","","","","","","","","","","","","","","","",""
"","","","","","html-keyboard-response","73","171640","0.0-2.0-5.0-0.26","63ed008a1b535769b1262e50","C3","batch3","","null","<p class=block-text>Trial 27 out of 78</p>","null","pattern_show_trial_num","","","","","","","","","","","","","","","","","","","","","","","","",""
"","","","","","image-keyboard-response","74","174450","0.0-2.0-5.0-1.26","63ed008a1b535769b1262e50","C3","batch3","","2808.39999999851","stim/yes_44_ver_w1_w.png","j","pattern_response","false","f","pattern_66","2808.39999999851","false","21","","","","","","","","","","","","","","","","","","",""
"","","","","","html-keyboard-response","75","175765","0.0-2.0-5.0-0.27","63ed008a1b535769b1262e50","C3","batch3","","null","<p class=block-text>Trial 28 out of 78</p>","null","pattern_show_trial_num","","","","","","","","","","","","","","","","","","","","","","","","",""
"","","","","","image-keyboard-response","76","176882","0.0-2.0-5.0-1.27","63ed008a1b535769b1262e50","C3","batch3","","1115.199999999255","stim/yes_46_ver_b1_b.png","f","pattern_response","true","f","pattern_68","1115.199999999255","true","22","","","","","","","","","","","","","","","","","","",""
"","","","","","html-keyboard-response","77","178197","0.0-2.0-5.0-0.28","63ed008a1b535769b1262e50","C3","batch3","","null","<p class=block-text>Trial 29 out of 78</p>","null","pattern_show_trial_num","","","","","","","","","","","","","","","","","","","","","","","","",""
"","","","","","image-keyboard-response","78","180634","0.0-2.0-5.0-1.28","63ed008a1b535769b1262e50","C3","batch3","","2435.699999999255","stim/yes_29_hor_b1_b.png","f","pattern_response","true","f","pattern_52","2435.699999999255","true","23","","","","","","","","","","","","","","","","","","",""
"","","","","","html-keyboard-response","79","181949","0.0-2.0-5.0-0.29","63ed008a1b535769b1262e50","C3","batch3","","null","<p class=block-text>Trial 30 out of 78</p>","null","pattern_show_trial_num","","","","","","","","","","","","","","","","","","","","","","","","",""
"","","","","","image-keyboard-response","80","183522","0.0-2.0-5.0-1.29","63ed008a1b535769b1262e50","C3","batch3","","1571.2999999988824","stim/no_47_1_b.png","j","pattern_response","true","j","pattern_27","1571.2999999988824","true","24","","","","","","","","","","","","","","","","","","",""
"","","","","","html-keyboard-response","81","184837","0.0-2.0-5.0-0.30","63ed008a1b535769b1262e50","C3","batch3","","null","<p class=block-text>Trial 31 out of 78</p>","null","pattern_show_trial_num","","","","","","","","","","","","","","","","","","","","","","","","",""
"","","","","","image-keyboard-response","82","189322","0.0-2.0-5.0-1.30","63ed008a1b535769b1262e50","C3","batch3","","4483.5999999996275","stim/yes_63_dia_b1.png","j","pattern_response","false","f","pattern_78","4483.5999999996275","false","24","","","","","","","","","","","","","","","","","","",""
"","","","","","html-keyboard-response","83","190632","0.0-2.0-5.0-0.31","63ed008a1b535769b1262e50","C3","batch3","","null","<p class=block-text>Trial 32 out of 78</p>","null","pattern_show_trial_num","","","","","","","","","","","","","","","","","","","","","","","","",""
"","","","","","image-keyboard-response","84","191977","0.0-2.0-5.0-1.31","63ed008a1b535769b1262e50","C3","batch3","","1343.5999999996275","stim/no_25_1_b.png","j","pattern_response","true","j","pattern_09","1343.5999999996275","true","25","","","","","","","","","","","","","","","","","","",""
"","","","","","html-keyboard-response","85","193292","0.0-2.0-5.0-0.32","63ed008a1b535769b1262e50","C3","batch3","","null","<p class=block-text>Trial 33 out of 78</p>","null","pattern_show_trial_num","","","","","","","","","","","","","","","","","","","","","","","","",""
"","","","","","image-keyboard-response","86","195561","0.0-2.0-5.0-1.32","63ed008a1b535769b1262e50","C3","batch3","","2268.2999999988824","stim/yes_42_dia_w1_w.png","j","pattern_response","false","f","pattern_64","2268.2999999988824","false","25","","","","","","","","","","","","","","","","","","",""
"","","","","","html-keyboard-response","87","196874","0.0-2.0-5.0-0.33","63ed008a1b535769b1262e50","C3","batch3","","null","<p class=block-text>Trial 34 out of 78</p>","null","pattern_show_trial_num","","","","","","","","","","","","","","","","","","","","","","","","",""
"","","","","","image-keyboard-response","88","198529","0.0-2.0-5.0-1.33","63ed008a1b535769b1262e50","C3","batch3","","1654.2000000011176","stim/yes_23_ver_b1.png","f","pattern_response","true","f","pattern_48","1654.2000000011176","true","26","","","","","","","","","","","","","","","","","","",""
"","","","","","html-keyboard-response","89","199844","0.0-2.0-5.0-0.34","63ed008a1b535769b1262e50","C3","batch3","","null","<p class=block-text>Trial 35 out of 78</p>","null","pattern_show_trial_num","","","","","","","","","","","","","","","","","","","","","","","","",""
"","","","","","image-keyboard-response","90","202657","0.0-2.0-5.0-1.34","63ed008a1b535769b1262e50","C3","batch3","","2812.0999999996275","stim/yes_58_dia_w1_w.png","j","pattern_response","false","f","pattern_76","2812.0999999996275","false","26","","","","","","","","","","","","","","","","","","",""
"","","","","","html-keyboard-response","91","203972","0.0-2.0-5.0-0.35","63ed008a1b535769b1262e50","C3","batch3","","null","<p class=block-text>Trial 36 out of 78</p>","null","pattern_show_trial_num","","","","","","","","","","","","","","","","","","","","","","","","",""
"","","","","","image-keyboard-response","92","205185","0.0-2.0-5.0-1.35","63ed008a1b535769b1262e50","C3","batch3","","1211.199999999255","stim/no_43_2_b.png","j","pattern_response","true","j","pattern_23","1211.199999999255","true","27","","","","","","","","","","","","","","","","","","",""
"","","","","","html-keyboard-response","93","206500","0.0-2.0-5.0-0.36","63ed008a1b535769b1262e50","C3","batch3","","null","<p class=block-text>Trial 37 out of 78</p>","null","pattern_show_trial_num","","","","","","","","","","","","","","","","","","","","","","","","",""
"","","","","","image-keyboard-response","94","207745","0.0-2.0-5.0-1.36","63ed008a1b535769b1262e50","C3","batch3","","1243.699999999255","stim/yes_51_dia_b1.png","j","pattern_response","false","f","pattern_72","1243.699999999255","false","27","","","","","","","","","","","","","","","","","","",""
"","","","","","html-keyboard-response","95","209060","0.0-2.0-5.0-0.37","63ed008a1b535769b1262e50","C3","batch3","","null","<p class=block-text>Trial 38 out of 78</p>","null","pattern_show_trial_num","","","","","","","","","","","","","","","","","","","","","","","","",""
"","","","","","image-keyboard-response","96","209921","0.0-2.0-5.0-1.37","63ed008a1b535769b1262e50","C3","batch3","","859.3999999985099","stim/no_12_1.png","j","pattern_response","true","j","pattern_01","859.3999999985099","true","28","","","","","","","","","","","","","","","","","","",""
"","","","","","html-keyboard-response","97","211236","0.0-2.0-5.0-0.38","63ed008a1b535769b1262e50","C3","batch3","","null","<p class=block-text>Trial 39 out of 78</p>","null","pattern_show_trial_num","","","","","","","","","","","","","","","","","","","","","","","","",""
"","","","","","image-keyboard-response","98","212057","0.0-2.0-5.0-1.38","63ed008a1b535769b1262e50","C3","batch3","","819.5999999996275","stim/yes_12_hor_w1_w.png","f","pattern_response","true","f","pattern_42","819.5999999996275","true","29","","","","","","","","","","","","","","","","","","",""
"","","","","","image-keyboard-response","99","215649","0.0-2.0-6.0","63ed008a1b535769b1262e50","C3","batch3","","3084.300000000745","stim/empty_board.png","j","attention_check","true","j","","","","","500","[""f"",""j""]","","","","","","","","","","","","","","","","",""
"","","","","","html-keyboard-response","100","216455","0.0-2.0-7.0-0.0","63ed008a1b535769b1262e50","C3","batch3","","null","<p class=block-text>Trial 40 out of 78</p>","null","pattern_show_trial_num","","","","","","","","","","","","","","","","","","","","","","","","",""
"","","","","","image-keyboard-response","101","218825","0.0-2.0-7.0-1.0","63ed008a1b535769b1262e50","C3","batch3","","2367.89999999851","stim/no_29_1_b.png","j","pattern_response","true","j","pattern_12","2367.89999999851","true","30","","","","","","","","","","","","","","","","","","",""
"","","","","","html-keyboard-response","102","220139","0.0-2.0-7.0-0.1","63ed008a1b535769b1262e50","C3","batch3","","null","<p class=block-text>Trial 41 out of 78</p>","null","pattern_show_trial_num","","","","","","","","","","","","","","","","","","","","","","","","",""
"","","","","","image-keyboard-response","103","221184","0.0-2.0-7.0-1.1","63ed008a1b535769b1262e50","C3","batch3","","1044","stim/yes_14_hor_b1_w.png","f","pattern_response","true","f","pattern_43","1044","true","31","","","","","","","","","","","","","","","","","","",""
"","","","","","html-keyboard-response","104","222499","0.0-2.0-7.0-0.2","63ed008a1b535769b1262e50","C3","batch3","","null","<p class=block-text>Trial 42 out of 78</p>","null","pattern_show_trial_num","","","","","","","","","","","","","","","","","","","","","","","","",""
"","","","","","image-keyboard-response","105","227648","0.0-2.0-7.0-1.2","63ed008a1b535769b1262e50","C3","batch3","","5148.39999999851","stim/no_13_2_b.png","j","pattern_response","true","j","pattern_02","5148.39999999851","true","32","","","","","","","","","","","","","","","","","","",""
"","","","","","html-keyboard-response","106","228963","0.0-2.0-7.0-0.3","63ed008a1b535769b1262e50","C3","batch3","","null","<p class=block-text>Trial 43 out of 78</p>","null","pattern_show_trial_num","","","","","","","","","","","","","","","","","","","","","","","","",""
"","","","","","image-keyboard-response","107","233427","0.0-2.0-7.0-1.3","63ed008a1b535769b1262e50","C3","batch3","","4454","stim/yes_38_hor_b1_b.png","j","pattern_response","false","f","pattern_61","4454","false","32","","","","","","","","","","","","","","","","","","",""
"","","","","","html-keyboard-response","108","234747","0.0-2.0-7.0-0.4","63ed008a1b535769b1262e50","C3","batch3","","null","<p class=block-text>Trial 44 out of 78</p>","null","pattern_show_trial_num","","","","","","","","","","","","","","","","","","","","","","","","",""
"","","","","","image-keyboard-response","109","240708","0.0-2.0-7.0-1.4","63ed008a1b535769b1262e50","C3","batch3","","5959.0999999996275","stim/no_44_1.png","j","pattern_response","true","j","pattern_24","5959.0999999996275","true","33","","","","","","","","","","","","","","","","","","",""
"","","","","","html-keyboard-response","110","242027","0.0-2.0-7.0-0.5","63ed008a1b535769b1262e50","C3","batch3","","null","<p class=block-text>Trial 45 out of 78</p>","null","pattern_show_trial_num","","","","","","","","","","","","","","","","","","","","","","","","",""
"","","","","","image-keyboard-response","111","244624","0.0-2.0-7.0-1.5","63ed008a1b535769b1262e50","C3","batch3","","2595.0999999996275","stim/yes_45_hor_b2_b.png","f","pattern_response","true","f","pattern_67","2595.0999999996275","true","34","","","","","","","","","","","","","","","","","","",""
"","","","","","html-keyboard-response","112","245935","0.0-2.0-7.0-0.6","63ed008a1b535769b1262e50","C3","batch3","","null","<p class=block-text>Trial 46 out of 78</p>","null","pattern_show_trial_num","","","","","","","","","","","","","","","","","","","","","","","","",""
"","","","","","image-keyboard-response","113","255615","0.0-2.0-7.0-1.6","63ed008a1b535769b1262e50","C3","batch3","","9678.5","stim/no_38_1_b.png","j","pattern_response","true","j","pattern_20","9678.5","true","35","","","","","","","","","","","","","","","","","","",""
"","","","","","html-keyboard-response","114","256930","0.0-2.0-7.0-0.7","63ed008a1b535769b1262e50","C3","batch3","","null","<p class=block-text>Trial 47 out of 78</p>","null","pattern_show_trial_num","","","","","","","","","","","","","","","","","","","","","","","","",""
"","","","","","image-keyboard-response","115","260176","0.0-2.0-7.0-1.7","63ed008a1b535769b1262e50","C3","batch3","","3243.5999999996275","stim/no_52_1.png","j","pattern_response","true","j","pattern_32","3243.5999999996275","true","36","","","","","","","","","","","","","","","","","","",""
"","","","","","html-keyboard-response","116","261488","0.0-2.0-7.0-0.8","63ed008a1b535769b1262e50","C3","batch3","","null","<p class=block-text>Trial 48 out of 78</p>","null","pattern_show_trial_num","","","","","","","","","","","","","","","","","","","","","","","","",""
"","","","","","image-keyboard-response","117","265241","0.0-2.0-7.0-1.8","63ed008a1b535769b1262e50","C3","batch3","","3751.7999999988824","stim/yes_50_dia_w1.png","j","pattern_response","false","f","pattern_71","3751.7999999988824","false","36","","","","","","","","","","","","","","","","","","",""
"","","","","","html-keyboard-response","118","266562","0.0-2.0-7.0-0.9","63ed008a1b535769b1262e50","C3","batch3","","null","<p class=block-text>Trial 49 out of 78</p>","null","pattern_show_trial_num","","","","","","","","","","","","","","","","","","","","","","","","",""
"","","","","","image-keyboard-response","119","267913","0.0-2.0-7.0-1.9","63ed008a1b535769b1262e50","C3","batch3","","1349.5","stim/no_20_1_w.png","j","pattern_response","true","j","pattern_06","1349.5","true","37","","","","","","","","","","","","","","","","","","",""
"","","","","","html-keyboard-response","120","269230","0.0-2.0-7.0-0.10","63ed008a1b535769b1262e50","C3","batch3","","null","<p class=block-text>Trial 50 out of 78</p>","null","pattern_show_trial_num","","","","","","","","","","","","","","","","","","","","","","","","",""
"","","","","","image-keyboard-response","121","273353","0.0-2.0-7.0-1.10","63ed008a1b535769b1262e50","C3","batch3","","4121.5999999996275","stim/no_62_1_w.png","j","pattern_response","true","j","pattern_36","4121.5999999996275","true","38","","","","","","","","","","","","","","","","","","",""
"","","","","","html-keyboard-response","122","274670","0.0-2.0-7.0-0.11","63ed008a1b535769b1262e50","C3","batch3","","null","<p class=block-text>Trial 51 out of 78</p>","null","pattern_show_trial_num","","","","","","","","","","","","","","","","","","","","","","","","",""
"","","","","","image-keyboard-response","123","276681","0.0-2.0-7.0-1.11","63ed008a1b535769b1262e50","C3","batch3","","2009.0999999996275","stim/yes_40_dia_b1_b.png","j","pattern_response","false","f","pattern_63","2009.0999999996275","false","38","","","","","","","","","","","","","","","","","","",""
"","","","","","html-keyboard-response","124","277997","0.0-2.0-7.0-0.12","63ed008a1b535769b1262e50","C3","batch3","","null","<p class=block-text>Trial 52 out of 78</p>","null","pattern_show_trial_num","","","","","","","","","","","","","","","","","","","","","","","","",""
"","","","","","image-keyboard-response","125","280349","0.0-2.0-7.0-1.12","63ed008a1b535769b1262e50","C3","batch3","","2350.9000000003725","stim/no_65_1_b.png","j","pattern_response","true","j","pattern_38","2350.9000000003725","true","39","","","","","","","","","","","","","","","","","","",""
"","","","","","html-keyboard-response","126","281666","0.0-2.0-7.0-0.13","63ed008a1b535769b1262e50","C3","batch3","","null","<p class=block-text>Trial 53 out of 78</p>","null","pattern_show_trial_num","","","","","","","","","","","","","","","","","","","","","","","","",""
"","","","","","image-keyboard-response","127","284275","0.0-2.0-7.0-1.13","63ed008a1b535769b1262e50","C3","batch3","","2607.5999999996275","stim/yes_31_hor_b1.png","f","pattern_response","true","f","pattern_55","2607.5999999996275","true","40","","","","","","","","","","","","","","","","","","",""
"","","","","","html-keyboard-response","128","285593","0.0-2.0-7.0-0.14","63ed008a1b535769b1262e50","C3","batch3","","null","<p class=block-text>Trial 54 out of 78</p>","null","pattern_show_trial_num","","","","","","","","","","","","","","","","","","","","","","","","",""
"","","","","","image-keyboard-response","129","290406","0.0-2.0-7.0-1.14","63ed008a1b535769b1262e50","C3","batch3","","4810.9000000003725","stim/no_50_1.png","j","pattern_response","true","j","pattern_30","4810.9000000003725","true","41","","","","","","","","","","","","","","","","","","",""
"","","","","","html-keyboard-response","130","291721","0.0-2.0-7.0-0.15","63ed008a1b535769b1262e50","C3","batch3","","null","<p class=block-text>Trial 55 out of 78</p>","null","pattern_show_trial_num","","","","","","","","","","","","","","","","","","","","","","","","",""
"","","","","","image-keyboard-response","131","298655","0.0-2.0-7.0-1.15","63ed008a1b535769b1262e50","C3","batch3","","6932.0999999996275","stim/no_23_1.png","j","pattern_response","true","j","pattern_08","6932.0999999996275","true","42","","","","","","","","","","","","","","","","","","",""
"","","","","","html-keyboard-response","132","299969","0.0-2.0-7.0-0.16","63ed008a1b535769b1262e50","C3","batch3","","null","<p class=block-text>Trial 56 out of 78</p>","null","pattern_show_trial_num","","","","","","","","","","","","","","","","","","","","","","","","",""
"","","","","","image-keyboard-response","133","301503","0.0-2.0-7.0-1.16","63ed008a1b535769b1262e50","C3","batch3","","1532.4000000003725","stim/no_36_2_w.png","j","pattern_response","true","j","pattern_18","1532.4000000003725","true","43","","","","","","","","","","","","","","","","","","",""
"","","","","","html-keyboard-response","134","302813","0.0-2.0-7.0-0.17","63ed008a1b535769b1262e50","C3","batch3","","null","<p class=block-text>Trial 57 out of 78</p>","null","pattern_show_trial_num","","","","","","","","","","","","","","","","","","","","","","","","",""
"","","","","","image-keyboard-response","135","304662","0.0-2.0-7.0-1.17","63ed008a1b535769b1262e50","C3","batch3","","1848","stim/yes_43_ver_w1_w.png","f","pattern_response","true","f","pattern_65","1848","true","44","","","","","","","","","","","","","","","","","","",""
"","","","","","html-keyboard-response","136","305977","0.0-2.0-7.0-0.18","63ed008a1b535769b1262e50","C3","batch3","","null","<p class=block-text>Trial 58 out of 78</p>","null","pattern_show_trial_num","","","","","","","","","","","","","","","","","","","","","","","","",""
"","","","","","image-keyboard-response","137","307870","0.0-2.0-7.0-1.18","63ed008a1b535769b1262e50","C3","batch3","","1892.5999999996275","stim/no_17_1_w.png","j","pattern_response","true","j","pattern_04","1892.5999999996275","true","45","","","","","","","","","","","","","","","","","","",""
"","","","","","html-keyboard-response","138","309185","0.0-2.0-7.0-0.19","63ed008a1b535769b1262e50","C3","batch3","","null","<p class=block-text>Trial 59 out of 78</p>","null","pattern_show_trial_num","","","","","","","","","","","","","","","","","","","","","","","","",""
"","","","","","image-keyboard-response","139","311962","0.0-2.0-7.0-1.19","63ed008a1b535769b1262e50","C3","batch3","","2775.39999999851","stim/no_55_1_w.png","j","pattern_response","true","j","pattern_34","2775.39999999851","true","46","","","","","","","","","","","","","","","","","","",""
"","","","","","html-keyboard-response","140","313280","0.0-2.0-7.0-0.20","63ed008a1b535769b1262e50","C3","batch3","","null","<p class=block-text>Trial 60 out of 78</p>","null","pattern_show_trial_num","","","","","","","","","","","","","","","","","","","","","","","","",""
"","","","","","image-keyboard-response","141","314289","0.0-2.0-7.0-1.20","63ed008a1b535769b1262e50","C3","batch3","","1007.1999999992549","stim/yes_35_dia_b1.png","j","pattern_response","false","f","pattern_57","1007.1999999992549","false","46","","","","","","","","","","","","","","","","","","",""
"","","","","","html-keyboard-response","142","315604","0.0-2.0-7.0-0.21","63ed008a1b535769b1262e50","C3","batch3","","null","<p class=block-text>Trial 61 out of 78</p>","null","pattern_show_trial_num","","","","","","","","","","","","","","","","","","","","","","","","",""
"","","","","","image-keyboard-response","143","317225","0.0-2.0-7.0-1.21","63ed008a1b535769b1262e50","C3","batch3","","1619.5","stim/yes_67_hor_b1.png","f","pattern_response","true","f","pattern_79","1619.5","true","47","","","","","","","","","","","","","","","","","","",""
"","","","","","html-keyboard-response","144","318544","0.0-2.0-7.0-0.22","63ed008a1b535769b1262e50","C3","batch3","","null","<p class=block-text>Trial 62 out of 78</p>","null","pattern_show_trial_num","","","","","","","","","","","","","","","","","","","","","","","","",""
"","","","","","image-keyboard-response","145","321145","0.0-2.0-7.0-1.22","63ed008a1b535769b1262e50","C3","batch3","","2599.199999999255","stim/no_48_1_w.png","j","pattern_response","true","j","pattern_28","2599.199999999255","true","48","","","","","","","","","","","","","","","","","","",""
"","","","","","html-keyboard-response","146","322464","0.0-2.0-7.0-0.23","63ed008a1b535769b1262e50","C3","batch3","","null","<p class=block-text>Trial 63 out of 78</p>","null","pattern_show_trial_num","","","","","","","","","","","","","","","","","","","","","","","","",""
"","","","","","image-keyboard-response","147","324890","0.0-2.0-7.0-1.23","63ed008a1b535769b1262e50","C3","batch3","","2424.5","stim/yes_48_dia_w1_w.png","j","pattern_response","false","f","pattern_69","2424.5","false","48","","","","","","","","","","","","","","","","","","",""
"","","","","","html-keyboard-response","148","326208","0.0-2.0-7.0-0.24","63ed008a1b535769b1262e50","C3","batch3","","null","<p class=block-text>Trial 64 out of 78</p>","null","pattern_show_trial_num","","","","","","","","","","","","","","","","","","","","","","","","",""
"","","","","","image-keyboard-response","149","327378","0.0-2.0-7.0-1.24","63ed008a1b535769b1262e50","C3","batch3","","1168.699999999255","stim/yes_29_ver_w1.png","j","pattern_response","false","f","pattern_53","1168.699999999255","false","48","","","","","","","","","","","","","","","","","","",""
"","","","","","html-keyboard-response","150","328692","0.0-2.0-7.0-0.25","63ed008a1b535769b1262e50","C3","batch3","","null","<p class=block-text>Trial 65 out of 78</p>","null","pattern_show_trial_num","","","","","","","","","","","","","","","","","","","","","","","","",""
"","","","","","image-keyboard-response","151","330042","0.0-2.0-7.0-1.25","63ed008a1b535769b1262e50","C3","batch3","","1348.2000000011176","stim/yes_52_ver_w1.png","f","pattern_response","true","f","pattern_73","1348.2000000011176","true","49","","","","","","","","","","","","","","","","","","",""
"","","","","","html-keyboard-response","152","331360","0.0-2.0-7.0-0.26","63ed008a1b535769b1262e50","C3","batch3","","null","<p class=block-text>Trial 66 out of 78</p>","null","pattern_show_trial_num","","","","","","","","","","","","","","","","","","","","","","","","",""
"","","","","","image-keyboard-response","153","334240","0.0-2.0-7.0-1.26","63ed008a1b535769b1262e50","C3","batch3","","2879","stim/no_46_1_b.png","j","pattern_response","true","j","pattern_26","2879","true","50","","","","","","","","","","","","","","","","","","",""
"","","","","","html-keyboard-response","154","335560","0.0-2.0-7.0-0.27","63ed008a1b535769b1262e50","C3","batch3","","null","<p class=block-text>Trial 67 out of 78</p>","null","pattern_show_trial_num","","","","","","","","","","","","","","","","","","","","","","","","",""
"","","","","","image-keyboard-response","155","336968","0.0-2.0-7.0-1.27","63ed008a1b535769b1262e50","C3","batch3","","1406.7999999988824","stim/yes_28_ver_b1.png","f","pattern_response","true","f","pattern_51","1406.7999999988824","true","51","","","","","","","","","","","","","","","","","","",""
"","","","","","html-keyboard-response","156","338285","0.0-2.0-7.0-0.28","63ed008a1b535769b1262e50","C3","batch3","","null","<p class=block-text>Trial 68 out of 78</p>","null","pattern_show_trial_num","","","","","","","","","","","","","","","","","","","","","","","","",""
"","","","","","image-keyboard-response","157","339336","0.0-2.0-7.0-1.28","63ed008a1b535769b1262e50","C3","batch3","","1049.300000000745","stim/yes_25_hor_b1_b.png","f","pattern_response","true","f","pattern_49","1049.300000000745","true","52","","","","","","","","","","","","","","","","","","",""
"","","","","","html-keyboard-response","158","340650","0.0-2.0-7.0-0.29","63ed008a1b535769b1262e50","C3","batch3","","null","<p class=block-text>Trial 69 out of 78</p>","null","pattern_show_trial_num","","","","","","","","","","","","","","","","","","","","","","","","",""
"","","","","","image-keyboard-response","159","343565","0.0-2.0-7.0-1.29","63ed008a1b535769b1262e50","C3","batch3","","2912.800000000745","stim/yes_60_ver_b1_b.png","j","pattern_response","false","f","pattern_77","2912.800000000745","false","52","","","","","","","","","","","","","","","","","","",""
"","","","","","html-keyboard-response","160","344877","0.0-2.0-7.0-0.30","63ed008a1b535769b1262e50","C3","batch3","","null","<p class=block-text>Trial 70 out of 78</p>","null","pattern_show_trial_num","","","","","","","","","","","","","","","","","","","","","","","","",""
"","","","","","image-keyboard-response","161","345957","0.0-2.0-7.0-1.30","63ed008a1b535769b1262e50","C3","batch3","","1077.9000000003725","stim/no_26_1_w.png","j","pattern_response","true","j","pattern_10","1077.9000000003725","true","53","","","","","","","","","","","","","","","","","","",""
"","","","","","html-keyboard-response","162","347271","0.0-2.0-7.0-0.31","63ed008a1b535769b1262e50","C3","batch3","","null","<p class=block-text>Trial 71 out of 78</p>","null","pattern_show_trial_num","","","","","","","","","","","","","","","","","","","","","","","","",""
"","","","","","image-keyboard-response","163","349053","0.0-2.0-7.0-1.31","63ed008a1b535769b1262e50","C3","batch3","","1780.2999999988824","stim/no_34_1_b.png","j","pattern_response","true","j","pattern_16","1780.2999999988824","true","54","","","","","","","","","","","","","","","","","","",""
"","","","","","html-keyboard-response","164","350367","0.0-2.0-7.0-0.32","63ed008a1b535769b1262e50","C3","batch3","","null","<p class=block-text>Trial 72 out of 78</p>","null","pattern_show_trial_num","","","","","","","","","","","","","","","","","","","","","","","","",""
"","","","","","image-keyboard-response","165","352205","0.0-2.0-7.0-1.32","63ed008a1b535769b1262e50","C3","batch3","","1836.0999999996275","stim/yes_37_dia_w1.png","j","pattern_response","false","f","pattern_59","1836.0999999996275","false","54","","","","","","","","","","","","","","","","","","",""
"","","","","","html-keyboard-response","166","353519","0.0-2.0-7.0-0.33","63ed008a1b535769b1262e50","C3","batch3","","null","<p class=block-text>Trial 73 out of 78</p>","null","pattern_show_trial_num","","","","","","","","","","","","","","","","","","","","","","","","",""
"","","","","","image-keyboard-response","167","354348","0.0-2.0-7.0-1.33","63ed008a1b535769b1262e50","C3","batch3","","827.6999999992549","stim/yes_22_ver_w1.png","j","pattern_response","false","f","pattern_47","827.6999999992549","false","54","","","","","","","","","","","","","","","","","","",""
"","","","","","html-keyboard-response","168","355663","0.0-2.0-7.0-0.34","63ed008a1b535769b1262e50","C3","batch3","","null","<p class=block-text>Trial 74 out of 78</p>","null","pattern_show_trial_num","","","","","","","","","","","","","","","","","","","","","","","","",""
"","","","","","image-keyboard-response","169","357092","0.0-2.0-7.0-1.34","63ed008a1b535769b1262e50","C3","batch3","","1428.199999999255","stim/yes_17_dia_w1.png","f","pattern_response","true","f","pattern_45","1428.199999999255","true","55","","","","","","","","","","","","","","","","","","",""
"","","","","","html-keyboard-response","170","358406","0.0-2.0-7.0-0.35","63ed008a1b535769b1262e50","C3","batch3","","null","<p class=block-text>Trial 75 out of 78</p>","null","pattern_show_trial_num","","","","","","","","","","","","","","","","","","","","","","","","",""
"","","","","","image-keyboard-response","171","359389","0.0-2.0-7.0-1.35","63ed008a1b535769b1262e50","C3","batch3","","981.7000000011176","stim/no_32_1_w.png","j","pattern_response","true","j","pattern_14","981.7000000011176","true","56","","","","","","","","","","","","","","","","","","",""
"","","","","","html-keyboard-response","172","360703","0.0-2.0-7.0-0.36","63ed008a1b535769b1262e50","C3","batch3","","null","<p class=block-text>Trial 76 out of 78</p>","null","pattern_show_trial_num","","","","","","","","","","","","","","","","","","","","","","","","",""
"","","","","","image-keyboard-response","173","362204","0.0-2.0-7.0-1.36","63ed008a1b535769b1262e50","C3","batch3","","1499.7999999988824","stim/no_42_1_w.png","j","pattern_response","true","j","pattern_22","1499.7999999988824","true","57","","","","","","","","","","","","","","","","","","",""
"","","","","","html-keyboard-response","174","363519","0.0-2.0-7.0-0.37","63ed008a1b535769b1262e50","C3","batch3","","null","<p class=block-text>Trial 77 out of 78</p>","null","pattern_show_trial_num","","","","","","","","","","","","","","","","","","","","","","","","",""
"","","","","","image-keyboard-response","175","367075","0.0-2.0-7.0-1.37","63ed008a1b535769b1262e50","C3","batch3","","3555.300000000745","stim/no_70_2.png","j","pattern_response","true","j","pattern_40","3555.300000000745","true","58","","","","","","","","","","","","","","","","","","",""
"","","","","","html-keyboard-response","176","368391","0.0-2.0-7.0-0.38","63ed008a1b535769b1262e50","C3","batch3","","null","<p class=block-text>Trial 78 out of 78</p>","null","pattern_show_trial_num","","","","","","","","","","","","","","","","","","","","","","","","",""
"","","","","","image-keyboard-response","177","369564","0.0-2.0-7.0-1.38","63ed008a1b535769b1262e50","C3","batch3","","1171.2999999988824","stim/yes_55_hor_w1_w.png","f","pattern_response","true","f","pattern_75","1171.2999999988824","true","59","","","","","","","","","","","","","","","","","","",""
"","","","","","html-button-response","178","382287","0.0-2.0-8.0","63ed008a1b535769b1262e50","C3","batch3","","12216.300000000745","<p class = block-text>This concludes the 4-in-a-row detection game.Thank you for your responses!<br>
            You responded correctly on 76% of the trials.<br>
            When you are ready, press ""Continue"" button to continue </p>","0","","","","","","","","","","","","","","","","","","","","","","","","","",""
"true","","","","","fullscreen","179","388930","0.0-3.0-0.0","63ed008a1b535769b1262e50","C3","batch3","","","","","spm_fullscreen","","","","","","","","","","","","","","","","","","","","","","","","",""
"","","","","","html-button-response","180","431315","0.0-3.0-1.0","63ed008a1b535769b1262e50","C3","batch3","","42384.40000000037","<p class = block-text><b>Instructions</b> <br>This is a widely used intelligence test in research. <br>In this test, a figure with a missing piece will be presented.<br>Below the figure are alternative pieces to complete the figure, only one of which is correct.<br> Different figures might involve different principles for obtaining the missing piece<br>Your job is to select the most logical piece to complete the figure.</p>","0","","","","","","","","","","","","","","","","","","","","","","","","","",""
"","","","","","html-keyboard-response","181","432125","0.0-3.0-2.0-0.0","63ed008a1b535769b1262e50","C3","batch3","","null","<p class=block-text>Trial 1 out of 60</p>","null","spm_show_trial_num","","","","","","","","","","","","","","","","","","","","","","","","",""
"","","","","","image-button-response","182","445633","0.0-3.0-2.0-1.0","63ed008a1b535769b1262e50","C3","batch3","","13506","img/question_1_1.jpeg","3","spm_respsonse","1","4","mat_01","","","","","","1","13506","","","","","","","","","","","","","","",""
"","","","","","html-keyboard-response","183","446700","0.0-3.0-2.0-0.1","63ed008a1b535769b1262e50","C3","batch3","","null","<p class=block-text>Trial 2 out of 60</p>","null","spm_show_trial_num","","","","","","","","","","","","","","","","","","","","","","","","",""
"","","","","","image-button-response","184","453105","0.0-3.0-2.0-1.1","63ed008a1b535769b1262e50","C3","batch3","","6402.300000000745","img/question_1_2.jpeg","4","spm_respsonse","1","5","mat_02","","","","","","1","6402.300000000745","","","","","","","","","","","","","","",""
"","","","","","html-keyboard-response","185","454169","0.0-3.0-2.0-0.2","63ed008a1b535769b1262e50","C3","batch3","","null","<p class=block-text>Trial 3 out of 60</p>","null","spm_show_trial_num","","","","","","","","","","","","","","","","","","","","","","","","",""
"","","","","","image-button-response","186","459217","0.0-3.0-2.0-1.2","63ed008a1b535769b1262e50","C3","batch3","","5046.300000000745","img/question_1_3.jpeg","0","spm_respsonse","1","1","mat_03","","","","","","1","5046.300000000745","","","","","","","","","","","","","","",""
"","","","","","html-keyboard-response","187","460284","0.0-3.0-2.0-0.3","63ed008a1b535769b1262e50","C3","batch3","","null","<p class=block-text>Trial 4 out of 60</p>","null","spm_show_trial_num","","","","","","","","","","","","","","","","","","","","","","","","",""
"","","","","","image-button-response","188","466535","0.0-3.0-2.0-1.3","63ed008a1b535769b1262e50","C3","batch3","","6248.9000000003725","img/question_1_4.jpeg","1","spm_respsonse","1","2","mat_04","","","","","","1","6248.9000000003725","","","","","","","","","","","","","","",""
"","","","","","html-keyboard-response","189","467603","0.0-3.0-2.0-0.4","63ed008a1b535769b1262e50","C3","batch3","","null","<p class=block-text>Trial 5 out of 60</p>","null","spm_show_trial_num","","","","","","","","","","","","","","","","","","","","","","","","",""
"","","","","","image-button-response","190","474304","0.0-3.0-2.0-1.4","63ed008a1b535769b1262e50","C3","batch3","","6698.5999999996275","img/question_1_5.jpeg","5","spm_respsonse","1","6","mat_05","","","","","","1","6698.5999999996275","","","","","","","","","","","","","","",""
"","","","","","html-keyboard-response","191","475371","0.0-3.0-2.0-0.5","63ed008a1b535769b1262e50","C3","batch3","","null","<p class=block-text>Trial 6 out of 60</p>","null","spm_show_trial_num","","","","","","","","","","","","","","","","","","","","","","","","",""
"","","","","","image-button-response","192","480379","0.0-3.0-2.0-1.5","63ed008a1b535769b1262e50","C3","batch3","","5006.200000001118","img/question_1_6.jpeg","2","spm_respsonse","1","3","mat_06","","","","","","1","5006.200000001118","","","","","","","","","","","","","","",""
"","","","","","html-keyboard-response","193","481443","0.0-3.0-2.0-0.6","63ed008a1b535769b1262e50","C3","batch3","","null","<p class=block-text>Trial 7 out of 60</p>","null","spm_show_trial_num","","","","","","","","","","","","","","","","","","","","","","","","",""
"","","","","","image-button-response","194","489035","0.0-3.0-2.0-1.6","63ed008a1b535769b1262e50","C3","batch3","","7590.200000001118","img/question_1_7.jpeg","5","spm_respsonse","1","6","mat_07","","","","","","1","7590.200000001118","","","","","","","","","","","","","","",""
"","","","","","html-keyboard-response","195","490107","0.0-3.0-2.0-0.7","63ed008a1b535769b1262e50","C3","batch3","","null","<p class=block-text>Trial 8 out of 60</p>","null","spm_show_trial_num","","","","","","","","","","","","","","","","","","","","","","","","",""
"","","","","","image-button-response","196","499495","0.0-3.0-2.0-1.7","63ed008a1b535769b1262e50","C3","batch3","","9386.900000000373","img/question_1_8.jpeg","1","spm_respsonse","1","2","mat_08","","","","","","1","9386.900000000373","","","","","","","","","","","","","","",""
"","","","","","html-keyboard-response","197","500562","0.0-3.0-2.0-0.8","63ed008a1b535769b1262e50","C3","batch3","","null","<p class=block-text>Trial 9 out of 60</p>","null","spm_show_trial_num","","","","","","","","","","","","","","","","","","","","","","","","",""
"","","","","","image-button-response","198","510011","0.0-3.0-2.0-1.8","63ed008a1b535769b1262e50","C3","batch3","","9446.900000000373","img/question_1_9.jpeg","0","spm_respsonse","1","1","mat_09","","","","","","1","9446.900000000373","","","","","","","","","","","","","","",""
"","","","","","html-keyboard-response","199","511082","0.0-3.0-2.0-0.9","63ed008a1b535769b1262e50","C3","batch3","","null","<p class=block-text>Trial 10 out of 60</p>","null","spm_show_trial_num","","","","","","","","","","","","","","","","","","","","","","","","",""
"","","","","","image-button-response","200","518640","0.0-3.0-2.0-1.9","63ed008a1b535769b1262e50","C3","batch3","","7556.5999999996275","img/question_1_10.jpeg","2","spm_respsonse","1","3","mat_10","","","","","","1","7556.5999999996275","","","","","","","","","","","","","","",""
"","","","","","html-keyboard-response","201","519706","0.0-3.0-2.0-0.10","63ed008a1b535769b1262e50","C3","batch3","","null","<p class=block-text>Trial 11 out of 60</p>","null","spm_show_trial_num","","","","","","","","","","","","","","","","","","","","","","","","",""
"","","","","","image-button-response","202","536391","0.0-3.0-2.0-1.10","63ed008a1b535769b1262e50","C3","batch3","","16683.700000001118","img/question_1_11.jpeg","3","spm_respsonse","1","4","mat_11","","","","","","1","16683.700000001118","","","","","","","","","","","","","","",""
"","","","","","html-keyboard-response","203","537457","0.0-3.0-2.0-0.11","63ed008a1b535769b1262e50","C3","batch3","","null","<p class=block-text>Trial 12 out of 60</p>","null","spm_show_trial_num","","","","","","","","","","","","","","","","","","","","","","","","",""
"","","","","","image-button-response","204","575783","0.0-3.0-2.0-1.11","63ed008a1b535769b1262e50","C3","batch3","","38325.09999999963","img/question_1_12.jpeg","4","spm_respsonse","1","5","mat_12","","","","","","1","38325.09999999963","","","","","","","","","","","","","","",""
"","","","","","html-keyboard-response","205","576848","0.0-3.0-2.0-0.12","63ed008a1b535769b1262e50","C3","batch3","","null","<p class=block-text>Trial 13 out of 60</p>","null","spm_show_trial_num","","","","","","","","","","","","","","","","","","","","","","","","",""
"","","","","","image-button-response","206","581396","0.0-3.0-2.0-1.12","63ed008a1b535769b1262e50","C3","batch3","","4546","img/question_2_1.jpeg","1","spm_respsonse","1","2","mat_13","","","","","","1","4546","","","","","","","","","","","","","","",""
"","","","","","html-keyboard-response","207","582464","0.0-3.0-2.0-0.13","63ed008a1b535769b1262e50","C3","batch3","","null","<p class=block-text>Trial 14 out of 60</p>","null","spm_show_trial_num","","","","","","","","","","","","","","","","","","","","","","","","",""
"","","","","","image-button-response","208","599580","0.0-3.0-2.0-1.13","63ed008a1b535769b1262e50","C3","batch3","","17114.800000000745","img/question_2_2.jpeg","5","spm_respsonse","1","6","mat_14","","","","","","1","17114.800000000745","","","","","","","","","","","","","","",""
"","","","","","html-keyboard-response","209","600644","0.0-3.0-2.0-0.14","63ed008a1b535769b1262e50","C3","batch3","","null","<p class=block-text>Trial 15 out of 60</p>","null","spm_show_trial_num","","","","","","","","","","","","","","","","","","","","","","","","",""
"","","","","","image-button-response","210","607413","0.0-3.0-2.0-1.14","63ed008a1b535769b1262e50","C3","batch3","","6766.699999999255","img/question_2_3.jpeg","0","spm_respsonse","1","1","mat_15","","","","","","1","6766.699999999255","","","","","","","","","","","","","","",""
"","","","","","html-keyboard-response","211","608479","0.0-3.0-2.0-0.15","63ed008a1b535769b1262e50","C3","batch3","","null","<p class=block-text>Trial 16 out of 60</p>","null","spm_show_trial_num","","","","","","","","","","","","","","","","","","","","","","","","",""
"","","","","","image-button-response","212","617178","0.0-3.0-2.0-1.15","63ed008a1b535769b1262e50","C3","batch3","","8697.700000001118","img/question_2_4.jpeg","1","spm_respsonse","1","2","mat_16","","","","","","1","8697.700000001118","","","","","","","","","","","","","","",""
"","","","","","html-keyboard-response","213","618247","0.0-3.0-2.0-0.16","63ed008a1b535769b1262e50","C3","batch3","","null","<p class=block-text>Trial 17 out of 60</p>","null","spm_show_trial_num","","","","","","","","","","","","","","","","","","","","","","","","",""
"","","","","","image-button-response","214","625936","0.0-3.0-2.0-1.16","63ed008a1b535769b1262e50","C3","batch3","","7687.300000000745","img/question_2_5.jpeg","0","spm_respsonse","1","1","mat_17","","","","","","1","7687.300000000745","","","","","","","","","","","","","","",""
"","","","","","html-keyboard-response","215","627006","0.0-3.0-2.0-0.17","63ed008a1b535769b1262e50","C3","batch3","","null","<p class=block-text>Trial 18 out of 60</p>","null","spm_show_trial_num","","","","","","","","","","","","","","","","","","","","","","","","",""
"","","","","","image-button-response","216","640412","0.0-3.0-2.0-1.17","63ed008a1b535769b1262e50","C3","batch3","","13404.299999998882","img/question_2_6.jpeg","2","spm_respsonse","1","3","mat_18","","","","","","1","13404.299999998882","","","","","","","","","","","","","","",""
"","","","","","html-keyboard-response","217","641478","0.0-3.0-2.0-0.18","63ed008a1b535769b1262e50","C3","batch3","","null","<p class=block-text>Trial 19 out of 60</p>","null","spm_show_trial_num","","","","","","","","","","","","","","","","","","","","","","","","",""
"","","","","","image-button-response","218","648350","0.0-3.0-2.0-1.18","63ed008a1b535769b1262e50","C3","batch3","","6870.300000000745","img/question_2_7.jpeg","4","spm_respsonse","1","5","mat_19","","","","","","1","6870.300000000745","","","","","","","","","","","","","","",""
"","","","","","html-keyboard-response","219","649414","0.0-3.0-2.0-0.19","63ed008a1b535769b1262e50","C3","batch3","","null","<p class=block-text>Trial 20 out of 60</p>","null","spm_show_trial_num","","","","","","","","","","","","","","","","","","","","","","","","",""
"","","","","","image-button-response","220","663144","0.0-3.0-2.0-1.19","63ed008a1b535769b1262e50","C3","batch3","","13728.800000000745","img/question_2_8.jpeg","5","spm_respsonse","1","6","mat_20","","","","","","1","13728.800000000745","","","","","","","","","","","","","","",""
"","","","","","html-keyboard-response","221","664213","0.0-3.0-2.0-0.20","63ed008a1b535769b1262e50","C3","batch3","","null","<p class=block-text>Trial 21 out of 60</p>","null","spm_show_trial_num","","","","","","","","","","","","","","","","","","","","","","","","",""
"","","","","","image-button-response","222","673070","0.0-3.0-2.0-1.20","63ed008a1b535769b1262e50","C3","batch3","","8855.5","img/question_2_9.jpeg","3","spm_respsonse","1","4","mat_21","","","","","","1","8855.5","","","","","","","","","","","","","","",""
"","","","","","html-keyboard-response","223","674141","0.0-3.0-2.0-0.21","63ed008a1b535769b1262e50","C3","batch3","","null","<p class=block-text>Trial 22 out of 60</p>","null","spm_show_trial_num","","","","","","","","","","","","","","","","","","","","","","","","",""
"","","","","","image-button-response","224","689183","0.0-3.0-2.0-1.21","63ed008a1b535769b1262e50","C3","batch3","","15040.60000000149","img/question_2_10.jpeg","2","spm_respsonse","1","3","mat_22","","","","","","1","15040.60000000149","","","","","","","","","","","","","","",""
"","","","","","html-keyboard-response","225","690252","0.0-3.0-2.0-0.22","63ed008a1b535769b1262e50","C3","batch3","","null","<p class=block-text>Trial 23 out of 60</p>","null","spm_show_trial_num","","","","","","","","","","","","","","","","","","","","","","","","",""
"","","","","","image-button-response","226","699717","0.0-3.0-2.0-1.22","63ed008a1b535769b1262e50","C3","batch3","","9462.900000000373","img/question_2_11.jpeg","3","spm_respsonse","1","4","mat_23","","","","","","1","9462.900000000373","","","","","","","","","","","","","","",""
"","","","","","html-keyboard-response","227","700788","0.0-3.0-2.0-0.23","63ed008a1b535769b1262e50","C3","batch3","","null","<p class=block-text>Trial 24 out of 60</p>","null","spm_show_trial_num","","","","","","","","","","","","","","","","","","","","","","","","",""
"","","","","","image-button-response","228","711344","0.0-3.0-2.0-1.23","63ed008a1b535769b1262e50","C3","batch3","","10554","img/question_2_12.jpeg","0","spm_respsonse","0","5","mat_24","","","","","","0","10554","","","","","","","","","","","","","","",""
"","","","","","html-button-response","229","714063","0.0-3.0-3.0","63ed008a1b535769b1262e50","C3","batch3","","2458.5","<p class = block-text>Attention check: Please choose 1<br></p>","0","attention_check","true","","","","","","","","","","","","","","","","","","","","","","","",""
"","","","","","html-keyboard-response","230","714875","0.0-3.0-4.0-0.0","63ed008a1b535769b1262e50","C3","batch3","","null","<p class=block-text>Trial 25 out of 60</p>","null","spm_show_trial_num","","","","","","","","","","","","","","","","","","","","","","","","",""
"","","","","","image-button-response","231","733370","0.0-3.0-4.0-1.0","63ed008a1b535769b1262e50","C3","batch3","","18492.699999999255","img/question_3_1.jpeg","7","spm_respsonse","1","8","mat_25","","","","","","1","18492.699999999255","","","","","","","","","","","","","","",""
"","","","","","html-keyboard-response","232","734430","0.0-3.0-4.0-0.1","63ed008a1b535769b1262e50","C3","batch3","","null","<p class=block-text>Trial 26 out of 60</p>","null","spm_show_trial_num","","","","","","","","","","","","","","","","","","","","","","","","",""
"","","","","","image-button-response","233","743124","0.0-3.0-4.0-1.1","63ed008a1b535769b1262e50","C3","batch3","","8692.10000000149","img/question_3_2.jpeg","1","spm_respsonse","1","2","mat_26","","","","","","1","8692.10000000149","","","","","","","","","","","","","","",""
"","","","","","html-keyboard-response","234","744194","0.0-3.0-4.0-0.2","63ed008a1b535769b1262e50","C3","batch3","","null","<p class=block-text>Trial 27 out of 60</p>","null","spm_show_trial_num","","","","","","","","","","","","","","","","","","","","","","","","",""
"","","","","","image-button-response","235","760124","0.0-3.0-4.0-1.2","63ed008a1b535769b1262e50","C3","batch3","","15927.89999999851","img/question_3_3.jpeg","2","spm_respsonse","1","3","mat_27","","","","","","1","15927.89999999851","","","","","","","","","","","","","","",""
"","","","","","html-keyboard-response","236","761190","0.0-3.0-4.0-0.3","63ed008a1b535769b1262e50","C3","batch3","","null","<p class=block-text>Trial 28 out of 60</p>","null","spm_show_trial_num","","","","","","","","","","","","","","","","","","","","","","","","",""
"","","","","","image-button-response","237","784404","0.0-3.0-4.0-1.3","63ed008a1b535769b1262e50","C3","batch3","","23212.700000001118","img/question_3_4.jpeg","3","spm_respsonse","0","8","mat_28","","","","","","0","23212.700000001118","","","","","","","","","","","","","","",""
"","","","","","html-keyboard-response","238","785473","0.0-3.0-4.0-0.4","63ed008a1b535769b1262e50","C3","batch3","","null","<p class=block-text>Trial 29 out of 60</p>","null","spm_show_trial_num","","","","","","","","","","","","","","","","","","","","","","","","",""
"","","","","","image-button-response","239","837745","0.0-3.0-4.0-1.4","63ed008a1b535769b1262e50","C3","batch3","","52271.70000000112","img/question_3_5.jpeg","6","spm_respsonse","1","7","mat_29","","","","","","1","52271.70000000112","","","","","","","","","","","","","","",""
"","","","","","html-keyboard-response","240","838810","0.0-3.0-4.0-0.5","63ed008a1b535769b1262e50","C3","batch3","","null","<p class=block-text>Trial 30 out of 60</p>","null","spm_show_trial_num","","","","","","","","","","","","","","","","","","","","","","","","",""
"","","","","","image-button-response","241","853870","0.0-3.0-4.0-1.5","63ed008a1b535769b1262e50","C3","batch3","","15058.099999999627","img/question_3_6.jpeg","0","spm_respsonse","0","4","mat_30","","","","","","0","15058.099999999627","","","","","","","","","","","","","","",""
"","","","","","html-keyboard-response","242","854937","0.0-3.0-4.0-0.6","63ed008a1b535769b1262e50","C3","batch3","","null","<p class=block-text>Trial 31 out of 60</p>","null","spm_show_trial_num","","","","","","","","","","","","","","","","","","","","","","","","",""
"","","","","","image-button-response","243","902567","0.0-3.0-4.0-1.6","63ed008a1b535769b1262e50","C3","batch3","","47586.20000000112","img/question_3_7.jpeg","4","spm_respsonse","1","5","mat_31","","","","","","1","47586.20000000112","","","","","","","","","","","","","","",""
"","","","","","html-keyboard-response","244","903635","0.0-3.0-4.0-0.7","63ed008a1b535769b1262e50","C3","batch3","","null","<p class=block-text>Trial 32 out of 60</p>","null","spm_show_trial_num","","","","","","","","","","","","","","","","","","","","","","","","",""
"","","","","","image-button-response","245","987831","0.0-3.0-4.0-1.7","63ed008a1b535769b1262e50","C3","batch3","","84190.90000000037","img/question_3_8.jpeg","0","spm_respsonse","1","1","mat_32","","","","","","1","84190.90000000037","","","","","","","","","","","","","","",""
"","","","","","html-keyboard-response","246","988902","0.0-3.0-4.0-0.8","63ed008a1b535769b1262e50","C3","batch3","","null","<p class=block-text>Trial 33 out of 60</p>","null","spm_show_trial_num","","","","","","","","","","","","","","","","","","","","","","","","",""
"","","","","","image-button-response","247","1016602","0.0-3.0-4.0-1.8","63ed008a1b535769b1262e50","C3","batch3","","27697.800000000745","img/question_3_9.jpeg","6","spm_respsonse","1","7","mat_33","","","","","","1","27697.800000000745","","","","","","","","","","","","","","",""
"","","","","","html-keyboard-response","248","1017670","0.0-3.0-4.0-0.9","63ed008a1b535769b1262e50","C3","batch3","","null","<p class=block-text>Trial 34 out of 60</p>","null","spm_show_trial_num","","","","","","","","","","","","","","","","","","","","","","","","",""
"","","","","","image-button-response","249","1042756","0.0-3.0-4.0-1.9","63ed008a1b535769b1262e50","C3","batch3","","25084","img/question_3_10.jpeg","7","spm_respsonse","0","6","mat_34","","","","","","0","25084","","","","","","","","","","","","","","",""
"","","","","","html-keyboard-response","250","1043822","0.0-3.0-4.0-0.10","63ed008a1b535769b1262e50","C3","batch3","","null","<p class=block-text>Trial 35 out of 60</p>","null","spm_show_trial_num","","","","","","","","","","","","","","","","","","","","","","","","",""
"","","","","","image-button-response","251","1078594","0.0-3.0-4.0-1.10","63ed008a1b535769b1262e50","C3","batch3","","34769.59999999963","img/question_3_11.jpeg","0","spm_respsonse","1","1","mat_35","","","","","","1","34769.59999999963","","","","","","","","","","","","","","",""
"","","","","","html-keyboard-response","252","1079663","0.0-3.0-4.0-0.11","63ed008a1b535769b1262e50","C3","batch3","","null","<p class=block-text>Trial 36 out of 60</p>","null","spm_show_trial_num","","","","","","","","","","","","","","","","","","","","","","","","",""
"","","","","","image-button-response","253","1100315","0.0-3.0-4.0-1.11","63ed008a1b535769b1262e50","C3","batch3","","20649.299999998882","img/question_3_12.jpeg","3","spm_respsonse","0","2","mat_36","","","","","","0","20649.299999998882","","","","","","","","","","","","","","",""
"","","","","","html-keyboard-response","254","1101383","0.0-3.0-4.0-0.12","63ed008a1b535769b1262e50","C3","batch3","","null","<p class=block-text>Trial 37 out of 60</p>","null","spm_show_trial_num","","","","","","","","","","","","","","","","","","","","","","","","",""
"","","","","","image-button-response","255","1106065","0.0-3.0-4.0-1.12","63ed008a1b535769b1262e50","C3","batch3","","4679.9000000003725","img/question_4_1.jpeg","2","spm_respsonse","1","3","mat_37","","","","","","1","4679.9000000003725","","","","","","","","","","","","","","",""
"","","","","","html-keyboard-response","256","1107135","0.0-3.0-4.0-0.13","63ed008a1b535769b1262e50","C3","batch3","","null","<p class=block-text>Trial 38 out of 60</p>","null","spm_show_trial_num","","","","","","","","","","","","","","","","","","","","","","","","",""
"","","","","","image-button-response","257","1120623","0.0-3.0-4.0-1.13","63ed008a1b535769b1262e50","C3","batch3","","13486","img/question_4_2.jpeg","3","spm_respsonse","1","4","mat_38","","","","","","1","13486","","","","","","","","","","","","","","",""
"","","","","","html-keyboard-response","258","1121687","0.0-3.0-4.0-0.14","63ed008a1b535769b1262e50","C3","batch3","","null","<p class=block-text>Trial 39 out of 60</p>","null","spm_show_trial_num","","","","","","","","","","","","","","","","","","","","","","","","",""
"","","","","","image-button-response","259","1137917","0.0-3.0-4.0-1.14","63ed008a1b535769b1262e50","C3","batch3","","16228.099999999627","img/question_4_3.jpeg","2","spm_respsonse","1","3","mat_39","","","","","","1","16228.099999999627","","","","","","","","","","","","","","",""
"","","","","","html-keyboard-response","260","1138983","0.0-3.0-4.0-0.15","63ed008a1b535769b1262e50","C3","batch3","","null","<p class=block-text>Trial 40 out of 60</p>","null","spm_show_trial_num","","","","","","","","","","","","","","","","","","","","","","","","",""
"","","","","","image-button-response","261","1153421","0.0-3.0-4.0-1.15","63ed008a1b535769b1262e50","C3","batch3","","14434.900000000373","img/question_4_4.jpeg","6","spm_respsonse","1","7","mat_40","","","","","","1","14434.900000000373","","","","","","","","","","","","","","",""
"","","","","","html-keyboard-response","262","1154488","0.0-3.0-4.0-0.16","63ed008a1b535769b1262e50","C3","batch3","","null","<p class=block-text>Trial 41 out of 60</p>","null","spm_show_trial_num","","","","","","","","","","","","","","","","","","","","","","","","",""
"","","","","","image-button-response","263","1170954","0.0-3.0-4.0-1.16","63ed008a1b535769b1262e50","C3","batch3","","16463.700000001118","img/question_4_5.jpeg","7","spm_respsonse","1","8","mat_41","","","","","","1","16463.700000001118","","","","","","","","","","","","","","",""
"","","","","","html-keyboard-response","264","1172024","0.0-3.0-4.0-0.17","63ed008a1b535769b1262e50","C3","batch3","","null","<p class=block-text>Trial 42 out of 60</p>","null","spm_show_trial_num","","","","","","","","","","","","","","","","","","","","","","","","",""
"","","","","","image-button-response","265","1205577","0.0-3.0-4.0-1.17","63ed008a1b535769b1262e50","C3","batch3","","33550.800000000745","img/question_4_6.jpeg","2","spm_respsonse","0","6","mat_42","","","","","","0","33550.800000000745","","","","","","","","","","","","","","",""
"","","","","","html-keyboard-response","266","1206648","0.0-3.0-4.0-0.18","63ed008a1b535769b1262e50","C3","batch3","","null","<p class=block-text>Trial 43 out of 60</p>","null","spm_show_trial_num","","","","","","","","","","","","","","","","","","","","","","","","",""
"","","","","","image-button-response","267","1238905","0.0-3.0-4.0-1.18","63ed008a1b535769b1262e50","C3","batch3","","32254.10000000149","img/question_4_7.jpeg","4","spm_respsonse","1","5","mat_43","","","","","","1","32254.10000000149","","","","","","","","","","","","","","",""
"","","","","","html-keyboard-response","268","1239976","0.0-3.0-4.0-0.19","63ed008a1b535769b1262e50","C3","batch3","","null","<p class=block-text>Trial 44 out of 60</p>","null","spm_show_trial_num","","","","","","","","","","","","","","","","","","","","","","","","",""
"","","","","","image-button-response","269","1254485","0.0-3.0-4.0-1.19","63ed008a1b535769b1262e50","C3","batch3","","14506.700000001118","img/question_4_8.jpeg","3","spm_respsonse","1","4","mat_44","","","","","","1","14506.700000001118","","","","","","","","","","","","","","",""
"","","","","","html-keyboard-response","270","1255553","0.0-3.0-4.0-0.20","63ed008a1b535769b1262e50","C3","batch3","","null","<p class=block-text>Trial 45 out of 60</p>","null","spm_show_trial_num","","","","","","","","","","","","","","","","","","","","","","","","",""
"","","","","","image-button-response","271","1296970","0.0-3.0-4.0-1.20","63ed008a1b535769b1262e50","C3","batch3","","41415.09999999963","img/question_4_9.jpeg","1","spm_respsonse","0","1","mat_45","","","","","","0","41415.09999999963","","","","","","","","","","","","","","",""
"","","","","","html-keyboard-response","272","1298037","0.0-3.0-4.0-0.21","63ed008a1b535769b1262e50","C3","batch3","","null","<p class=block-text>Trial 46 out of 60</p>","null","spm_show_trial_num","","","","","","","","","","","","","","","","","","","","","","","","",""
"","","","","","image-button-response","273","1501038","0.0-3.0-4.0-1.21","63ed008a1b535769b1262e50","C3","batch3","","202996.79999999888","img/question_4_10.jpeg","3","spm_respsonse","0","2","mat_46","","","","","","0","202996.79999999888","","","","","","","","","","","","","","",""
"","","","","","html-keyboard-response","274","1502103","0.0-3.0-4.0-0.22","63ed008a1b535769b1262e50","C3","batch3","","null","<p class=block-text>Trial 47 out of 60</p>","null","spm_show_trial_num","","","","","","","","","","","","","","","","","","","","","","","","",""
"","","","","","image-button-response","275","1503282","0.0-3.0-4.0-1.22","63ed008a1b535769b1262e50","C3","batch3","","1176.5999999996275","img/question_4_11.jpeg","3","spm_respsonse","0","5","mat_47","","","","","","0","1176.5999999996275","","","","","","","","","","","","","","",""
"","","","","","html-keyboard-response","276","1504346","0.0-3.0-4.0-0.23","63ed008a1b535769b1262e50","C3","batch3","","null","<p class=block-text>Trial 48 out of 60</p>","null","spm_show_trial_num","","","","","","","","","","","","","","","","","","","","","","","","",""
"","","","","","image-button-response","277","1504992","0.0-3.0-4.0-1.23","63ed008a1b535769b1262e50","C3","batch3","","644","img/question_4_12.jpeg","1","spm_respsonse","0","6","mat_48","","","","","","0","644","","","","","","","","","","","","","","",""
"","","","","","html-keyboard-response","278","1506056","0.0-3.0-4.0-0.24","63ed008a1b535769b1262e50","C3","batch3","","null","<p class=block-text>Trial 49 out of 60</p>","null","spm_show_trial_num","","","","","","","","","","","","","","","","","","","","","","","","",""
"","","","","","image-button-response","279","1506714","0.0-3.0-4.0-1.24","63ed008a1b535769b1262e50","C3","batch3","","656.1999999992549","img/question_5_1.jpeg","5","spm_respsonse","0","7","mat_49","","","","","","0","656.1999999992549","","","","","","","","","","","","","","",""
"","","","","","html-keyboard-response","280","1507775","0.0-3.0-4.0-0.25","63ed008a1b535769b1262e50","C3","batch3","","null","<p class=block-text>Trial 50 out of 60</p>","null","spm_show_trial_num","","","","","","","","","","","","","","","","","","","","","","","","",""
"","","","","","image-button-response","281","1508412","0.0-3.0-4.0-1.25","63ed008a1b535769b1262e50","C3","batch3","","634.8999999985099","img/question_5_2.jpeg","5","spm_respsonse","1","6","mat_50","","","","","","1","634.8999999985099","","","","","","","","","","","","","","",""
"","","","","","html-keyboard-response","282","1509480","0.0-3.0-4.0-0.26","63ed008a1b535769b1262e50","C3","batch3","","null","<p class=block-text>Trial 51 out of 60</p>","null","spm_show_trial_num","","","","","","","","","","","","","","","","","","","","","","","","",""
"","","","","","image-button-response","283","1510672","0.0-3.0-4.0-1.26","63ed008a1b535769b1262e50","C3","batch3","","1190.5","img/question_5_3.jpeg","3","spm_respsonse","0","8","mat_51","","","","","","0","1190.5","","","","","","","","","","","","","","",""
"","","","","","html-keyboard-response","284","1511740","0.0-3.0-4.0-0.27","63ed008a1b535769b1262e50","C3","batch3","","null","<p class=block-text>Trial 52 out of 60</p>","null","spm_show_trial_num","","","","","","","","","","","","","","","","","","","","","","","","",""
"","","","","","image-button-response","285","1513148","0.0-3.0-4.0-1.27","63ed008a1b535769b1262e50","C3","batch3","","1407.2000000011176","img/question_5_4.jpeg","2","spm_respsonse","0","2","mat_52","","","","","","0","1407.2000000011176","","","","","","","","","","","","","","",""
"","","","","","html-keyboard-response","286","1514220","0.0-3.0-4.0-0.28","63ed008a1b535769b1262e50","C3","batch3","","null","<p class=block-text>Trial 53 out of 60</p>","null","spm_show_trial_num","","","","","","","","","","","","","","","","","","","","","","","","",""
"","","","","","image-button-response","287","1515059","0.0-3.0-4.0-1.28","63ed008a1b535769b1262e50","C3","batch3","","837.2000000011176","img/question_5_5.jpeg","1","spm_respsonse","0","1","mat_53","","","","","","0","837.2000000011176","","","","","","","","","","","","","","",""
"","","","","","html-keyboard-response","288","1516122","0.0-3.0-4.0-0.29","63ed008a1b535769b1262e50","C3","batch3","","null","<p class=block-text>Trial 54 out of 60</p>","null","spm_show_trial_num","","","","","","","","","","","","","","","","","","","","","","","","",""
"","","","","","image-button-response","289","1517368","0.0-3.0-4.0-1.29","63ed008a1b535769b1262e50","C3","batch3","","1243.8999999985099","img/question_5_6.jpeg","5","spm_respsonse","0","5","mat_54","","","","","","0","1243.8999999985099","","","","","","","","","","","","","","",""
"","","","","","html-keyboard-response","290","1518432","0.0-3.0-4.0-0.30","63ed008a1b535769b1262e50","C3","batch3","","null","<p class=block-text>Trial 55 out of 60</p>","null","spm_show_trial_num","","","","","","","","","","","","","","","","","","","","","","","","",""
"","","","","","image-button-response","291","1519240","0.0-3.0-4.0-1.30","63ed008a1b535769b1262e50","C3","batch3","","805.7999999988824","img/question_5_7.jpeg","5","spm_respsonse","0","1","mat_55","","","","","","0","805.7999999988824","","","","","","","","","","","","","","",""
"","","","","","html-keyboard-response","292","1520304","0.0-3.0-4.0-0.31","63ed008a1b535769b1262e50","C3","batch3","","null","<p class=block-text>Trial 56 out of 60</p>","null","spm_show_trial_num","","","","","","","","","","","","","","","","","","","","","","","","",""
"","","","","","image-button-response","293","1521150","0.0-3.0-4.0-1.31","63ed008a1b535769b1262e50","C3","batch3","","843.8999999985099","img/question_5_8.jpeg","2","spm_respsonse","0","6","mat_56","","","","","","0","843.8999999985099","","","","","","","","","","","","","","",""
"","","","","","html-keyboard-response","294","1522214","0.0-3.0-4.0-0.32","63ed008a1b535769b1262e50","C3","batch3","","null","<p class=block-text>Trial 57 out of 60</p>","null","spm_show_trial_num","","","","","","","","","","","","","","","","","","","","","","","","",""
"","","","","","image-button-response","295","1523208","0.0-3.0-4.0-1.32","63ed008a1b535769b1262e50","C3","batch3","","992.5999999996275","img/question_5_9.jpeg","6","spm_respsonse","0","3","mat_57","","","","","","0","992.5999999996275","","","","","","","","","","","","","","",""
"","","","","","html-keyboard-response","296","1524276","0.0-3.0-4.0-0.33","63ed008a1b535769b1262e50","C3","batch3","","null","<p class=block-text>Trial 58 out of 60</p>","null","spm_show_trial_num","","","","","","","","","","","","","","","","","","","","","","","","",""
"","","","","","image-button-response","297","1525337","0.0-3.0-4.0-1.33","63ed008a1b535769b1262e50","C3","batch3","","1059.0999999996275","img/question_5_10.jpeg","5","spm_respsonse","0","2","mat_58","","","","","","0","1059.0999999996275","","","","","","","","","","","","","","",""
"","","","","","html-keyboard-response","298","1526401","0.0-3.0-4.0-0.34","63ed008a1b535769b1262e50","C3","batch3","","null","<p class=block-text>Trial 59 out of 60</p>","null","spm_show_trial_num","","","","","","","","","","","","","","","","","","","","","","","","",""
"","","","","","image-button-response","299","1527057","0.0-3.0-4.0-1.34","63ed008a1b535769b1262e50","C3","batch3","","653.8000000007451","img/question_5_11.jpeg","2","spm_respsonse","0","4","mat_59","","","","","","0","653.8000000007451","","","","","","","","","","","","","","",""
"","","","","","html-keyboard-response","300","1528118","0.0-3.0-4.0-0.35","63ed008a1b535769b1262e50","C3","batch3","","null","<p class=block-text>Trial 60 out of 60</p>","null","spm_show_trial_num","","","","","","","","","","","","","","","","","","","","","","","","",""
"","","","","","image-button-response","301","1528913","0.0-3.0-4.0-1.35","63ed008a1b535769b1262e50","C3","batch3","","792.6000000014901","img/question_5_12.jpeg","1","spm_respsonse","0","5","mat_60","","","","","","0","792.6000000014901","","","","","","","","","","","","","","",""
"","","","","","html-button-response","302","1536304","0.0-3.0-5.0","63ed008a1b535769b1262e50","C3","batch3","","7131.799999998882","<p class= block-text>This concludes the Standard Progressive Matrix game. Thank you for your responses!<br> When you are ready, click the button continue</p>","0","spm_goodbye","","","","","","","","","","","","","","","","","","","","","","","","",""
"true","","","","","fullscreen","303","1896947","0.0-4.0-0.0","63ed008a1b535769b1262e50","C3","batch3","","","","","","","","","","","","","","","","","","","","","","","","","","","","","",""
"","","","","","instructions","304","1961145","0.0-4.0-1.0-0.0-0.0","63ed008a1b535769b1262e50","C3","batch3","[{""page_index"":0,""viewing_time"":6080.9000000003725},{""page_index"":1,""viewing_time"":7170},{""page_index"":2,""viewing_time"":5741.39999999851},{""page_index"":3,""viewing_time"":4366.60000000149},{""page_index"":4,""viewing_time"":2703.39999999851},{""page_index"":3,""viewing_time"":15136.5},{""page_index"":4,""viewing_time"":4692},{""page_index"":5,""viewing_time"":14030.200000001118},{""page_index"":6,""viewing_time"":4273.799999998882}]","64195.09999999963","","","tol-instructions","","","","","","","","","","","","","","","","","","","","","","","","",""
"","","","","","html-button-response","305","1962509","0.0-4.0-1.0-1.0-0.0","63ed008a1b535769b1262e50","C3","batch3","","1363","<p class=block-text> Let's answer a few questions <br>","0","tol_enter_quiz","","","","","","","","","","","","","","","","","","","","","","","","",""
"","","","","","html-button-response","306","1967025","0.0-4.0-1.0-1.0-1.0","63ed008a1b535769b1262e50","C3","batch3","","4514.700000001118","<p class = block-text>True or False: You can only move the ball on top of a peg. <br></p>","0","tol_quiz","true","","","","","","","","","","","","","","","","","","","","","","","",""
"","","","","","html-button-response","307","1968247","0.0-4.0-1.0-1.0-2.0","63ed008a1b535769b1262e50","C3","batch3","","1220.0999999996275","<p class = block-text>Correct! You can only move the ball on top of a peg.</p>","0","tol_quiz_feedback","","","","","","","","","","","","","","","","","","","","","","","","",""
"","","","","","html-button-response","308","1971901","0.0-4.0-1.0-1.0-3.0","63ed008a1b535769b1262e50","C3","batch3","","3653.2000000011176","<p class = block-text>True or False: You should try to match your board with the target board with fewest moves possible. <br></p>","0","tol_quiz","true","","","","","","","","","","","","","","","","","","","","","","","",""
"","","","","","html-button-response","309","1973053","0.0-4.0-1.0-1.0-4.0","63ed008a1b535769b1262e50","C3","batch3","","1150.7000000011176","<p class = block-text>Correct! </p>","0","tol_quiz_feedback","","","","","","","","","","","","","","","","","","","","","","","","",""
"","","","","","html-button-response","310","1974327","0.0-4.0-2.0","63ed008a1b535769b1262e50","C3","batch3","","1272.0999999996275","<p class=block-text> Now that you've understood the game, let's practice a few easier examples before we start!<br> <br>","0","","","","","","","","","","","","","","","","","","","","","","","","","",""
"","","","","","single-stim-button","311","1980850","0.0-4.0-3.0-0.0","63ed008a1b535769b1262e50","C3","batch3","","6521","","","tol_practice","","","","","","","","","","","tol_peg_1","6521","6521","0","[[1,0,0],[3,0],[0]]","1","[[1,2,0],[0,0],[3]]","practice","6521","","","","","",""
"","","","","","single-stim-button","312","1983879","0.0-4.0-3.0-1.0","63ed008a1b535769b1262e50","C3","batch3","","3029","","","tol_practice","","","","","","","","","","","tol_peg_1","3029","3029","0","[[1,2,0],[3,0],[0]]","1","[[1,2,0],[0,0],[3]]","practice","3029","","","","","",""
"","","","","","single-stim-button","313","1989309","0.0-4.0-3.1-0.1","63ed008a1b535769b1262e50","C3","batch3","","5429","","","tol_practice","","","","","","","","","","","tol_peg_2","5429","5429","0","[[1,2,0],[0,0],[0]]","2","[[1,2,0],[0,0],[3]]","practice","5429","","","","","",""
"","","","","","single-stim-button","314","1990761","0.0-4.0-3.1-1.1","63ed008a1b535769b1262e50","C3","batch3","","1451","","","tol_practice","","","","","","","","","","","tol_peg_3","1451","1451","0","[[1,2,0],[0,0],[3]]","2","[[1,2,0],[0,0],[3]]","practice","1451","","","","","",""
"","","","","","poldrack-single-stim","315","1991766","0.0-4.0-4.0","63ed008a1b535769b1262e50","C3","batch3","","-1","","","tol_feedback","true","","","","","","","","","","","1000","1000","500","","","","","","-1","none","true","","0",""
"","","","","","single-stim-button","316","1999109","0.0-4.0-5.0-0.0","63ed008a1b535769b1262e50","C3","batch3","","7341","","","tol_practice","","","","","","","","","","","tol_peg_1","7341","7341","0","[[1,0,0],[3,0],[0]]","3","[[0,0,0],[3,1],[2]]","practice","7341","","","","","",""
"","","","","","single-stim-button","317","2002313","0.0-4.0-5.0-1.0","63ed008a1b535769b1262e50","C3","batch3","","3204","","","tol_practice","","","","","","","","","","","tol_peg_3","3204","3204","0","[[1,0,0],[3,0],[2]]","3","[[0,0,0],[3,1],[2]]","practice","3204","","","","","",""
"","","","","","single-stim-button","318","2005133","0.0-4.0-5.1-0.1","63ed008a1b535769b1262e50","C3","batch3","","2820","","","tol_practice","","","","","","","","","","","tol_peg_1","2820","2820","0","[[0,0,0],[3,0],[2]]","4","[[0,0,0],[3,1],[2]]","practice","2820","","","","","",""
"","","","","","single-stim-button","319","2006553","0.0-4.0-5.1-1.1","63ed008a1b535769b1262e50","C3","batch3","","1420","","","tol_practice","","","","","","","","","","","tol_peg_2","1420","1420","0","[[0,0,0],[3,1],[2]]","4","[[0,0,0],[3,1],[2]]","practice","1420","","","","","",""
"","","","","","poldrack-single-stim","320","2007559","0.0-4.0-6.0","63ed008a1b535769b1262e50","C3","batch3","","-1","","","tol_feedback","true","","","","","","","","","","","1000","1000","500","","","","","","-1","none","true","","0",""
"","","","","","single-stim-button","321","2012757","0.0-4.0-7.0-0.0","63ed008a1b535769b1262e50","C3","batch3","","5197","","","tol_practice","","","","","","","","","","","tol_peg_2","5197","5197","0","[[1,2,0],[0,0],[0]]","5","[[1,0,0],[2,0],[3]]","practice","5197","","","","","",""
"","","","","","single-stim-button","322","2014011","0.0-4.0-7.0-1.0","63ed008a1b535769b1262e50","C3","batch3","","1253","","","tol_practice","","","","","","","","","","","tol_peg_3","1253","1253","0","[[1,2,0],[0,0],[3]]","5","[[1,0,0],[2,0],[3]]","practice","1253","","","","","",""
"","","","","","single-stim-button","323","2015695","0.0-4.0-7.1-0.1","63ed008a1b535769b1262e50","C3","batch3","","1683","","","tol_practice","","","","","","","","","","","tol_peg_1","1683","1683","0","[[1,0,0],[0,0],[3]]","6","[[1,0,0],[2,0],[3]]","practice","1683","","","","","",""
"","","","","","single-stim-button","324","2017401","0.0-4.0-7.1-1.1","63ed008a1b535769b1262e50","C3","batch3","","1706","","","tol_practice","","","","","","","","","","","tol_peg_2","1706","1706","0","[[1,0,0],[2,0],[3]]","6","[[1,0,0],[2,0],[3]]","practice","1706","","","","","",""
"","","","","","poldrack-single-stim","325","2018408","0.0-4.0-8.0","63ed008a1b535769b1262e50","C3","batch3","","-1","","","tol_feedback","true","","","","","","","","","","","1000","1000","500","","","","","","-1","none","true","","0",""
"","","","","","html-button-response","326","2021711","0.0-4.0-9.0","63ed008a1b535769b1262e50","C3","batch3","","3301.60000000149","<div class = centerbox><p class = center-block-text>Great job! You are done with practice trials<br>You are about to start official trials.<br> <br> Problem <strong>1</strong> out of 25 problems</p></div>","0","tol_instruction","","","","","","","","","","","","","","","","","","","","","","","","",""
"","","","","","single-stim-button","327","2029936","0.0-4.0-10.0-0.0","63ed008a1b535769b1262e50","C3","batch3","","7214","","","tol_tohand","","","","","","","","","","","tol_peg_1","7214","7214","0","[[1,0,0],[3,0],[0]]","1","[[1,3,0],[2,0],[0]]","0","0","","","","","","3"
"","","","","","single-stim-button","328","2034080","0.0-4.0-10.0-1.0","63ed008a1b535769b1262e50","C3","batch3","","4143","","","tol_toboard","","","","","","","","","","","tol_peg_3","4143","4143","0","[[1,0,0],[3,0],[2]]","1","[[1,3,0],[2,0],[0]]","0","0","","","","","","3"
"","","","","","single-stim-button","329","2035860","0.0-4.0-10.1-0.1","63ed008a1b535769b1262e50","C3","batch3","","1779","","","tol_tohand","","","","","","","","","","","tol_peg_2","1779","1779","0","[[1,0,0],[0,0],[2]]","2","[[1,3,0],[2,0],[0]]","0","0","","","","","","3"
"","","","","","single-stim-button","330","2037278","0.0-4.0-10.1-1.1","63ed008a1b535769b1262e50","C3","batch3","","1417","","","tol_toboard","","","","","","","","","","","tol_peg_1","1417","1417","0","[[1,3,0],[0,0],[2]]","2","[[1,3,0],[2,0],[0]]","0","0","","","","","","3"
"","","","","","single-stim-button","331","2038718","0.0-4.0-10.2-0.2","63ed008a1b535769b1262e50","C3","batch3","","1439","","","tol_tohand","","","","","","","","","","","tol_peg_3","1439","1439","0","[[1,3,0],[0,0],[0]]","3","[[1,3,0],[2,0],[0]]","0","0","","","","","","3"
"","","","","","single-stim-button","332","2040010","0.0-4.0-10.2-1.2","63ed008a1b535769b1262e50","C3","batch3","","1291","","","tol_toboard","","","","","","","","","","","tol_peg_2","1291","1291","0","[[1,3,0],[2,0],[0]]","3","[[1,3,0],[2,0],[0]]","0","0","","","","","","3"
"","","","","","poldrack-single-stim","333","2041018","0.0-4.0-11.0","63ed008a1b535769b1262e50","C3","batch3","","-1","","","tol_feedback","true","","","","","","","","","","","1000","1000","500","","","","","","-1","none","true","7214","10432",""
"","","","","","html-button-response","334","2042364","0.0-4.0-12.0","63ed008a1b535769b1262e50","C3","batch3","","1345.5","<div class = centerbox><p class = center-block-text>problem <strong>2</strong> out of 25 problems</p></div>","0","tol_trial_num","","","","","","","","","","","","","","","","","","","","","","","","",""
"","","","","","single-stim-button","335","2049737","0.0-4.0-13.0-0.0","63ed008a1b535769b1262e50","C3","batch3","","7372","","","tol_tohand","","","","","","","","","","","tol_peg_2","7372","7372","0","[[1,2,0],[0,0],[0]]","1","[[2,1,3],[0,0],[0]]","1","0","","","","","","5"
"","","","","","single-stim-button","336","2053357","0.0-4.0-13.0-1.0","63ed008a1b535769b1262e50","C3","batch3","","3619","","","tol_toboard","","","","","","","","","","","tol_peg_3","3619","3619","0","[[1,2,0],[0,0],[3]]","1","[[2,1,3],[0,0],[0]]","1","0","","","","","","5"
"","","","","","single-stim-button","337","2055439","0.0-4.0-13.1-0.1","63ed008a1b535769b1262e50","C3","batch3","","2081","","","tol_tohand","","","","","","","","","","","tol_peg_1","2081","2081","0","[[1,0,0],[0,0],[3]]","2","[[2,1,3],[0,0],[0]]","1","0","","","","","","5"
"","","","","","single-stim-button","338","2063361","0.0-4.0-13.1-1.1","63ed008a1b535769b1262e50","C3","batch3","","7921","","","tol_toboard","","","","","","","","","","","tol_peg_2","7921","7921","0","[[1,0,0],[2,0],[3]]","2","[[2,1,3],[0,0],[0]]","1","0","","","","","","5"
"","","","","","single-stim-button","339","2075871","0.0-4.0-13.2-0.2","63ed008a1b535769b1262e50","C3","batch3","","12509","","","tol_tohand","","","","","","","","","","","tol_peg_1","12509","12509","0","[[0,0,0],[2,0],[3]]","3","[[2,1,3],[0,0],[0]]","1","0","","","","","","5"
"","","","","","single-stim-button","340","2077331","0.0-4.0-13.2-1.2","63ed008a1b535769b1262e50","C3","batch3","","1460","","","tol_toboard","","","","","","","","","","","tol_peg_2","1460","1460","0","[[0,0,0],[2,1],[3]]","3","[[2,1,3],[0,0],[0]]","1","0","","","","","","5"
"","","","","","single-stim-button","341","2078273","0.0-4.0-13.3-0.3","63ed008a1b535769b1262e50","C3","batch3","","941","","","tol_tohand","","","","","","","","","","","tol_peg_2","941","941","0","[[0,0,0],[2,0],[3]]","4","[[2,1,3],[0,0],[0]]","1","0","","","","","","5"
"","","","","","single-stim-button","342","2083497","0.0-4.0-13.3-1.3","63ed008a1b535769b1262e50","C3","batch3","","5224","","","tol_toboard","","","","","","","","","","","tol_peg_2","5224","5224","0","[[0,0,0],[2,1],[3]]","4","[[2,1,3],[0,0],[0]]","1","0","","","","","","5"
"","","","","","single-stim-button","343","2084477","0.0-4.0-13.4-0.4","63ed008a1b535769b1262e50","C3","batch3","","979","","","tol_tohand","","","","","","","","","","","tol_peg_2","979","979","0","[[0,0,0],[2,0],[3]]","5","[[2,1,3],[0,0],[0]]","1","0","","","","","","5"
"","","","","","single-stim-button","344","2085703","0.0-4.0-13.4-1.4","63ed008a1b535769b1262e50","C3","batch3","","1226","","","tol_toboard","","","","","","","","","","","tol_peg_1","1226","1226","0","[[1,0,0],[2,0],[3]]","5","[[2,1,3],[0,0],[0]]","1","0","","","","","","5"
"","","","","","single-stim-button","345","2089621","0.0-4.0-13.5-0.5","63ed008a1b535769b1262e50","C3","batch3","","3918","","","tol_tohand","","","","","","","","","","","tol_peg_2","3918","3918","0","[[1,0,0],[0,0],[3]]","6","[[2,1,3],[0,0],[0]]","1","0","","","","","","5"
"","","","","","single-stim-button","346","2096759","0.0-4.0-13.5-1.5","63ed008a1b535769b1262e50","C3","batch3","","7137","","","tol_toboard","","","","","","","","","","","tol_peg_2","7137","7137","0","[[1,0,0],[2,0],[3]]","6","[[2,1,3],[0,0],[0]]","1","0","","","","","","5"
