success,timeout,failed_images,failed_audio,failed_video,trial_type,trial_index,time_elapsed,internal_node_id,subject_id,study_id,session_id,view_history,rt,task,stimulus,response,correct,mouse_click,stim_duration,block_duration,timing_post_trial,current_position,tol_num_moves_made,tol_target,tol_problem_id,tol_rt,key_press,possible_responses,tol_correct,preplanning,tol_rt_per_trial,tol_min_moves,item,answer,spm_correct,spm_rt,fiar_detect_rt,fiar_detect_correct,total_correct_fiar_detect,post_trial_gap,choices
TRUE,FALSE,[],[],[],preload,0,34856,0.0-0.0,63f52af01929360880074598,D2,batch4,,,,,,,,,,,,,,,,,,,,,,,,,,,,,,
TRUE,,,,,fullscreen,1,43585,0.0-1.0-0.0,63f52af01929360880074598,D2,batch4,,,,,,,,,,,,,,,,,,,,,,,,,,,,,,
TRUE,,,,,fullscreen,2,46382,0.0-2.0-0.0,63f52af01929360880074598,D2,batch4,,,,,,,,,,,,,,,,,,,,,,,,,,,,,,
,,,,,instructions,3,95615,0.0-2.0-1.0-0.0-0.0,63f52af01929360880074598,D2,batch4,"[{""page_index"":0,""viewing_time"":6568.699999928474},{""page_index"":1,""viewing_time"":5940},{""page_index"":2,""viewing_time"":6807.200000047684},{""page_index"":3,""viewing_time"":9972.299999952316},{""page_index"":4,""viewing_time"":4236.200000047684},{""page_index"":5,""viewing_time"":13155.600000023842},{""page_index"":6,""viewing_time"":2547.2999999523163}]",49228.09999990460,tol-instructions,,,,,,,,,,,,,,,,,,,,,,,,,,,
,,,,,html-button-response,4,96777,0.0-2.0-1.0-1.0-0.0,63f52af01929360880074598,D2,batch4,,1159.1999999284700,tol_enter_quiz,<p class=block-text> Let's answer a few questions <br>,0,,,,,,,,,,,,,,,,,,,,,,,,,
,,,,,html-button-response,5,100625,0.0-2.0-1.0-1.0-1.0,63f52af01929360880074598,D2,batch4,,3842.899999976160,tol_quiz,<p class = block-text>True or False: You can only move the ball on top of a peg. <br></p>,0,TRUE,,,,,,,,,,,,,,,,,,,,,,,,
,,,,,html-button-response,6,101737,0.0-2.0-1.0-1.0-2.0,63f52af01929360880074598,D2,batch4,,1108.8999999761600,tol_quiz_feedback,<p class = block-text>Correct! You can only move the ball on top of a peg.</p>,0,,,,,,,,,,,,,,,,,,,,,,,,,
,,,,,html-button-response,7,103511,0.0-2.0-1.0-1.0-3.0,63f52af01929360880074598,D2,batch4,,1771.7000000476800,tol_quiz,<p class = block-text>True or False: You should try to match your board with the target board with fewest moves possible. <br></p>,0,TRUE,,,,,,,,,,,,,,,,,,,,,,,,
,,,,,html-button-response,8,104349,0.0-2.0-1.0-1.0-4.0,63f52af01929360880074598,D2,batch4,,835.7000000476840,tol_quiz_feedback,<p class = block-text>Correct! </p>,0,,,,,,,,,,,,,,,,,,,,,,,,,
,,,,,html-button-response,9,105597,0.0-2.0-2.0,63f52af01929360880074598,D2,batch4,,1245.1000000238400,,"<p class=block-text> Now that you've understood the game, let's practice a few easier examples before we start!<br> <br>",0,,,,,,,,,,,,,,,,,,,,,,,,,
,,,,,single-stim-button,10,107858,0.0-2.0-3.0-0.0,63f52af01929360880074598,D2,batch4,,2258,tol_practice,,,,tol_peg_2,2258,2258,0,"[[1,2,0],[0,0],[0]]",1,"[[1,2,0],[0,0],[3]]",practice,2258,,,,,,,,,,,,,,,
,,,,,single-stim-button,11,109824,0.0-2.0-3.0-1.0,63f52af01929360880074598,D2,batch4,,1963,tol_practice,,,,tol_peg_3,1963,1963,0,"[[1,2,0],[0,0],[3]]",1,"[[1,2,0],[0,0],[3]]",practice,1963,,,,,,,,,,,,,,,
,,,,,poldrack-single-stim,12,110838,0.0-2.0-4.0,63f52af01929360880074598,D2,batch4,,-1,tol_feedback,,,TRUE,,1000,1000,500,,,,,,-1,none,TRUE,,0,,,,,,,,,,
,,,,,single-stim-button,13,115484,0.0-2.0-5.0-0.0,63f52af01929360880074598,D2,batch4,,4644,tol_practice,,,,tol_peg_1,4644,4644,0,"[[1,0,0],[3,0],[0]]",2,"[[0,0,0],[3,1],[2]]",practice,4644,,,,,,,,,,,,,,,
,,,,,single-stim-button,14,116800,0.0-2.0-5.0-1.0,63f52af01929360880074598,D2,batch4,,1315,tol_practice,,,,tol_peg_3,1315,1315,0,"[[1,0,0],[3,0],[2]]",2,"[[0,0,0],[3,1],[2]]",practice,1315,,,,,,,,,,,,,,,
,,,,,single-stim-button,15,117582,0.0-2.0-5.1-0.1,63f52af01929360880074598,D2,batch4,,780,tol_practice,,,,tol_peg_1,780,780,0,"[[0,0,0],[3,0],[2]]",3,"[[0,0,0],[3,1],[2]]",practice,780,,,,,,,,,,,,,,,
,,,,,single-stim-button,16,118574,0.0-2.0-5.1-1.1,63f52af01929360880074598,D2,batch4,,990,tol_practice,,,,tol_peg_2,990,990,0,"[[0,0,0],[3,1],[2]]",3,"[[0,0,0],[3,1],[2]]",practice,990,,,,,,,,,,,,,,,
,,,,,poldrack-single-stim,17,119577,0.0-2.0-6.0,63f52af01929360880074598,D2,batch4,,-1,tol_feedback,,,TRUE,,1000,1000,500,,,,,,-1,none,TRUE,,0,,,,,,,,,,
,,,,,single-stim-button,18,123597,0.0-2.0-7.0-0.0,63f52af01929360880074598,D2,batch4,,4019,tol_practice,,,,tol_peg_2,4019,4019,0,"[[1,2,0],[0,0],[0]]",4,"[[1,0,0],[2,0],[3]]",practice,4019,,,,,,,,,,,,,,,
,,,,,single-stim-button,19,124479,0.0-2.0-7.0-1.0,63f52af01929360880074598,D2,batch4,,880,tol_practice,,,,tol_peg_3,880,880,0,"[[1,2,0],[0,0],[3]]",4,"[[1,0,0],[2,0],[3]]",practice,880,,,,,,,,,,,,,,,
,,,,,single-stim-button,20,125542,0.0-2.0-7.1-0.1,63f52af01929360880074598,D2,batch4,,1061,tol_practice,,,,tol_peg_1,1061,1061,0,"[[1,0,0],[0,0],[3]]",5,"[[1,0,0],[2,0],[3]]",practice,1061,,,,,,,,,,,,,,,
,,,,,single-stim-button,21,126324,0.0-2.0-7.1-1.1,63f52af01929360880074598,D2,batch4,,780,tol_practice,,,,tol_peg_2,780,780,0,"[[1,0,0],[2,0],[3]]",5,"[[1,0,0],[2,0],[3]]",practice,780,,,,,,,,,,,,,,,
,,,,,poldrack-single-stim,22,127337,0.0-2.0-8.0,63f52af01929360880074598,D2,batch4,,-1,tol_feedback,,,TRUE,,1000,1000,500,,,,,,-1,none,TRUE,,0,,,,,,,,,,
,,,,,html-button-response,23,129753,0.0-2.0-9.0,63f52af01929360880074598,D2,batch4,,2414.100000023840,tol_instruction,<div class = centerbox><p class = center-block-text>Great job! You are done with practice trials<br>You are about to start official trials.<br> <br> Problem <strong>1</strong> out of 25 problems</p></div>,0,,,,,,,,,,,,,,,,,,,,,,,,,
,,,,,single-stim-button,24,134182,0.0-2.0-10.0-0.0,63f52af01929360880074598,D2,batch4,,3418,tol_tohand,,,,tol_peg_1,3418,3418,0,"[[1,0,0],[3,0],[0]]",1,"[[1,3,0],[2,0],[0]]",0,0,,,,,,3,,,,,,,,,
,,,,,single-stim-button,25,135041,0.0-2.0-10.0-1.0,63f52af01929360880074598,D2,batch4,,858,tol_toboard,,,,tol_peg_3,858,858,0,"[[1,0,0],[3,0],[2]]",1,"[[1,3,0],[2,0],[0]]",0,0,,,,,,3,,,,,,,,,
,,,,,single-stim-button,26,135817,0.0-2.0-10.1-0.1,63f52af01929360880074598,D2,batch4,,774,tol_tohand,,,,tol_peg_2,774,774,0,"[[1,0,0],[0,0],[2]]",2,"[[1,3,0],[2,0],[0]]",0,0,,,,,,3,,,,,,,,,
,,,,,single-stim-button,27,136751,0.0-2.0-10.1-1.1,63f52af01929360880074598,D2,batch4,,933,tol_toboard,,,,tol_peg_1,933,933,0,"[[1,3,0],[0,0],[2]]",2,"[[1,3,0],[2,0],[0]]",0,0,,,,,,3,,,,,,,,,
,,,,,single-stim-button,28,137448,0.0-2.0-10.2-0.2,63f52af01929360880074598,D2,batch4,,697,tol_tohand,,,,tol_peg_3,697,697,0,"[[1,3,0],[0,0],[0]]",3,"[[1,3,0],[2,0],[0]]",0,0,,,,,,3,,,,,,,,,
,,,,,single-stim-button,29,138137,0.0-2.0-10.2-1.2,63f52af01929360880074598,D2,batch4,,687,tol_toboard,,,,tol_peg_2,687,687,0,"[[1,3,0],[2,0],[0]]",3,"[[1,3,0],[2,0],[0]]",0,0,,,,,,3,,,,,,,,,
,,,,,poldrack-single-stim,30,139153,0.0-2.0-11.0,63f52af01929360880074598,D2,batch4,,-1,tol_feedback,,,TRUE,,1000,1000,500,,,,,,-1,none,TRUE,3418,4889,,,,,,,,,,
,,,,,html-button-response,31,140950,0.0-2.0-12.0,63f52af01929360880074598,D2,batch4,,1794,tol_trial_num,<div class = centerbox><p class = center-block-text>problem <strong>2</strong> out of 25 problems</p></div>,0,,,,,,,,,,,,,,,,,,,,,,,,,
,,,,,single-stim-button,32,147175,0.0-2.0-13.0-0.0,63f52af01929360880074598,D2,batch4,,6223,tol_tohand,,,,tol_peg_1,6223,6223,0,"[[1,0,0],[3,0],[0]]",1,"[[2,1,3],[0,0],[0]]",1,0,,,,,,5,,,,,,,,,
,,,,,single-stim-button,33,150519,0.0-2.0-13.0-1.0,63f52af01929360880074598,D2,batch4,,3343,tol_toboard,,,,tol_peg_2,3343,3343,0,"[[1,0,0],[3,2],[0]]",1,"[[2,1,3],[0,0],[0]]",1,0,,,,,,5,,,,,,,,,
,,,,,single-stim-button,34,151363,0.0-2.0-13.1-0.1,63f52af01929360880074598,D2,batch4,,843,tol_tohand,,,,tol_peg_1,843,843,0,"[[0,0,0],[3,2],[0]]",2,"[[2,1,3],[0,0],[0]]",1,0,,,,,,5,,,,,,,,,
,,,,,single-stim-button,35,152191,0.0-2.0-13.1-1.1,63f52af01929360880074598,D2,batch4,,827,tol_toboard,,,,tol_peg_3,827,827,0,"[[0,0,0],[3,2],[1]]",2,"[[2,1,3],[0,0],[0]]",1,0,,,,,,5,,,,,,,,,
,,,,,single-stim-button,36,152934,0.0-2.0-13.2-0.2,63f52af01929360880074598,D2,batch4,,740,tol_tohand,,,,tol_peg_2,740,740,0,"[[0,0,0],[3,0],[1]]",3,"[[2,1,3],[0,0],[0]]",1,0,,,,,,5,,,,,,,,,
,,,,,single-stim-button,37,153801,0.0-2.0-13.2-1.2,63f52af01929360880074598,D2,batch4,,865,tol_toboard,,,,tol_peg_1,865,865,0,"[[2,0,0],[3,0],[1]]",3,"[[2,1,3],[0,0],[0]]",1,0,,,,,,5,,,,,,,,,
,,,,,single-stim-button,38,154699,0.0-2.0-13.3-0.3,63f52af01929360880074598,D2,batch4,,896,tol_tohand,,,,tol_peg_3,896,896,0,"[[2,0,0],[3,0],[0]]",4,"[[2,1,3],[0,0],[0]]",1,0,,,,,,5,,,,,,,,,
,,,,,single-stim-button,39,155461,0.0-2.0-13.3-1.3,63f52af01929360880074598,D2,batch4,,761,tol_toboard,,,,tol_peg_1,761,761,0,"[[2,1,0],[3,0],[0]]",4,"[[2,1,3],[0,0],[0]]",1,0,,,,,,5,,,,,,,,,
,,,,,single-stim-button,40,156101,0.0-2.0-13.4-0.4,63f52af01929360880074598,D2,batch4,,640,tol_tohand,,,,tol_peg_2,640,640,0,"[[2,1,0],[0,0],[0]]",5,"[[2,1,3],[0,0],[0]]",1,0,,,,,,5,,,,,,,,,
,,,,,single-stim-button,41,156876,0.0-2.0-13.4-1.4,63f52af01929360880074598,D2,batch4,,773,tol_toboard,,,,tol_peg_1,773,773,0,"[[2,1,3],[0,0],[0]]",5,"[[2,1,3],[0,0],[0]]",1,0,,,,,,5,,,,,,,,,
,,,,,poldrack-single-stim,42,157879,0.0-2.0-14.0,63f52af01929360880074598,D2,batch4,,-1,tol_feedback,,,TRUE,,1000,1000,500,,,,,,-1,none,TRUE,6223,9342,,,,,,,,,,
,,,,,html-button-response,43,159113,0.0-2.0-15.0,63f52af01929360880074598,D2,batch4,,1231.6999999284700,tol_trial_num,<div class = centerbox><p class = center-block-text>problem <strong>3</strong> out of 25 problems</p></div>,0,,,,,,,,,,,,,,,,,,,,,,,,,
,,,,,single-stim-button,44,165215,0.0-2.0-16.0-0.0,63f52af01929360880074598,D2,batch4,,6100,tol_tohand,,,,tol_peg_1,6100,6100,0,"[[2,0,0],[0,0],[1]]",1,"[[1,2,0],[3,0],[0]]",2,0,,,,,,4,,,,,,,,,
,,,,,single-stim-button,45,166369,0.0-2.0-16.0-1.0,63f52af01929360880074598,D2,batch4,,1152,tol_toboard,,,,tol_peg_2,1152,1152,0,"[[2,0,0],[3,0],[1]]",1,"[[1,2,0],[3,0],[0]]",2,0,,,,,,4,,,,,,,,,
,,,,,single-stim-button,46,167323,0.0-2.0-16.1-0.1,63f52af01929360880074598,D2,batch4,,953,tol_tohand,,,,tol_peg_1,953,953,0,"[[0,0,0],[3,0],[1]]",2,"[[1,2,0],[3,0],[0]]",2,0,,,,,,4,,,,,,,,,
,,,,,single-stim-button,47,168297,0.0-2.0-16.1-1.1,63f52af01929360880074598,D2,batch4,,973,tol_toboard,,,,tol_peg_2,973,973,0,"[[0,0,0],[3,2],[1]]",2,"[[1,2,0],[3,0],[0]]",2,0,,,,,,4,,,,,,,,,
,,,,,single-stim-button,48,169443,0.0-2.0-16.2-0.2,63f52af01929360880074598,D2,batch4,,1144,tol_tohand,,,,tol_peg_3,1144,1144,0,"[[0,0,0],[3,2],[0]]",3,"[[1,2,0],[3,0],[0]]",2,0,,,,,,4,,,,,,,,,
,,,,,single-stim-button,49,170205,0.0-2.0-16.2-1.2,63f52af01929360880074598,D2,batch4,,759,tol_toboard,,,,tol_peg_1,759,759,0,"[[1,0,0],[3,2],[0]]",3,"[[1,2,0],[3,0],[0]]",2,0,,,,,,4,,,,,,,,,
,,,,,single-stim-button,50,170891,0.0-2.0-16.3-0.3,63f52af01929360880074598,D2,batch4,,685,tol_tohand,,,,tol_peg_2,685,685,0,"[[1,0,0],[3,0],[0]]",4,"[[1,2,0],[3,0],[0]]",2,0,,,,,,4,,,,,,,,,
,,,,,single-stim-button,51,171524,0.0-2.0-16.3-1.3,63f52af01929360880074598,D2,batch4,,632,tol_toboard,,,,tol_peg_1,632,632,0,"[[1,2,0],[3,0],[0]]",4,"[[1,2,0],[3,0],[0]]",2,0,,,,,,4,,,,,,,,,
,,,,,poldrack-single-stim,52,172527,0.0-2.0-17.0,63f52af01929360880074598,D2,batch4,,-1,tol_feedback,,,TRUE,,1000,1000,500,,,,,,-1,none,TRUE,6100,8882,,,,,,,,,,
,,,,,html-button-response,53,173640,0.0-2.0-18.0,63f52af01929360880074598,D2,batch4,,1110.8999999761600,tol_trial_num,<div class = centerbox><p class = center-block-text>problem <strong>4</strong> out of 25 problems</p></div>,0,,,,,,,,,,,,,,,,,,,,,,,,,
,,,,,single-stim-button,54,180757,0.0-2.0-19.0-0.0,63f52af01929360880074598,D2,batch4,,7115,tol_tohand,,,,tol_peg_2,7115,7115,0,"[[3,0,0],[2,0],[0]]",1,"[[3,0,0],[1,0],[2]]",3,0,,,,,,3,,,,,,,,,
,,,,,single-stim-button,55,182661,0.0-2.0-19.0-1.0,63f52af01929360880074598,D2,batch4,,1902,tol_toboard,,,,tol_peg_1,1902,1902,0,"[[3,1,0],[2,0],[0]]",1,"[[3,0,0],[1,0],[2]]",3,0,,,,,,3,,,,,,,,,
,,,,,single-stim-button,56,183529,0.0-2.0-19.1-0.1,63f52af01929360880074598,D2,batch4,,866,tol_tohand,,,,tol_peg_2,866,866,0,"[[3,1,0],[0,0],[0]]",2,"[[3,0,0],[1,0],[2]]",3,0,,,,,,3,,,,,,,,,
,,,,,single-stim-button,57,184296,0.0-2.0-19.1-1.1,63f52af01929360880074598,D2,batch4,,765,tol_toboard,,,,tol_peg_3,765,765,0,"[[3,1,0],[0,0],[2]]",2,"[[3,0,0],[1,0],[2]]",3,0,,,,,,3,,,,,,,,,
,,,,,single-stim-button,58,185061,0.0-2.0-19.2-0.2,63f52af01929360880074598,D2,batch4,,765,tol_tohand,,,,tol_peg_1,765,765,0,"[[3,0,0],[0,0],[2]]",3,"[[3,0,0],[1,0],[2]]",3,0,,,,,,3,,,,,,,,,
,,,,,single-stim-button,59,185680,0.0-2.0-19.2-1.2,63f52af01929360880074598,D2,batch4,,618,tol_toboard,,,,tol_peg_2,618,618,0,"[[3,0,0],[1,0],[2]]",3,"[[3,0,0],[1,0],[2]]",3,0,,,,,,3,,,,,,,,,
,,,,,poldrack-single-stim,60,186685,0.0-2.0-20.0,63f52af01929360880074598,D2,batch4,,-1,tol_feedback,,,TRUE,,1000,1000,500,,,,,,-1,none,TRUE,7115,8746,,,,,,,,,,
,,,,,html-button-response,61,187888,0.0-2.0-21.0,63f52af01929360880074598,D2,batch4,,1200.7999999523200,tol_trial_num,<div class = centerbox><p class = center-block-text>problem <strong>5</strong> out of 25 problems</p></div>,0,,,,,,,,,,,,,,,,,,,,,,,,,
,,,,,single-stim-button,62,205343,0.0-2.0-22.0-0.0,63f52af01929360880074598,D2,batch4,,17453,tol_tohand,,,,tol_peg_3,17453,17453,0,"[[1,0,0],[2,0],[0]]",1,"[[0,0,0],[1,2],[3]]",4,0,,,,,,7,,,,,,,,,
,,,,,single-stim-button,63,213351,0.0-2.0-22.0-1.0,63f52af01929360880074598,D2,batch4,,8007,tol_toboard,,,,tol_peg_3,8007,8007,0,"[[1,0,0],[2,0],[3]]",1,"[[0,0,0],[1,2],[3]]",4,0,,,,,,7,,,,,,,,,
,,,,,single-stim-button,64,227383,0.0-2.0-22.1-0.1,63f52af01929360880074598,D2,batch4,,14030,tol_tohand,,,,tol_peg_3,14030,14030,0,"[[1,0,0],[2,0],[0]]",2,"[[0,0,0],[1,2],[3]]",4,0,,,,,,7,,,,,,,,,
,,,,,single-stim-button,65,229699,0.0-2.0-22.1-1.1,63f52af01929360880074598,D2,batch4,,2314,tol_toboard,,,,tol_peg_1,2314,2314,0,"[[1,3,0],[2,0],[0]]",2,"[[0,0,0],[1,2],[3]]",4,0,,,,,,7,,,,,,,,,
,,,,,single-stim-button,66,230861,0.0-2.0-22.2-0.2,63f52af01929360880074598,D2,batch4,,1161,tol_tohand,,,,tol_peg_2,1161,1161,0,"[[1,3,0],[0,0],[0]]",3,"[[0,0,0],[1,2],[3]]",4,0,,,,,,7,,,,,,,,,
,,,,,single-stim-button,67,231635,0.0-2.0-22.2-1.2,63f52af01929360880074598,D2,batch4,,773,tol_toboard,,,,tol_peg_3,773,773,0,"[[1,3,0],[0,0],[2]]",3,"[[0,0,0],[1,2],[3]]",4,0,,,,,,7,,,,,,,,,
,,,,,single-stim-button,68,236057,0.0-2.0-22.3-0.3,63f52af01929360880074598,D2,batch4,,4421,tol_tohand,,,,tol_peg_1,4421,4421,0,"[[1,0,0],[0,0],[2]]",4,"[[0,0,0],[1,2],[3]]",4,0,,,,,,7,,,,,,,,,
,,,,,single-stim-button,69,237613,0.0-2.0-22.3-1.3,63f52af01929360880074598,D2,batch4,,1555,tol_toboard,,,,tol_peg_2,1555,1555,0,"[[1,0,0],[3,0],[2]]",4,"[[0,0,0],[1,2],[3]]",4,0,,,,,,7,,,,,,,,,
,,,,,single-stim-button,70,239605,0.0-2.0-22.4-0.4,63f52af01929360880074598,D2,batch4,,1991,tol_tohand,,,,tol_peg_3,1991,1991,0,"[[1,0,0],[3,0],[0]]",5,"[[0,0,0],[1,2],[3]]",4,0,,,,,,7,,,,,,,,,
,,,,,single-stim-button,71,240595,0.0-2.0-22.4-1.4,63f52af01929360880074598,D2,batch4,,990,tol_toboard,,,,tol_peg_1,990,990,0,"[[1,2,0],[3,0],[0]]",5,"[[0,0,0],[1,2],[3]]",4,0,,,,,,7,,,,,,,,,
,,,,,single-stim-button,72,241969,0.0-2.0-22.5-0.5,63f52af01929360880074598,D2,batch4,,1372,tol_tohand,,,,tol_peg_2,1372,1372,0,"[[1,2,0],[0,0],[0]]",6,"[[0,0,0],[1,2],[3]]",4,0,,,,,,7,,,,,,,,,
,,,,,single-stim-button,73,243159,0.0-2.0-22.5-1.5,63f52af01929360880074598,D2,batch4,,1189,tol_toboard,,,,tol_peg_3,1189,1189,0,"[[1,2,0],[0,0],[3]]",6,"[[0,0,0],[1,2],[3]]",4,0,,,,,,7,,,,,,,,,
,,,,,single-stim-button,74,245861,0.0-2.0-22.6-0.6,63f52af01929360880074598,D2,batch4,,2700,tol_tohand,,,,tol_peg_1,2700,2700,0,"[[1,0,0],[0,0],[3]]",7,"[[0,0,0],[1,2],[3]]",4,0,,,,,,7,,,,,,,,,
,,,,,single-stim-button,75,247077,0.0-2.0-22.6-1.6,63f52af01929360880074598,D2,batch4,,1215,tol_toboard,,,,tol_peg_2,1215,1215,0,"[[1,0,0],[2,0],[3]]",7,"[[0,0,0],[1,2],[3]]",4,0,,,,,,7,,,,,,,,,
,,,,,single-stim-button,76,251189,0.0-2.0-22.7-0.7,63f52af01929360880074598,D2,batch4,,4111,tol_tohand,,,,tol_peg_3,4111,4111,0,"[[1,0,0],[2,0],[0]]",8,"[[0,0,0],[1,2],[3]]",4,0,,,,,,7,,,,,,,,,
,,,,,single-stim-button,77,252065,0.0-2.0-22.7-1.7,63f52af01929360880074598,D2,batch4,,875,tol_toboard,,,,tol_peg_2,875,875,0,"[[1,0,0],[2,3],[0]]",8,"[[0,0,0],[1,2],[3]]",4,0,,,,,,7,,,,,,,,,
,,,,,single-stim-button,78,252770,0.0-2.0-22.8-0.8,63f52af01929360880074598,D2,batch4,,703,tol_tohand,,,,tol_peg_1,703,703,0,"[[0,0,0],[2,3],[0]]",9,"[[0,0,0],[1,2],[3]]",4,0,,,,,,7,,,,,,,,,
,,,,,single-stim-button,79,253520,0.0-2.0-22.8-1.8,63f52af01929360880074598,D2,batch4,,750,tol_toboard,,,,tol_peg_3,750,750,0,"[[0,0,0],[2,3],[1]]",9,"[[0,0,0],[1,2],[3]]",4,0,,,,,,7,,,,,,,,,
,,,,,single-stim-button,80,254921,0.0-2.0-22.9-0.9,63f52af01929360880074598,D2,batch4,,1399,tol_tohand,,,,tol_peg_2,1399,1399,0,"[[0,0,0],[2,0],[1]]",10,"[[0,0,0],[1,2],[3]]",4,0,,,,,,7,,,,,,,,,
,,,,,single-stim-button,81,257167,0.0-2.0-22.9-1.9,63f52af01929360880074598,D2,batch4,,2245,tol_toboard,,,,tol_peg_1,2245,2245,0,"[[3,0,0],[2,0],[1]]",10,"[[0,0,0],[1,2],[3]]",4,0,,,,,,7,,,,,,,,,
,,,,,single-stim-button,82,257911,0.0-2.0-22.10-0.10,63f52af01929360880074598,D2,batch4,,743,tol_tohand,,,,tol_peg_3,743,743,0,"[[3,0,0],[2,0],[0]]",11,"[[0,0,0],[1,2],[3]]",4,0,,,,,,7,,,,,,,,,
,,,,,single-stim-button,83,258593,0.0-2.0-22.10-1.10,63f52af01929360880074598,D2,batch4,,681,tol_toboard,,,,tol_peg_2,681,681,0,"[[3,0,0],[2,1],[0]]",11,"[[0,0,0],[1,2],[3]]",4,0,,,,,,7,,,,,,,,,
,,,,,single-stim-button,84,259631,0.0-2.0-22.11-0.11,63f52af01929360880074598,D2,batch4,,1034,tol_tohand,,,,tol_peg_1,1034,1034,0,"[[0,0,0],[2,1],[0]]",12,"[[0,0,0],[1,2],[3]]",4,0,,,,,,7,,,,,,,,,
,,,,,single-stim-button,85,260435,0.0-2.0-22.11-1.11,63f52af01929360880074598,D2,batch4,,803,tol_toboard,,,,tol_peg_3,803,803,0,"[[0,0,0],[2,1],[3]]",12,"[[0,0,0],[1,2],[3]]",4,0,,,,,,7,,,,,,,,,
,,,,,single-stim-button,86,270296,0.0-2.0-22.12-0.12,63f52af01929360880074598,D2,batch4,,9859,tol_tohand,,,,tol_peg_2,9859,9859,0,"[[0,0,0],[2,0],[3]]",13,"[[0,0,0],[1,2],[3]]",4,0,,,,,,7,,,,,,,,,
,,,,,single-stim-button,87,274151,0.0-2.0-22.12-1.12,63f52af01929360880074598,D2,batch4,,3853,tol_toboard,,,,tol_peg_1,3853,3853,0,"[[1,0,0],[2,0],[3]]",13,"[[0,0,0],[1,2],[3]]",4,0,,,,,,7,,,,,,,,,
,,,,,single-stim-button,88,274949,0.0-2.0-22.13-0.13,63f52af01929360880074598,D2,batch4,,796,tol_tohand,,,,tol_peg_3,796,796,0,"[[1,0,0],[2,0],[0]]",14,"[[0,0,0],[1,2],[3]]",4,0,,,,,,7,,,,,,,,,
,,,,,single-stim-button,89,275717,0.0-2.0-22.13-1.13,63f52af01929360880074598,D2,batch4,,766,tol_toboard,,,,tol_peg_2,766,766,0,"[[1,0,0],[2,3],[0]]",14,"[[0,0,0],[1,2],[3]]",4,0,,,,,,7,,,,,,,,,
,,,,,single-stim-button,90,276513,0.0-2.0-22.14-0.14,63f52af01929360880074598,D2,batch4,,795,tol_tohand,,,,tol_peg_1,795,795,0,"[[0,0,0],[2,3],[0]]",15,"[[0,0,0],[1,2],[3]]",4,0,,,,,,7,,,,,,,,,
,,,,,single-stim-button,91,277473,0.0-2.0-22.14-1.14,63f52af01929360880074598,D2,batch4,,960,tol_toboard,,,,tol_peg_3,960,960,0,"[[0,0,0],[2,3],[1]]",15,"[[0,0,0],[1,2],[3]]",4,0,,,,,,7,,,,,,,,,
,,,,,single-stim-button,92,282002,0.0-2.0-22.15-0.15,63f52af01929360880074598,D2,batch4,,4528,tol_tohand,,,,tol_peg_2,4528,4528,0,"[[0,0,0],[2,0],[1]]",16,"[[0,0,0],[1,2],[3]]",4,0,,,,,,7,,,,,,,,,
,,,,,single-stim-button,93,282933,0.0-2.0-22.15-1.15,63f52af01929360880074598,D2,batch4,,929,tol_toboard,,,,tol_peg_1,929,929,0,"[[3,0,0],[2,0],[1]]",16,"[[0,0,0],[1,2],[3]]",4,0,,,,,,7,,,,,,,,,
,,,,,single-stim-button,94,283459,0.0-2.0-22.16-0.16,63f52af01929360880074598,D2,batch4,,524,tol_tohand,,,,tol_peg_2,524,524,0,"[[3,0,0],[0,0],[1]]",17,"[[0,0,0],[1,2],[3]]",4,0,,,,,,7,,,,,,,,,
,,,,,single-stim-button,95,284171,0.0-2.0-22.16-1.16,63f52af01929360880074598,D2,batch4,,711,tol_toboard,,,,tol_peg_1,711,711,0,"[[3,2,0],[0,0],[1]]",17,"[[0,0,0],[1,2],[3]]",4,0,,,,,,7,,,,,,,,,
,,,,,single-stim-button,96,284853,0.0-2.0-22.17-0.17,63f52af01929360880074598,D2,batch4,,681,tol_tohand,,,,tol_peg_3,681,681,0,"[[3,2,0],[0,0],[0]]",18,"[[0,0,0],[1,2],[3]]",4,0,,,,,,7,,,,,,,,,
,,,,,single-stim-button,97,285535,0.0-2.0-22.17-1.17,63f52af01929360880074598,D2,batch4,,681,tol_toboard,,,,tol_peg_2,681,681,0,"[[3,2,0],[1,0],[0]]",18,"[[0,0,0],[1,2],[3]]",4,0,,,,,,7,,,,,,,,,
,,,,,single-stim-button,98,286347,0.0-2.0-22.18-0.18,63f52af01929360880074598,D2,batch4,,810,tol_tohand,,,,tol_peg_1,810,810,0,"[[3,0,0],[1,0],[0]]",19,"[[0,0,0],[1,2],[3]]",4,0,,,,,,7,,,,,,,,,
,,,,,single-stim-button,99,287083,0.0-2.0-22.18-1.18,63f52af01929360880074598,D2,batch4,,734,tol_toboard,,,,tol_peg_2,734,734,0,"[[3,0,0],[1,2],[0]]",19,"[[0,0,0],[1,2],[3]]",4,0,,,,,,7,,,,,,,,,
,,,,,single-stim-button,100,287843,0.0-2.0-22.19-0.19,63f52af01929360880074598,D2,batch4,,758,tol_tohand,,,,tol_peg_1,758,758,0,"[[0,0,0],[1,2],[0]]",20,"[[0,0,0],[1,2],[3]]",4,0,,,,,,7,,,,,,,,,
,,,,,single-stim-button,101,288558,0.0-2.0-22.19-1.19,63f52af01929360880074598,D2,batch4,,714,tol_toboard,,,,tol_peg_3,714,714,0,"[[0,0,0],[1,2],[3]]",20,"[[0,0,0],[1,2],[3]]",4,0,,,,,,7,,,,,,,,,
,,,,,poldrack-single-stim,102,289575,0.0-2.0-23.0,63f52af01929360880074598,D2,batch4,,-1,tol_feedback,,,TRUE,,1000,1000,500,,,,,,-1,none,TRUE,17453,69869,,,,,,,,,,
,,,,,html-button-response,103,291041,0.0-2.0-24.0,63f52af01929360880074598,D2,batch4,,1463.6000000238400,tol_trial_num,<div class = centerbox><p class = center-block-text>problem <strong>6</strong> out of 25 problems</p></div>,0,,,,,,,,,,,,,,,,,,,,,,,,,
,,,,,single-stim-button,104,314505,0.0-2.0-25.0-0.0,63f52af01929360880074598,D2,batch4,,23463,tol_tohand,,,,tol_peg_3,23463,23463,0,"[[0,0,0],[1,2],[0]]",1,"[[1,0,0],[2,3],[0]]",5,0,,,,,,6,,,,,,,,,
,,,,,single-stim-button,105,315689,0.0-2.0-25.0-1.0,63f52af01929360880074598,D2,batch4,,1183,tol_toboard,,,,tol_peg_1,1183,1183,0,"[[3,0,0],[1,2],[0]]",1,"[[1,0,0],[2,3],[0]]",5,0,,,,,,6,,,,,,,,,
,,,,,single-stim-button,106,316542,0.0-2.0-25.1-0.1,63f52af01929360880074598,D2,batch4,,852,tol_tohand,,,,tol_peg_2,852,852,0,"[[3,0,0],[1,0],[0]]",2,"[[1,0,0],[2,3],[0]]",5,0,,,,,,6,,,,,,,,,
,,,,,single-stim-button,107,317433,0.0-2.0-25.1-1.1,63f52af01929360880074598,D2,batch4,,889,tol_toboard,,,,tol_peg_3,889,889,0,"[[3,0,0],[1,0],[2]]",2,"[[1,0,0],[2,3],[0]]",5,0,,,,,,6,,,,,,,,,
,,,,,single-stim-button,108,318462,0.0-2.0-25.2-0.2,63f52af01929360880074598,D2,batch4,,1027,tol_tohand,,,,tol_peg_2,1027,1027,0,"[[3,0,0],[0,0],[2]]",3,"[[1,0,0],[2,3],[0]]",5,0,,,,,,6,,,,,,,,,
,,,,,single-stim-button,109,319305,0.0-2.0-25.2-1.2,63f52af01929360880074598,D2,batch4,,843,tol_toboard,,,,tol_peg_1,843,843,0,"[[3,1,0],[0,0],[2]]",3,"[[1,0,0],[2,3],[0]]",5,0,,,,,,6,,,,,,,,,
,,,,,single-stim-button,110,320732,0.0-2.0-25.3-0.3,63f52af01929360880074598,D2,batch4,,1425,tol_tohand,,,,tol_peg_3,1425,1425,0,"[[3,1,0],[0,0],[0]]",4,"[[1,0,0],[2,3],[0]]",5,0,,,,,,6,,,,,,,,,
,,,,,single-stim-button,111,321792,0.0-2.0-25.3-1.3,63f52af01929360880074598,D2,batch4,,1058,tol_toboard,,,,tol_peg_2,1058,1058,0,"[[3,1,0],[2,0],[0]]",4,"[[1,0,0],[2,3],[0]]",5,0,,,,,,6,,,,,,,,,
,,,,,single-stim-button,112,323123,0.0-2.0-25.4-0.4,63f52af01929360880074598,D2,batch4,,1331,tol_tohand,,,,tol_peg_1,1331,1331,0,"[[3,0,0],[2,0],[0]]",5,"[[1,0,0],[2,3],[0]]",5,0,,,,,,6,,,,,,,,,
,,,,,single-stim-button,113,324021,0.0-2.0-25.4-1.4,63f52af01929360880074598,D2,batch4,,897,tol_toboard,,,,tol_peg_3,897,897,0,"[[3,0,0],[2,0],[1]]",5,"[[1,0,0],[2,3],[0]]",5,0,,,,,,6,,,,,,,,,
,,,,,single-stim-button,114,324849,0.0-2.0-25.5-0.5,63f52af01929360880074598,D2,batch4,,827,tol_tohand,,,,tol_peg_1,827,827,0,"[[0,0,0],[2,0],[1]]",6,"[[1,0,0],[2,3],[0]]",5,0,,,,,,6,,,,,,,,,
,,,,,single-stim-button,115,325438,0.0-2.0-25.5-1.5,63f52af01929360880074598,D2,batch4,,587,tol_toboard,,,,tol_peg_2,587,587,0,"[[0,0,0],[2,3],[1]]",6,"[[1,0,0],[2,3],[0]]",5,0,,,,,,6,,,,,,,,,
,,,,,single-stim-button,116,326035,0.0-2.0-25.6-0.6,63f52af01929360880074598,D2,batch4,,596,tol_tohand,,,,tol_peg_3,596,596,0,"[[0,0,0],[2,3],[0]]",7,"[[1,0,0],[2,3],[0]]",5,0,,,,,,6,,,,,,,,,
,,,,,single-stim-button,117,326933,0.0-2.0-25.6-1.6,63f52af01929360880074598,D2,batch4,,897,tol_toboard,,,,tol_peg_1,897,897,0,"[[1,0,0],[2,3],[0]]",7,"[[1,0,0],[2,3],[0]]",5,0,,,,,,6,,,,,,,,,
,,,,,poldrack-single-stim,118,327945,0.0-2.0-26.0,63f52af01929360880074598,D2,batch4,,-1,tol_feedback,,,TRUE,,1000,1000,500,,,,,,-1,none,TRUE,23463,29521,,,,,,,,,,
,,,,,html-button-response,119,329466,0.0-2.0-27.0,63f52af01929360880074598,D2,batch4,,1518.8999999761600,tol_trial_num,<div class = centerbox><p class = center-block-text>problem <strong>7</strong> out of 25 problems</p></div>,0,,,,,,,,,,,,,,,,,,,,,,,,,
,,,,,single-stim-button,120,332697,0.0-2.0-28.0-0.0,63f52af01929360880074598,D2,batch4,,3230,tol_tohand,,,,tol_peg_1,3230,3230,0,"[[2,0,0],[0,0],[3]]",1,"[[1,2,0],[3,0],[0]]",6,0,,,,,,5,,,,,,,,,
,,,,,single-stim-button,121,348843,0.0-2.0-28.0-1.0,63f52af01929360880074598,D2,batch4,,16145,tol_toboard,,,,tol_peg_2,16145,16145,0,"[[2,0,0],[1,0],[3]]",1,"[[1,2,0],[3,0],[0]]",6,0,,,,,,5,,,,,,,,,
,,,,,single-stim-button,122,349656,0.0-2.0-28.1-0.1,63f52af01929360880074598,D2,batch4,,810,tol_tohand,,,,tol_peg_1,810,810,0,"[[0,0,0],[1,0],[3]]",2,"[[1,2,0],[3,0],[0]]",6,0,,,,,,5,,,,,,,,,
,,,,,single-stim-button,123,350253,0.0-2.0-28.1-1.1,63f52af01929360880074598,D2,batch4,,595,tol_toboard,,,,tol_peg_2,595,595,0,"[[0,0,0],[1,2],[3]]",2,"[[1,2,0],[3,0],[0]]",6,0,,,,,,5,,,,,,,,,
,,,,,single-stim-button,124,350809,0.0-2.0-28.2-0.2,63f52af01929360880074598,D2,batch4,,554,tol_tohand,,,,tol_peg_3,554,554,0,"[[0,0,0],[1,2],[0]]",3,"[[1,2,0],[3,0],[0]]",6,0,,,,,,5,,,,,,,,,
,,,,,single-stim-button,125,351561,0.0-2.0-28.2-1.2,63f52af01929360880074598,D2,batch4,,752,tol_toboard,,,,tol_peg_1,752,752,0,"[[3,0,0],[1,2],[0]]",3,"[[1,2,0],[3,0],[0]]",6,0,,,,,,5,,,,,,,,,
,,,,,single-stim-button,126,352791,0.0-2.0-28.3-0.3,63f52af01929360880074598,D2,batch4,,1229,tol_tohand,,,,tol_peg_2,1229,1229,0,"[[3,0,0],[1,0],[0]]",4,"[[1,2,0],[3,0],[0]]",6,0,,,,,,5,,,,,,,,,
,,,,,single-stim-button,127,353503,0.0-2.0-28.3-1.3,63f52af01929360880074598,D2,batch4,,711,tol_toboard,,,,tol_peg_3,711,711,0,"[[3,0,0],[1,0],[2]]",4,"[[1,2,0],[3,0],[0]]",6,0,,,,,,5,,,,,,,,,
,,,,,single-stim-button,128,361467,0.0-2.0-28.4-0.4,63f52af01929360880074598,D2,batch4,,7962,tol_tohand,,,,tol_peg_3,7962,7962,0,"[[3,0,0],[1,0],[0]]",5,"[[1,2,0],[3,0],[0]]",6,0,,,,,,5,,,,,,,,,
,,,,,single-stim-button,129,362434,0.0-2.0-28.4-1.4,63f52af01929360880074598,D2,batch4,,964,tol_toboard,,,,tol_peg_1,964,964,0,"[[3,2,0],[1,0],[0]]",5,"[[1,2,0],[3,0],[0]]",6,0,,,,,,5,,,,,,,,,
,,,,,single-stim-button,130,363186,0.0-2.0-28.5-0.5,63f52af01929360880074598,D2,batch4,,748,tol_tohand,,,,tol_peg_2,748,748,0,"[[3,2,0],[0,0],[0]]",6,"[[1,2,0],[3,0],[0]]",6,0,,,,,,5,,,,,,,,,
,,,,,single-stim-button,131,363773,0.0-2.0-28.5-1.5,63f52af01929360880074598,D2,batch4,,587,tol_toboard,,,,tol_peg_3,587,587,0,"[[3,2,0],[0,0],[1]]",6,"[[1,2,0],[3,0],[0]]",6,0,,,,,,5,,,,,,,,,
,,,,,single-stim-button,132,365493,0.0-2.0-28.6-0.6,63f52af01929360880074598,D2,batch4,,1719,tol_tohand,,,,tol_peg_1,1719,1719,0,"[[3,0,0],[0,0],[1]]",7,"[[1,2,0],[3,0],[0]]",6,0,,,,,,5,,,,,,,,,
,,,,,single-stim-button,133,369474,0.0-2.0-28.6-1.6,63f52af01929360880074598,D2,batch4,,3979,tol_toboard,,,,tol_peg_2,3979,3979,0,"[[3,0,0],[2,0],[1]]",7,"[[1,2,0],[3,0],[0]]",6,0,,,,,,5,,,,,,,,,
,,,,,single-stim-button,134,370241,0.0-2.0-28.7-0.7,63f52af01929360880074598,D2,batch4,,766,tol_tohand,,,,tol_peg_1,766,766,0,"[[0,0,0],[2,0],[1]]",8,"[[1,2,0],[3,0],[0]]",6,0,,,,,,5,,,,,,,,,
,,,,,single-stim-button,135,370791,0.0-2.0-28.7-1.7,63f52af01929360880074598,D2,batch4,,549,tol_toboard,,,,tol_peg_2,549,549,0,"[[0,0,0],[2,3],[1]]",8,"[[1,2,0],[3,0],[0]]",6,0,,,,,,5,,,,,,,,,
,,,,,single-stim-button,136,371396,0.0-2.0-28.8-0.8,63f52af01929360880074598,D2,batch4,,603,tol_tohand,,,,tol_peg_3,603,603,0,"[[0,0,0],[2,3],[0]]",9,"[[1,2,0],[3,0],[0]]",6,0,,,,,,5,,,,,,,,,
,,,,,single-stim-button,137,372339,0.0-2.0-28.8-1.8,63f52af01929360880074598,D2,batch4,,942,tol_toboard,,,,tol_peg_1,942,942,0,"[[1,0,0],[2,3],[0]]",9,"[[1,2,0],[3,0],[0]]",6,0,,,,,,5,,,,,,,,,
,,,,,single-stim-button,138,373842,0.0-2.0-28.9-0.9,63f52af01929360880074598,D2,batch4,,1501,tol_tohand,,,,tol_peg_2,1501,1501,0,"[[1,0,0],[2,0],[0]]",10,"[[1,2,0],[3,0],[0]]",6,0,,,,,,5,,,,,,,,,
,,,,,single-stim-button,139,374477,0.0-2.0-28.9-1.9,63f52af01929360880074598,D2,batch4,,635,tol_toboard,,,,tol_peg_3,635,635,0,"[[1,0,0],[2,0],[3]]",10,"[[1,2,0],[3,0],[0]]",6,0,,,,,,5,,,,,,,,,
,,,,,single-stim-button,140,375074,0.0-2.0-28.10-0.10,63f52af01929360880074598,D2,batch4,,595,tol_tohand,,,,tol_peg_2,595,595,0,"[[1,0,0],[0,0],[3]]",11,"[[1,2,0],[3,0],[0]]",6,0,,,,,,5,,,,,,,,,
,,,,,single-stim-button,141,375793,0.0-2.0-28.10-1.10,63f52af01929360880074598,D2,batch4,,718,tol_toboard,,,,tol_peg_1,718,718,0,"[[1,2,0],[0,0],[3]]",11,"[[1,2,0],[3,0],[0]]",6,0,,,,,,5,,,,,,,,,
,,,,,single-stim-button,142,376422,0.0-2.0-28.11-0.11,63f52af01929360880074598,D2,batch4,,628,tol_tohand,,,,tol_peg_3,628,628,0,"[[1,2,0],[0,0],[0]]",12,"[[1,2,0],[3,0],[0]]",6,0,,,,,,5,,,,,,,,,
,,,,,single-stim-button,143,377304,0.0-2.0-28.11-1.11,63f52af01929360880074598,D2,batch4,,880,tol_toboard,,,,tol_peg_2,880,880,0,"[[1,2,0],[3,0],[0]]",12,"[[1,2,0],[3,0],[0]]",6,0,,,,,,5,,,,,,,,,
,,,,,poldrack-single-stim,144,378306,0.0-2.0-29.0,63f52af01929360880074598,D2,batch4,,-1,tol_feedback,,,TRUE,,1000,1000,500,,,,,,-1,none,TRUE,3230,20345,,,,,,,,,,
,,,,,html-button-response,145,380089,0.0-2.0-30.0,63f52af01929360880074598,D2,batch4,,1780.0999999046300,tol_trial_num,<div class = centerbox><p class = center-block-text>problem <strong>8</strong> out of 25 problems</p></div>,0,,,,,,,,,,,,,,,,,,,,,,,,,
,,,,,single-stim-button,146,389458,0.0-2.0-31.0-0.0,63f52af01929360880074598,D2,batch4,,9367,tol_tohand,,,,tol_peg_3,9367,9367,0,"[[0,0,0],[2,3],[0]]",1,"[[1,2,0],[3,0],[0]]",7,0,,,,,,4,,,,,,,,,
,,,,,single-stim-button,147,390496,0.0-2.0-31.0-1.0,63f52af01929360880074598,D2,batch4,,1036,tol_toboard,,,,tol_peg_1,1036,1036,0,"[[1,0,0],[2,3],[0]]",1,"[[1,2,0],[3,0],[0]]",7,0,,,,,,4,,,,,,,,,
,,,,,single-stim-button,148,391447,0.0-2.0-31.1-0.1,63f52af01929360880074598,D2,batch4,,949,tol_tohand,,,,tol_peg_2,949,949,0,"[[1,0,0],[2,0],[0]]",2,"[[1,2,0],[3,0],[0]]",7,0,,,,,,4,,,,,,,,,
,,,,,single-stim-button,149,392462,0.0-2.0-31.1-1.1,63f52af01929360880074598,D2,batch4,,1013,tol_toboard,,,,tol_peg_3,1013,1013,0,"[[1,0,0],[2,0],[3]]",2,"[[1,2,0],[3,0],[0]]",7,0,,,,,,4,,,,,,,,,
,,,,,single-stim-button,150,393230,0.0-2.0-31.2-0.2,63f52af01929360880074598,D2,batch4,,766,tol_tohand,,,,tol_peg_2,766,766,0,"[[1,0,0],[0,0],[3]]",3,"[[1,2,0],[3,0],[0]]",7,0,,,,,,4,,,,,,,,,
,,,,,single-stim-button,151,394380,0.0-2.0-31.2-1.2,63f52af01929360880074598,D2,batch4,,1147,tol_toboard,,,,tol_peg_1,1147,1147,0,"[[1,2,0],[0,0],[3]]",3,"[[1,2,0],[3,0],[0]]",7,0,,,,,,4,,,,,,,,,
,,,,,single-stim-button,152,395261,0.0-2.0-31.3-0.3,63f52af01929360880074598,D2,batch4,,881,tol_tohand,,,,tol_peg_3,881,881,0,"[[1,2,0],[0,0],[0]]",4,"[[1,2,0],[3,0],[0]]",7,0,,,,,,4,,,,,,,,,
,,,,,single-stim-button,153,396080,0.0-2.0-31.3-1.3,63f52af01929360880074598,D2,batch4,,817,tol_toboard,,,,tol_peg_2,817,817,0,"[[1,2,0],[3,0],[0]]",4,"[[1,2,0],[3,0],[0]]",7,0,,,,,,4,,,,,,,,,
,,,,,poldrack-single-stim,154,397087,0.0-2.0-32.0,63f52af01929360880074598,D2,batch4,,-1,tol_feedback,,,TRUE,,1000,1000,500,,,,,,-1,none,TRUE,9367,11963,,,,,,,,,,
,,,,,html-button-response,155,398100,0.0-2.0-33.0,63f52af01929360880074598,D2,batch4,,1011,tol_trial_num,<div class = centerbox><p class = center-block-text>problem <strong>9</strong> out of 25 problems</p></div>,0,,,,,,,,,,,,,,,,,,,,,,,,,
,,,,,single-stim-button,156,407807,0.0-2.0-34.0-0.0,63f52af01929360880074598,D2,batch4,,9705,tol_tohand,,,,tol_peg_1,9705,9705,0,"[[3,0,0],[0,0],[1]]",1,"[[2,1,0],[3,0],[0]]",8,0,,,,,,6,,,,,,,,,
,,,,,single-stim-button,157,410997,0.0-2.0-34.0-1.0,63f52af01929360880074598,D2,batch4,,3189,tol_toboard,,,,tol_peg_2,3189,3189,0,"[[3,0,0],[2,0],[1]]",1,"[[2,1,0],[3,0],[0]]",8,0,,,,,,6,,,,,,,,,
,,,,,single-stim-button,158,411912,0.0-2.0-34.1-0.1,63f52af01929360880074598,D2,batch4,,913,tol_tohand,,,,tol_peg_1,913,913,0,"[[0,0,0],[2,0],[1]]",2,"[[2,1,0],[3,0],[0]]",8,0,,,,,,6,,,,,,,,,
,,,,,single-stim-button,159,412685,0.0-2.0-34.1-1.1,63f52af01929360880074598,D2,batch4,,773,tol_toboard,,,,tol_peg_2,773,773,0,"[[0,0,0],[2,3],[1]]",2,"[[2,1,0],[3,0],[0]]",8,0,,,,,,6,,,,,,,,,
,,,,,single-stim-button,160,413979,0.0-2.0-34.2-0.2,63f52af01929360880074598,D2,batch4,,1293,tol_tohand,,,,tol_peg_3,1293,1293,0,"[[0,0,0],[2,3],[0]]",3,"[[2,1,0],[3,0],[0]]",8,0,,,,,,6,,,,,,,,,
,,,,,single-stim-button,161,415658,0.0-2.0-34.2-1.2,63f52af01929360880074598,D2,batch4,,1677,tol_toboard,,,,tol_peg_1,1677,1677,0,"[[1,0,0],[2,3],[0]]",3,"[[2,1,0],[3,0],[0]]",8,0,,,,,,6,,,,,,,,,
,,,,,single-stim-button,162,416401,0.0-2.0-34.3-0.3,63f52af01929360880074598,D2,batch4,,742,tol_tohand,,,,tol_peg_2,742,742,0,"[[1,0,0],[2,0],[0]]",4,"[[2,1,0],[3,0],[0]]",8,0,,,,,,6,,,,,,,,,
,,,,,single-stim-button,163,417928,0.0-2.0-34.3-1.3,63f52af01929360880074598,D2,batch4,,1526,tol_toboard,,,,tol_peg_3,1526,1526,0,"[[1,0,0],[2,0],[3]]",4,"[[2,1,0],[3,0],[0]]",8,0,,,,,,6,,,,,,,,,
,,,,,single-stim-button,164,425471,0.0-2.0-34.4-0.4,63f52af01929360880074598,D2,batch4,,7542,tol_tohand,,,,tol_peg_1,7542,7542,0,"[[0,0,0],[2,0],[3]]",5,"[[2,1,0],[3,0],[0]]",8,0,,,,,,6,,,,,,,,,
,,,,,single-stim-button,165,427370,0.0-2.0-34.4-1.4,63f52af01929360880074598,D2,batch4,,1897,tol_toboard,,,,tol_peg_2,1897,1897,0,"[[0,0,0],[2,1],[3]]",5,"[[2,1,0],[3,0],[0]]",8,0,,,,,,6,,,,,,,,,
,,,,,single-stim-button,166,428555,0.0-2.0-34.5-0.5,63f52af01929360880074598,D2,batch4,,1184,tol_tohand,,,,tol_peg_3,1184,1184,0,"[[0,0,0],[2,1],[0]]",6,"[[2,1,0],[3,0],[0]]",8,0,,,,,,6,,,,,,,,,
,,,,,single-stim-button,167,429406,0.0-2.0-34.5-1.5,63f52af01929360880074598,D2,batch4,,850,tol_toboard,,,,tol_peg_1,850,850,0,"[[3,0,0],[2,1],[0]]",6,"[[2,1,0],[3,0],[0]]",8,0,,,,,,6,,,,,,,,,
,,,,,single-stim-button,168,430807,0.0-2.0-34.6-0.6,63f52af01929360880074598,D2,batch4,,1400,tol_tohand,,,,tol_peg_2,1400,1400,0,"[[3,0,0],[2,0],[0]]",7,"[[2,1,0],[3,0],[0]]",8,0,,,,,,6,,,,,,,,,
,,,,,single-stim-button,169,432139,0.0-2.0-34.6-1.6,63f52af01929360880074598,D2,batch4,,1330,tol_toboard,,,,tol_peg_3,1330,1330,0,"[[3,0,0],[2,0],[1]]",7,"[[2,1,0],[3,0],[0]]",8,0,,,,,,6,,,,,,,,,
,,,,,single-stim-button,170,435602,0.0-2.0-34.7-0.7,63f52af01929360880074598,D2,batch4,,3462,tol_tohand,,,,tol_peg_2,3462,3462,0,"[[3,0,0],[0,0],[1]]",8,"[[2,1,0],[3,0],[0]]",8,0,,,,,,6,,,,,,,,,
,,,,,single-stim-button,171,436354,0.0-2.0-34.7-1.7,63f52af01929360880074598,D2,batch4,,750,tol_toboard,,,,tol_peg_1,750,750,0,"[[3,2,0],[0,0],[1]]",8,"[[2,1,0],[3,0],[0]]",8,0,,,,,,6,,,,,,,,,
,,,,,single-stim-button,172,437011,0.0-2.0-34.8-0.8,63f52af01929360880074598,D2,batch4,,657,tol_tohand,,,,tol_peg_3,657,657,0,"[[3,2,0],[0,0],[0]]",9,"[[2,1,0],[3,0],[0]]",8,0,,,,,,6,,,,,,,,,
,,,,,single-stim-button,173,437755,0.0-2.0-34.8-1.8,63f52af01929360880074598,D2,batch4,,743,tol_toboard,,,,tol_peg_2,743,743,0,"[[3,2,0],[1,0],[0]]",9,"[[2,1,0],[3,0],[0]]",8,0,,,,,,6,,,,,,,,,
,,,,,single-stim-button,174,438451,0.0-2.0-34.9-0.9,63f52af01929360880074598,D2,batch4,,694,tol_tohand,,,,tol_peg_1,694,694,0,"[[3,0,0],[1,0],[0]]",10,"[[2,1,0],[3,0],[0]]",8,0,,,,,,6,,,,,,,,,
,,,,,single-stim-button,175,439419,0.0-2.0-34.9-1.9,63f52af01929360880074598,D2,batch4,,966,tol_toboard,,,,tol_peg_3,966,966,0,"[[3,0,0],[1,0],[2]]",10,"[[2,1,0],[3,0],[0]]",8,0,,,,,,6,,,,,,,,,
,,,,,single-stim-button,176,440265,0.0-2.0-34.10-0.10,63f52af01929360880074598,D2,batch4,,845,tol_tohand,,,,tol_peg_1,845,845,0,"[[0,0,0],[1,0],[2]]",11,"[[2,1,0],[3,0],[0]]",8,0,,,,,,6,,,,,,,,,
,,,,,single-stim-button,177,441000,0.0-2.0-34.10-1.10,63f52af01929360880074598,D2,batch4,,734,tol_toboard,,,,tol_peg_2,734,734,0,"[[0,0,0],[1,3],[2]]",11,"[[2,1,0],[3,0],[0]]",8,0,,,,,,6,,,,,,,,,
,,,,,single-stim-button,178,441722,0.0-2.0-34.11-0.11,63f52af01929360880074598,D2,batch4,,720,tol_tohand,,,,tol_peg_3,720,720,0,"[[0,0,0],[1,3],[0]]",12,"[[2,1,0],[3,0],[0]]",8,0,,,,,,6,,,,,,,,,
,,,,,single-stim-button,179,442655,0.0-2.0-34.11-1.11,63f52af01929360880074598,D2,batch4,,933,tol_toboard,,,,tol_peg_1,933,933,0,"[[2,0,0],[1,3],[0]]",12,"[[2,1,0],[3,0],[0]]",8,0,,,,,,6,,,,,,,,,
,,,,,single-stim-button,180,444205,0.0-2.0-34.12-0.12,63f52af01929360880074598,D2,batch4,,1548,tol_tohand,,,,tol_peg_2,1548,1548,0,"[[2,0,0],[1,0],[0]]",13,"[[2,1,0],[3,0],[0]]",8,0,,,,,,6,,,,,,,,,
,,,,,single-stim-button,181,445166,0.0-2.0-34.12-1.12,63f52af01929360880074598,D2,batch4,,959,tol_toboard,,,,tol_peg_3,959,959,0,"[[2,0,0],[1,0],[3]]",13,"[[2,1,0],[3,0],[0]]",8,0,,,,,,6,,,,,,,,,
,,,,,single-stim-button,182,445840,0.0-2.0-34.13-0.13,63f52af01929360880074598,D2,batch4,,674,tol_tohand,,,,tol_peg_2,674,674,0,"[[2,0,0],[0,0],[3]]",14,"[[2,1,0],[3,0],[0]]",8,0,,,,,,6,,,,,,,,,
,,,,,single-stim-button,183,446530,0.0-2.0-34.13-1.13,63f52af01929360880074598,D2,batch4,,689,tol_toboard,,,,tol_peg_1,689,689,0,"[[2,1,0],[0,0],[3]]",14,"[[2,1,0],[3,0],[0]]",8,0,,,,,,6,,,,,,,,,
,,,,,single-stim-button,184,447259,0.0-2.0-34.14-0.14,63f52af01929360880074598,D2,batch4,,727,tol_tohand,,,,tol_peg_3,727,727,0,"[[2,1,0],[0,0],[0]]",15,"[[2,1,0],[3,0],[0]]",8,0,,,,,,6,,,,,,,,,
,,,,,single-stim-button,185,448008,0.0-2.0-34.14-1.14,63f52af01929360880074598,D2,batch4,,748,tol_toboard,,,,tol_peg_2,748,748,0,"[[2,1,0],[3,0],[0]]",15,"[[2,1,0],[3,0],[0]]",8,0,,,,,,6,,,,,,,,,
,,,,,poldrack-single-stim,186,449012,0.0-2.0-35.0,63f52af01929360880074598,D2,batch4,,-1,tol_feedback,,,TRUE,,1000,1000,500,,,,,,-1,none,TRUE,9705,32106,,,,,,,,,,
,,,,,html-button-response,187,449992,0.0-2.0-36.0,63f52af01929360880074598,D2,batch4,,977.6000000238420,tol_trial_num,<div class = centerbox><p class = center-block-text>problem <strong>10</strong> out of 25 problems</p></div>,0,,,,,,,,,,,,,,,,,,,,,,,,,
,,,,,single-stim-button,188,456520,0.0-2.0-37.0-0.0,63f52af01929360880074598,D2,batch4,,6526,tol_tohand,,,,tol_peg_3,6526,6526,0,"[[3,0,0],[1,0],[0]]",1,"[[3,0,0],[2,1],[0]]",9,0,,,,,,3,,,,,,,,,
,,,,,single-stim-button,189,457433,0.0-2.0-37.0-1.0,63f52af01929360880074598,D2,batch4,,912,tol_toboard,,,,tol_peg_1,912,912,0,"[[3,2,0],[1,0],[0]]",1,"[[3,0,0],[2,1],[0]]",9,0,,,,,,3,,,,,,,,,
,,,,,single-stim-button,190,458062,0.0-2.0-37.1-0.1,63f52af01929360880074598,D2,batch4,,628,tol_tohand,,,,tol_peg_2,628,628,0,"[[3,2,0],[0,0],[0]]",2,"[[3,0,0],[2,1],[0]]",9,0,,,,,,3,,,,,,,,,
,,,,,single-stim-button,191,458794,0.0-2.0-37.1-1.1,63f52af01929360880074598,D2,batch4,,728,tol_toboard,,,,tol_peg_3,728,728,0,"[[3,2,0],[0,0],[1]]",2,"[[3,0,0],[2,1],[0]]",9,0,,,,,,3,,,,,,,,,
,,,,,single-stim-button,192,459494,0.0-2.0-37.2-0.2,63f52af01929360880074598,D2,batch4,,699,tol_tohand,,,,tol_peg_1,699,699,0,"[[3,0,0],[0,0],[1]]",3,"[[3,0,0],[2,1],[0]]",9,0,,,,,,3,,,,,,,,,
,,,,,single-stim-button,193,460167,0.0-2.0-37.2-1.2,63f52af01929360880074598,D2,batch4,,671,tol_toboard,,,,tol_peg_2,671,671,0,"[[3,0,0],[2,0],[1]]",3,"[[3,0,0],[2,1],[0]]",9,0,,,,,,3,,,,,,,,,
,,,,,single-stim-button,194,461840,0.0-2.0-37.3-0.3,63f52af01929360880074598,D2,batch4,,1671,tol_tohand,,,,tol_peg_3,1671,1671,0,"[[3,0,0],[2,0],[0]]",4,"[[3,0,0],[2,1],[0]]",9,0,,,,,,3,,,,,,,,,
,,,,,single-stim-button,195,462692,0.0-2.0-37.3-1.3,63f52af01929360880074598,D2,batch4,,850,tol_toboard,,,,tol_peg_2,850,850,0,"[[3,0,0],[2,1],[0]]",4,"[[3,0,0],[2,1],[0]]",9,0,,,,,,3,,,,,,,,,
,,,,,poldrack-single-stim,196,463705,0.0-2.0-38.0,63f52af01929360880074598,D2,batch4,,-1,tol_feedback,,,TRUE,,1000,1000,500,,,,,,-1,none,TRUE,6526,9524,,,,,,,,,,
,,,,,html-button-response,197,464743,0.0-2.0-39.0,63f52af01929360880074598,D2,batch4,,1035.7999999523200,tol_trial_num,<div class = centerbox><p class = center-block-text>problem <strong>11</strong> out of 25 problems</p></div>,0,,,,,,,,,,,,,,,,,,,,,,,,,
,,,,,single-stim-button,198,474773,0.0-2.0-40.0-0.0,63f52af01929360880074598,D2,batch4,,10028,tol_tohand,,,,tol_peg_1,10028,10028,0,"[[1,0,0],[3,0],[0]]",1,"[[2,0,0],[1,3],[0]]",10,0,,,,,,6,,,,,,,,,
,,,,,single-stim-button,199,475866,0.0-2.0-40.0-1.0,63f52af01929360880074598,D2,batch4,,1091,tol_toboard,,,,tol_peg_2,1091,1091,0,"[[1,0,0],[3,2],[0]]",1,"[[2,0,0],[1,3],[0]]",10,0,,,,,,6,,,,,,,,,
,,,,,single-stim-button,200,476609,0.0-2.0-40.1-0.1,63f52af01929360880074598,D2,batch4,,743,tol_tohand,,,,tol_peg_1,743,743,0,"[[0,0,0],[3,2],[0]]",2,"[[2,0,0],[1,3],[0]]",10,0,,,,,,6,,,,,,,,,
,,,,,single-stim-button,201,477562,0.0-2.0-40.1-1.1,63f52af01929360880074598,D2,batch4,,952,tol_toboard,,,,tol_peg_3,952,952,0,"[[0,0,0],[3,2],[1]]",2,"[[2,0,0],[1,3],[0]]",10,0,,,,,,6,,,,,,,,,
,,,,,single-stim-button,202,478422,0.0-2.0-40.2-0.2,63f52af01929360880074598,D2,batch4,,858,tol_tohand,,,,tol_peg_2,858,858,0,"[[0,0,0],[3,0],[1]]",3,"[[2,0,0],[1,3],[0]]",10,0,,,,,,6,,,,,,,,,
,,,,,single-stim-button,203,479333,0.0-2.0-40.2-1.2,63f52af01929360880074598,D2,batch4,,910,tol_toboard,,,,tol_peg_1,910,910,0,"[[2,0,0],[3,0],[1]]",3,"[[2,0,0],[1,3],[0]]",10,0,,,,,,6,,,,,,,,,
,,,,,single-stim-button,204,480388,0.0-2.0-40.3-0.3,63f52af01929360880074598,D2,batch4,,1052,tol_tohand,,,,tol_peg_2,1052,1052,0,"[[2,0,0],[0,0],[1]]",4,"[[2,0,0],[1,3],[0]]",10,0,,,,,,6,,,,,,,,,
,,,,,single-stim-button,205,481239,0.0-2.0-40.3-1.3,63f52af01929360880074598,D2,batch4,,850,tol_toboard,,,,tol_peg_1,850,850,0,"[[2,3,0],[0,0],[1]]",4,"[[2,0,0],[1,3],[0]]",10,0,,,,,,6,,,,,,,,,
,,,,,single-stim-button,206,481999,0.0-2.0-40.4-0.4,63f52af01929360880074598,D2,batch4,,759,tol_tohand,,,,tol_peg_3,759,759,0,"[[2,3,0],[0,0],[0]]",5,"[[2,0,0],[1,3],[0]]",10,0,,,,,,6,,,,,,,,,
,,,,,single-stim-button,207,483037,0.0-2.0-40.4-1.4,63f52af01929360880074598,D2,batch4,,1037,tol_toboard,,,,tol_peg_2,1037,1037,0,"[[2,3,0],[1,0],[0]]",5,"[[2,0,0],[1,3],[0]]",10,0,,,,,,6,,,,,,,,,
,,,,,single-stim-button,208,483647,0.0-2.0-40.5-0.5,63f52af01929360880074598,D2,batch4,,609,tol_tohand,,,,tol_peg_1,609,609,0,"[[2,0,0],[1,0],[0]]",6,"[[2,0,0],[1,3],[0]]",10,0,,,,,,6,,,,,,,,,
,,,,,single-stim-button,209,484274,0.0-2.0-40.5-1.5,63f52af01929360880074598,D2,batch4,,626,tol_toboard,,,,tol_peg_2,626,626,0,"[[2,0,0],[1,3],[0]]",6,"[[2,0,0],[1,3],[0]]",10,0,,,,,,6,,,,,,,,,
,,,,,poldrack-single-stim,210,485285,0.0-2.0-41.0,63f52af01929360880074598,D2,batch4,,-1,tol_feedback,,,TRUE,,1000,1000,500,,,,,,-1,none,TRUE,10028,14049,,,,,,,,,,
,,,,,html-button-response,211,486644,0.0-2.0-42.0,63f52af01929360880074598,D2,batch4,,1357.3000000715300,tol_trial_num,<div class = centerbox><p class = center-block-text>problem <strong>12</strong> out of 25 problems</p></div>,0,,,,,,,,,,,,,,,,,,,,,,,,,
,,,,,single-stim-button,212,499322,0.0-2.0-43.0-0.0,63f52af01929360880074598,D2,batch4,,12676,tol_tohand,,,,tol_peg_1,12676,12676,0,"[[1,0,0],[3,0],[0]]",1,"[[2,3,0],[0,0],[1]]",11,0,,,,,,4,,,,,,,,,
,,,,,single-stim-button,213,501039,0.0-2.0-43.0-1.0,63f52af01929360880074598,D2,batch4,,1716,tol_toboard,,,,tol_peg_3,1716,1716,0,"[[1,0,0],[3,0],[2]]",1,"[[2,3,0],[0,0],[1]]",11,0,,,,,,4,,,,,,,,,
,,,,,single-stim-button,214,503185,0.0-2.0-43.1-0.1,63f52af01929360880074598,D2,batch4,,2145,tol_tohand,,,,tol_peg_1,2145,2145,0,"[[0,0,0],[3,0],[2]]",2,"[[2,3,0],[0,0],[1]]",11,0,,,,,,4,,,,,,,,,
,,,,,single-stim-button,215,503936,0.0-2.0-43.1-1.1,63f52af01929360880074598,D2,batch4,,749,tol_toboard,,,,tol_peg_2,749,749,0,"[[0,0,0],[3,1],[2]]",2,"[[2,3,0],[0,0],[1]]",11,0,,,,,,4,,,,,,,,,
,,,,,single-stim-button,216,504640,0.0-2.0-43.2-0.2,63f52af01929360880074598,D2,batch4,,703,tol_tohand,,,,tol_peg_3,703,703,0,"[[0,0,0],[3,1],[0]]",3,"[[2,3,0],[0,0],[1]]",11,0,,,,,,4,,,,,,,,,
,,,,,single-stim-button,217,505841,0.0-2.0-43.2-1.2,63f52af01929360880074598,D2,batch4,,1200,tol_toboard,,,,tol_peg_1,1200,1200,0,"[[2,0,0],[3,1],[0]]",3,"[[2,3,0],[0,0],[1]]",11,0,,,,,,4,,,,,,,,,
,,,,,single-stim-button,218,506932,0.0-2.0-43.3-0.3,63f52af01929360880074598,D2,batch4,,1089,tol_tohand,,,,tol_peg_2,1089,1089,0,"[[2,0,0],[3,0],[0]]",4,"[[2,3,0],[0,0],[1]]",11,0,,,,,,4,,,,,,,,,
,,,,,single-stim-button,219,508039,0.0-2.0-43.3-1.3,63f52af01929360880074598,D2,batch4,,1107,tol_toboard,,,,tol_peg_3,1107,1107,0,"[[2,0,0],[3,0],[1]]",4,"[[2,3,0],[0,0],[1]]",11,0,,,,,,4,,,,,,,,,
,,,,,single-stim-button,220,508668,0.0-2.0-43.4-0.4,63f52af01929360880074598,D2,batch4,,628,tol_tohand,,,,tol_peg_2,628,628,0,"[[2,0,0],[0,0],[1]]",5,"[[2,3,0],[0,0],[1]]",11,0,,,,,,4,,,,,,,,,
,,,,,single-stim-button,221,509604,0.0-2.0-43.4-1.4,63f52af01929360880074598,D2,batch4,,935,tol_toboard,,,,tol_peg_1,935,935,0,"[[2,3,0],[0,0],[1]]",5,"[[2,3,0],[0,0],[1]]",11,0,,,,,,4,,,,,,,,,
,,,,,poldrack-single-stim,222,510607,0.0-2.0-44.0,63f52af01929360880074598,D2,batch4,,-1,tol_feedback,,,TRUE,,1000,1000,500,,,,,,-1,none,TRUE,12676,17241,,,,,,,,,,
,,,,,html-button-response,223,511440,0.0-2.0-45.0,63f52af01929360880074598,D2,batch4,,830.7000000476840,tol_trial_num,<div class = centerbox><p class = center-block-text>problem <strong>13</strong> out of 25 problems</p></div>,0,,,,,,,,,,,,,,,,,,,,,,,,,
,,,,,single-stim-button,224,518861,0.0-2.0-46.0-0.0,63f52af01929360880074598,D2,batch4,,7419,tol_tohand,,,,tol_peg_2,7419,7419,0,"[[1,2,0],[0,0],[0]]",1,"[[0,0,0],[2,3],[1]]",12,0,,,,,,4,,,,,,,,,
,,,,,single-stim-button,225,519539,0.0-2.0-46.0-1.0,63f52af01929360880074598,D2,batch4,,677,tol_toboard,,,,tol_peg_3,677,677,0,"[[1,2,0],[0,0],[3]]",1,"[[0,0,0],[2,3],[1]]",12,0,,,,,,4,,,,,,,,,
,,,,,single-stim-button,226,520229,0.0-2.0-46.1-0.1,63f52af01929360880074598,D2,batch4,,689,tol_tohand,,,,tol_peg_1,689,689,0,"[[1,0,0],[0,0],[3]]",2,"[[0,0,0],[2,3],[1]]",12,0,,,,,,4,,,,,,,,,
,,,,,single-stim-button,227,521219,0.0-2.0-46.1-1.1,63f52af01929360880074598,D2,batch4,,989,tol_toboard,,,,tol_peg_2,989,989,0,"[[1,0,0],[2,0],[3]]",2,"[[0,0,0],[2,3],[1]]",12,0,,,,,,4,,,,,,,,,
,,,,,single-stim-button,228,522709,0.0-2.0-46.2-0.2,63f52af01929360880074598,D2,batch4,,1489,tol_tohand,,,,tol_peg_3,1489,1489,0,"[[1,0,0],[2,0],[0]]",3,"[[0,0,0],[2,3],[1]]",12,0,,,,,,4,,,,,,,,,
,,,,,single-stim-button,229,523450,0.0-2.0-46.2-1.2,63f52af01929360880074598,D2,batch4,,739,tol_toboard,,,,tol_peg_2,739,739,0,"[[1,0,0],[2,3],[0]]",3,"[[0,0,0],[2,3],[1]]",12,0,,,,,,4,,,,,,,,,
,,,,,single-stim-button,230,524016,0.0-2.0-46.3-0.3,63f52af01929360880074598,D2,batch4,,565,tol_tohand,,,,tol_peg_1,565,565,0,"[[0,0,0],[2,3],[0]]",4,"[[0,0,0],[2,3],[1]]",12,0,,,,,,4,,,,,,,,,
,,,,,single-stim-button,231,524929,0.0-2.0-46.3-1.3,63f52af01929360880074598,D2,batch4,,912,tol_toboard,,,,tol_peg_3,912,912,0,"[[0,0,0],[2,3],[1]]",4,"[[0,0,0],[2,3],[1]]",12,0,,,,,,4,,,,,,,,,
,,,,,poldrack-single-stim,232,525947,0.0-2.0-47.0,63f52af01929360880074598,D2,batch4,,-1,tol_feedback,,,TRUE,,1000,1000,500,,,,,,-1,none,TRUE,7419,10162,,,,,,,,,,
,,,,,html-button-response,233,528500,0.0-2.0-48.0,63f52af01929360880074598,D2,batch4,,2550.5,attention_check,<p class = block-text>How many balls are in your board<br></p>,1,TRUE,,,,,,,,,,,,,,,,,,,,,,,,
,,,,,html-button-response,234,529723,0.0-2.0-49.0,63f52af01929360880074598,D2,batch4,,1219.8000000715300,tol_trial_num,<div class = centerbox><p class = center-block-text>problem <strong>14</strong> out of 25 problems</p></div>,0,,,,,,,,,,,,,,,,,,,,,,,,,
,,,,,single-stim-button,235,534391,0.0-2.0-50.0-0.0,63f52af01929360880074598,D2,batch4,,4667,tol_tohand,,,,tol_peg_1,4667,4667,0,"[[2,0,0],[3,0],[0]]",1,"[[1,2,0],[3,0],[0]]",13,0,,,,,,4,,,,,,,,,
,,,,,single-stim-button,236,536569,0.0-2.0-50.0-1.0,63f52af01929360880074598,D2,batch4,,2177,tol_toboard,,,,tol_peg_3,2177,2177,0,"[[2,0,0],[3,0],[1]]",1,"[[1,2,0],[3,0],[0]]",13,0,,,,,,4,,,,,,,,,
,,,,,single-stim-button,237,537490,0.0-2.0-50.1-0.1,63f52af01929360880074598,D2,batch4,,919,tol_tohand,,,,tol_peg_1,919,919,0,"[[0,0,0],[3,0],[1]]",2,"[[1,2,0],[3,0],[0]]",13,0,,,,,,4,,,,,,,,,
,,,,,single-stim-button,238,538202,0.0-2.0-50.1-1.1,63f52af01929360880074598,D2,batch4,,710,tol_toboard,,,,tol_peg_2,710,710,0,"[[0,0,0],[3,2],[1]]",2,"[[1,2,0],[3,0],[0]]",13,0,,,,,,4,,,,,,,,,
,,,,,single-stim-button,239,538930,0.0-2.0-50.2-0.2,63f52af01929360880074598,D2,batch4,,725,tol_tohand,,,,tol_peg_3,725,725,0,"[[0,0,0],[3,2],[0]]",3,"[[1,2,0],[3,0],[0]]",13,0,,,,,,4,,,,,,,,,
,,,,,single-stim-button,240,539696,0.0-2.0-50.2-1.2,63f52af01929360880074598,D2,batch4,,764,tol_toboard,,,,tol_peg_1,764,764,0,"[[1,0,0],[3,2],[0]]",3,"[[1,2,0],[3,0],[0]]",13,0,,,,,,4,,,,,,,,,
,,,,,single-stim-button,241,540361,0.0-2.0-50.3-0.3,63f52af01929360880074598,D2,batch4,,665,tol_tohand,,,,tol_peg_2,665,665,0,"[[1,0,0],[3,0],[0]]",4,"[[1,2,0],[3,0],[0]]",13,0,,,,,,4,,,,,,,,,
,,,,,single-stim-button,242,541068,0.0-2.0-50.3-1.3,63f52af01929360880074598,D2,batch4,,705,tol_toboard,,,,tol_peg_1,705,705,0,"[[1,2,0],[3,0],[0]]",4,"[[1,2,0],[3,0],[0]]",13,0,,,,,,4,,,,,,,,,
,,,,,poldrack-single-stim,243,542071,0.0-2.0-51.0,63f52af01929360880074598,D2,batch4,,-1,tol_feedback,,,TRUE,,1000,1000,500,,,,,,-1,none,TRUE,4667,6976,,,,,,,,,,
,,,,,html-button-response,244,543034,0.0-2.0-52.0,63f52af01929360880074598,D2,batch4,,960.1000000238420,tol_trial_num,<div class = centerbox><p class = center-block-text>problem <strong>15</strong> out of 25 problems</p></div>,0,,,,,,,,,,,,,,,,,,,,,,,,,
,,,,,single-stim-button,245,549864,0.0-2.0-53.0-0.0,63f52af01929360880074598,D2,batch4,,6827,tol_tohand,,,,tol_peg_1,6827,6827,0,"[[1,0,0],[3,0],[0]]",1,"[[2,0,0],[3,0],[1]]",14,0,,,,,,3,,,,,,,,,
,,,,,single-stim-button,246,550638,0.0-2.0-53.0-1.0,63f52af01929360880074598,D2,batch4,,773,tol_toboard,,,,tol_peg_2,773,773,0,"[[1,0,0],[3,2],[0]]",1,"[[2,0,0],[3,0],[1]]",14,0,,,,,,3,,,,,,,,,
,,,,,single-stim-button,247,551351,0.0-2.0-53.1-0.1,63f52af01929360880074598,D2,batch4,,711,tol_tohand,,,,tol_peg_1,711,711,0,"[[0,0,0],[3,2],[0]]",2,"[[2,0,0],[3,0],[1]]",14,0,,,,,,3,,,,,,,,,
,,,,,single-stim-button,248,552303,0.0-2.0-53.1-1.1,63f52af01929360880074598,D2,batch4,,951,tol_toboard,,,,tol_peg_3,951,951,0,"[[0,0,0],[3,2],[1]]",2,"[[2,0,0],[3,0],[1]]",14,0,,,,,,3,,,,,,,,,
,,,,,single-stim-button,249,553049,0.0-2.0-53.2-0.2,63f52af01929360880074598,D2,batch4,,743,tol_tohand,,,,tol_peg_2,743,743,0,"[[0,0,0],[3,0],[1]]",3,"[[2,0,0],[3,0],[1]]",14,0,,,,,,3,,,,,,,,,
,,,,,single-stim-button,250,553767,0.0-2.0-53.2-1.2,63f52af01929360880074598,D2,batch4,,716,tol_toboard,,,,tol_peg_1,716,716,0,"[[2,0,0],[3,0],[1]]",3,"[[2,0,0],[3,0],[1]]",14,0,,,,,,3,,,,,,,,,
,,,,,poldrack-single-stim,251,554769,0.0-2.0-54.0,63f52af01929360880074598,D2,batch4,,-1,tol_feedback,,,TRUE,,1000,1000,500,,,,,,-1,none,TRUE,6827,8281,,,,,,,,,,
,,,,,html-button-response,252,555695,0.0-2.0-55.0,63f52af01929360880074598,D2,batch4,,923.7000000476840,tol_trial_num,<div class = centerbox><p class = center-block-text>problem <strong>16</strong> out of 25 problems</p></div>,0,,,,,,,,,,,,,,,,,,,,,,,,,
,,,,,single-stim-button,253,589385,0.0-2.0-56.0-0.0,63f52af01929360880074598,D2,batch4,,33688,tol_tohand,,,,tol_peg_3,33688,33688,0,"[[0,0,0],[2,3],[0]]",1,"[[2,3,0],[1,0],[0]]",15,0,,,,,,7,,,,,,,,,
,,,,,single-stim-button,254,590625,0.0-2.0-56.0-1.0,63f52af01929360880074598,D2,batch4,,1238,tol_toboard,,,,tol_peg_1,1238,1238,0,"[[1,0,0],[2,3],[0]]",1,"[[2,3,0],[1,0],[0]]",15,0,,,,,,7,,,,,,,,,
,,,,,single-stim-button,255,591413,0.0-2.0-56.1-0.1,63f52af01929360880074598,D2,batch4,,786,tol_tohand,,,,tol_peg_2,786,786,0,"[[1,0,0],[2,0],[0]]",2,"[[2,3,0],[1,0],[0]]",15,0,,,,,,7,,,,,,,,,
,,,,,single-stim-button,256,592815,0.0-2.0-56.1-1.1,63f52af01929360880074598,D2,batch4,,1401,tol_toboard,,,,tol_peg_3,1401,1401,0,"[[1,0,0],[2,0],[3]]",2,"[[2,3,0],[1,0],[0]]",15,0,,,,,,7,,,,,,,,,
,,,,,single-stim-button,257,607763,0.0-2.0-56.2-0.2,63f52af01929360880074598,D2,batch4,,14947,tol_tohand,,,,tol_peg_3,14947,14947,0,"[[1,0,0],[2,0],[0]]",3,"[[2,3,0],[1,0],[0]]",15,0,,,,,,7,,,,,,,,,
,,,,,single-stim-button,258,613843,0.0-2.0-56.2-1.2,63f52af01929360880074598,D2,batch4,,6079,tol_toboard,,,,tol_peg_2,6079,6079,0,"[[1,0,0],[2,3],[0]]",3,"[[2,3,0],[1,0],[0]]",15,0,,,,,,7,,,,,,,,,
,,,,,single-stim-button,259,614812,0.0-2.0-56.3-0.3,63f52af01929360880074598,D2,batch4,,967,tol_tohand,,,,tol_peg_1,967,967,0,"[[0,0,0],[2,3],[0]]",4,"[[2,3,0],[1,0],[0]]",15,0,,,,,,7,,,,,,,,,
,,,,,single-stim-button,260,616120,0.0-2.0-56.3-1.3,63f52af01929360880074598,D2,batch4,,1306,tol_toboard,,,,tol_peg_3,1306,1306,0,"[[0,0,0],[2,3],[1]]",4,"[[2,3,0],[1,0],[0]]",15,0,,,,,,7,,,,,,,,,
,,,,,single-stim-button,261,618398,0.0-2.0-56.4-0.4,63f52af01929360880074598,D2,batch4,,2276,tol_tohand,,,,tol_peg_2,2276,2276,0,"[[0,0,0],[2,0],[1]]",5,"[[2,3,0],[1,0],[0]]",15,0,,,,,,7,,,,,,,,,
,,,,,single-stim-button,262,619604,0.0-2.0-56.4-1.4,63f52af01929360880074598,D2,batch4,,1204,tol_toboard,,,,tol_peg_1,1204,1204,0,"[[3,0,0],[2,0],[1]]",5,"[[2,3,0],[1,0],[0]]",15,0,,,,,,7,,,,,,,,,
,,,,,single-stim-button,263,621998,0.0-2.0-56.5-0.5,63f52af01929360880074598,D2,batch4,,2393,tol_tohand,,,,tol_peg_3,2393,2393,0,"[[3,0,0],[2,0],[0]]",6,"[[2,3,0],[1,0],[0]]",15,0,,,,,,7,,,,,,,,,
,,,,,single-stim-button,264,623305,0.0-2.0-56.5-1.5,63f52af01929360880074598,D2,batch4,,1306,tol_toboard,,,,tol_peg_1,1306,1306,0,"[[3,1,0],[2,0],[0]]",6,"[[2,3,0],[1,0],[0]]",15,0,,,,,,7,,,,,,,,,
,,,,,single-stim-button,265,623932,0.0-2.0-56.6-0.6,63f52af01929360880074598,D2,batch4,,625,tol_tohand,,,,tol_peg_2,625,625,0,"[[3,1,0],[0,0],[0]]",7,"[[2,3,0],[1,0],[0]]",15,0,,,,,,7,,,,,,,,,
,,,,,single-stim-button,266,624721,0.0-2.0-56.6-1.6,63f52af01929360880074598,D2,batch4,,789,tol_toboard,,,,tol_peg_3,789,789,0,"[[3,1,0],[0,0],[2]]",7,"[[2,3,0],[1,0],[0]]",15,0,,,,,,7,,,,,,,,,
,,,,,single-stim-button,267,625681,0.0-2.0-56.7-0.7,63f52af01929360880074598,D2,batch4,,959,tol_tohand,,,,tol_peg_1,959,959,0,"[[3,0,0],[0,0],[2]]",8,"[[2,3,0],[1,0],[0]]",15,0,,,,,,7,,,,,,,,,
,,,,,single-stim-button,268,627385,0.0-2.0-56.7-1.7,63f52af01929360880074598,D2,batch4,,1703,tol_toboard,,,,tol_peg_2,1703,1703,0,"[[3,0,0],[1,0],[2]]",8,"[[2,3,0],[1,0],[0]]",15,0,,,,,,7,,,,,,,,,
,,,,,single-stim-button,269,628060,0.0-2.0-56.8-0.8,63f52af01929360880074598,D2,batch4,,673,tol_tohand,,,,tol_peg_1,673,673,0,"[[0,0,0],[1,0],[2]]",9,"[[2,3,0],[1,0],[0]]",15,0,,,,,,7,,,,,,,,,
,,,,,single-stim-button,270,628679,0.0-2.0-56.8-1.8,63f52af01929360880074598,D2,batch4,,617,tol_toboard,,,,tol_peg_2,617,617,0,"[[0,0,0],[1,3],[2]]",9,"[[2,3,0],[1,0],[0]]",15,0,,,,,,7,,,,,,,,,
,,,,,single-stim-button,271,629260,0.0-2.0-56.9-0.9,63f52af01929360880074598,D2,batch4,,579,tol_tohand,,,,tol_peg_3,579,579,0,"[[0,0,0],[1,3],[0]]",10,"[[2,3,0],[1,0],[0]]",15,0,,,,,,7,,,,,,,,,
,,,,,single-stim-button,272,630055,0.0-2.0-56.9-1.9,63f52af01929360880074598,D2,batch4,,792,tol_toboard,,,,tol_peg_1,792,792,0,"[[2,0,0],[1,3],[0]]",10,"[[2,3,0],[1,0],[0]]",15,0,,,,,,7,,,,,,,,,
,,,,,single-stim-button,273,630808,0.0-2.0-56.10-0.10,63f52af01929360880074598,D2,batch4,,751,tol_tohand,,,,tol_peg_2,751,751,0,"[[2,0,0],[1,0],[0]]",11,"[[2,3,0],[1,0],[0]]",15,0,,,,,,7,,,,,,,,,
,,,,,single-stim-button,274,631465,0.0-2.0-56.10-1.10,63f52af01929360880074598,D2,batch4,,657,tol_toboard,,,,tol_peg_1,657,657,0,"[[2,3,0],[1,0],[0]]",11,"[[2,3,0],[1,0],[0]]",15,0,,,,,,7,,,,,,,,,
,,,,,poldrack-single-stim,275,632471,0.0-2.0-57.0,63f52af01929360880074598,D2,batch4,,-1,tol_feedback,,,TRUE,,1000,1000,500,,,,,,-1,none,TRUE,33688,58644,,,,,,,,,,
,,,,,html-button-response,276,633858,0.0-2.0-58.0,63f52af01929360880074598,D2,batch4,,1384.2000000476800,tol_trial_num,<div class = centerbox><p class = center-block-text>problem <strong>17</strong> out of 25 problems</p></div>,0,,,,,,,,,,,,,,,,,,,,,,,,,
,,,,,single-stim-button,277,644220,0.0-2.0-59.0-0.0,63f52af01929360880074598,D2,batch4,,10360,tol_tohand,,,,tol_peg_1,10360,10360,0,"[[1,0,0],[3,0],[0]]",1,"[[3,1,0],[2,0],[0]]",16,0,,,,,,5,,,,,,,,,
,,,,,single-stim-button,278,646674,0.0-2.0-59.0-1.0,63f52af01929360880074598,D2,batch4,,2452,tol_toboard,,,,tol_peg_2,2452,2452,0,"[[1,0,0],[3,2],[0]]",1,"[[3,1,0],[2,0],[0]]",16,0,,,,,,5,,,,,,,,,
,,,,,single-stim-button,279,647625,0.0-2.0-59.1-0.1,63f52af01929360880074598,D2,batch4,,950,tol_tohand,,,,tol_peg_1,950,950,0,"[[0,0,0],[3,2],[0]]",2,"[[3,1,0],[2,0],[0]]",16,0,,,,,,5,,,,,,,,,
,,,,,single-stim-button,280,650777,0.0-2.0-59.1-1.1,63f52af01929360880074598,D2,batch4,,3151,tol_toboard,,,,tol_peg_3,3151,3151,0,"[[0,0,0],[3,2],[1]]",2,"[[3,1,0],[2,0],[0]]",16,0,,,,,,5,,,,,,,,,
,,,,,single-stim-button,281,651815,0.0-2.0-59.2-0.2,63f52af01929360880074598,D2,batch4,,1037,tol_tohand,,,,tol_peg_2,1037,1037,0,"[[0,0,0],[3,0],[1]]",3,"[[3,1,0],[2,0],[0]]",16,0,,,,,,5,,,,,,,,,
,,,,,single-stim-button,282,653264,0.0-2.0-59.2-1.2,63f52af01929360880074598,D2,batch4,,1447,tol_toboard,,,,tol_peg_1,1447,1447,0,"[[2,0,0],[3,0],[1]]",3,"[[3,1,0],[2,0],[0]]",16,0,,,,,,5,,,,,,,,,
,,,,,single-stim-button,283,657235,0.0-2.0-59.3-0.3,63f52af01929360880074598,D2,batch4,,3970,tol_tohand,,,,tol_peg_2,3970,3970,0,"[[2,0,0],[0,0],[1]]",4,"[[3,1,0],[2,0],[0]]",16,0,,,,,,5,,,,,,,,,
,,,,,single-stim-button,284,658964,0.0-2.0-59.3-1.3,63f52af01929360880074598,D2,batch4,,1727,tol_toboard,,,,tol_peg_1,1727,1727,0,"[[2,3,0],[0,0],[1]]",4,"[[3,1,0],[2,0],[0]]",16,0,,,,,,5,,,,,,,,,
,,,,,single-stim-button,285,659840,0.0-2.0-59.4-0.4,63f52af01929360880074598,D2,batch4,,874,tol_tohand,,,,tol_peg_3,874,874,0,"[[2,3,0],[0,0],[0]]",5,"[[3,1,0],[2,0],[0]]",16,0,,,,,,5,,,,,,,,,
,,,,,single-stim-button,286,660595,0.0-2.0-59.4-1.4,63f52af01929360880074598,D2,batch4,,755,tol_toboard,,,,tol_peg_2,755,755,0,"[[2,3,0],[1,0],[0]]",5,"[[3,1,0],[2,0],[0]]",16,0,,,,,,5,,,,,,,,,
,,,,,single-stim-button,287,661240,0.0-2.0-59.5-0.5,63f52af01929360880074598,D2,batch4,,643,tol_tohand,,,,tol_peg_1,643,643,0,"[[2,0,0],[1,0],[0]]",6,"[[3,1,0],[2,0],[0]]",16,0,,,,,,5,,,,,,,,,
,,,,,single-stim-button,288,662192,0.0-2.0-59.5-1.5,63f52af01929360880074598,D2,batch4,,950,tol_toboard,,,,tol_peg_3,950,950,0,"[[2,0,0],[1,0],[3]]",6,"[[3,1,0],[2,0],[0]]",16,0,,,,,,5,,,,,,,,,
,,,,,single-stim-button,289,663292,0.0-2.0-59.6-0.6,63f52af01929360880074598,D2,batch4,,1099,tol_tohand,,,,tol_peg_1,1099,1099,0,"[[0,0,0],[1,0],[3]]",7,"[[3,1,0],[2,0],[0]]",16,0,,,,,,5,,,,,,,,,
,,,,,single-stim-button,290,663988,0.0-2.0-59.6-1.6,63f52af01929360880074598,D2,batch4,,694,tol_toboard,,,,tol_peg_2,694,694,0,"[[0,0,0],[1,2],[3]]",7,"[[3,1,0],[2,0],[0]]",16,0,,,,,,5,,,,,,,,,
,,,,,single-stim-button,291,664625,0.0-2.0-59.7-0.7,63f52af01929360880074598,D2,batch4,,635,tol_tohand,,,,tol_peg_3,635,635,0,"[[0,0,0],[1,2],[0]]",8,"[[3,1,0],[2,0],[0]]",16,0,,,,,,5,,,,,,,,,
,,,,,single-stim-button,292,665721,0.0-2.0-59.7-1.7,63f52af01929360880074598,D2,batch4,,1096,tol_toboard,,,,tol_peg_1,1096,1096,0,"[[3,0,0],[1,2],[0]]",8,"[[3,1,0],[2,0],[0]]",16,0,,,,,,5,,,,,,,,,
,,,,,single-stim-button,293,667659,0.0-2.0-59.8-0.8,63f52af01929360880074598,D2,batch4,,1936,tol_tohand,,,,tol_peg_2,1936,1936,0,"[[3,0,0],[1,0],[0]]",9,"[[3,1,0],[2,0],[0]]",16,0,,,,,,5,,,,,,,,,
,,,,,single-stim-button,294,668403,0.0-2.0-59.8-1.8,63f52af01929360880074598,D2,batch4,,743,tol_toboard,,,,tol_peg_3,743,743,0,"[[3,0,0],[1,0],[2]]",9,"[[3,1,0],[2,0],[0]]",16,0,,,,,,5,,,,,,,,,
,,,,,single-stim-button,295,668982,0.0-2.0-59.9-0.9,63f52af01929360880074598,D2,batch4,,577,tol_tohand,,,,tol_peg_2,577,577,0,"[[3,0,0],[0,0],[2]]",10,"[[3,1,0],[2,0],[0]]",16,0,,,,,,5,,,,,,,,,
,,,,,single-stim-button,296,669842,0.0-2.0-59.9-1.9,63f52af01929360880074598,D2,batch4,,859,tol_toboard,,,,tol_peg_1,859,859,0,"[[3,1,0],[0,0],[2]]",10,"[[3,1,0],[2,0],[0]]",16,0,,,,,,5,,,,,,,,,
,,,,,single-stim-button,297,670546,0.0-2.0-59.10-0.10,63f52af01929360880074598,D2,batch4,,702,tol_tohand,,,,tol_peg_3,702,702,0,"[[3,1,0],[0,0],[0]]",11,"[[3,1,0],[2,0],[0]]",16,0,,,,,,5,,,,,,,,,
,,,,,single-stim-button,298,671460,0.0-2.0-59.10-1.10,63f52af01929360880074598,D2,batch4,,912,tol_toboard,,,,tol_peg_2,912,912,0,"[[3,1,0],[2,0],[0]]",11,"[[3,1,0],[2,0],[0]]",16,0,,,,,,5,,,,,,,,,
,,,,,poldrack-single-stim,299,672470,0.0-2.0-60.0,63f52af01929360880074598,D2,batch4,,-1,tol_feedback,,,TRUE,,1000,1000,500,,,,,,-1,none,TRUE,10360,22783,,,,,,,,,,
,,,,,html-button-response,300,676485,0.0-2.0-61.0,63f52af01929360880074598,D2,batch4,,4013.2000000476800,tol_trial_num,<div class = centerbox><p class = center-block-text>problem <strong>18</strong> out of 25 problems</p></div>,0,,,,,,,,,,,,,,,,,,,,,,,,,
,,,,,single-stim-button,301,689403,0.0-2.0-62.0-0.0,63f52af01929360880074598,D2,batch4,,12917,tol_tohand,,,,tol_peg_2,12917,12917,0,"[[1,2,0],[0,0],[0]]",1,"[[3,0,0],[2,0],[1]]",17,0,,,,,,5,,,,,,,,,
,,,,,single-stim-button,302,690309,0.0-2.0-62.0-1.0,63f52af01929360880074598,D2,batch4,,904,tol_toboard,,,,tol_peg_3,904,904,0,"[[1,2,0],[0,0],[3]]",1,"[[3,0,0],[2,0],[1]]",17,0,,,,,,5,,,,,,,,,
,,,,,single-stim-button,303,691137,0.0-2.0-62.1-0.1,63f52af01929360880074598,D2,batch4,,828,tol_tohand,,,,tol_peg_1,828,828,0,"[[1,0,0],[0,0],[3]]",2,"[[3,0,0],[2,0],[1]]",17,0,,,,,,5,,,,,,,,,
,,,,,single-stim-button,304,691913,0.0-2.0-62.1-1.1,63f52af01929360880074598,D2,batch4,,774,tol_toboard,,,,tol_peg_2,774,774,0,"[[1,0,0],[2,0],[3]]",2,"[[3,0,0],[2,0],[1]]",17,0,,,,,,5,,,,,,,,,
,,,,,single-stim-button,305,694110,0.0-2.0-62.2-0.2,63f52af01929360880074598,D2,batch4,,2194,tol_tohand,,,,tol_peg_1,2194,2194,0,"[[0,0,0],[2,0],[3]]",3,"[[3,0,0],[2,0],[1]]",17,0,,,,,,5,,,,,,,,,
,,,,,single-stim-button,306,694985,0.0-2.0-62.2-1.2,63f52af01929360880074598,D2,batch4,,874,tol_toboard,,,,tol_peg_2,874,874,0,"[[0,0,0],[2,1],[3]]",3,"[[3,0,0],[2,0],[1]]",17,0,,,,,,5,,,,,,,,,
,,,,,single-stim-button,307,695668,0.0-2.0-62.3-0.3,63f52af01929360880074598,D2,batch4,,681,tol_tohand,,,,tol_peg_3,681,681,0,"[[0,0,0],[2,1],[0]]",4,"[[3,0,0],[2,0],[1]]",17,0,,,,,,5,,,,,,,,,
,,,,,single-stim-button,308,696463,0.0-2.0-62.3-1.3,63f52af01929360880074598,D2,batch4,,794,tol_toboard,,,,tol_peg_1,794,794,0,"[[3,0,0],[2,1],[0]]",4,"[[3,0,0],[2,0],[1]]",17,0,,,,,,5,,,,,,,,,
,,,,,single-stim-button,309,697465,0.0-2.0-62.4-0.4,63f52af01929360880074598,D2,batch4,,1000,tol_tohand,,,,tol_peg_2,1000,1000,0,"[[3,0,0],[2,0],[0]]",5,"[[3,0,0],[2,0],[1]]",17,0,,,,,,5,,,,,,,,,
,,,,,single-stim-button,310,698191,0.0-2.0-62.4-1.4,63f52af01929360880074598,D2,batch4,,724,tol_toboard,,,,tol_peg_3,724,724,0,"[[3,0,0],[2,0],[1]]",5,"[[3,0,0],[2,0],[1]]",17,0,,,,,,5,,,,,,,,,
,,,,,poldrack-single-stim,311,699206,0.0-2.0-63.0,63f52af01929360880074598,D2,batch4,,-1,tol_feedback,,,TRUE,,1000,1000,500,,,,,,-1,none,TRUE,12917,17620,,,,,,,,,,
,,,,,html-button-response,312,700243,0.0-2.0-64.0,63f52af01929360880074598,D2,batch4,,1034.6000000238400,tol_trial_num,<div class = centerbox><p class = center-block-text>problem <strong>19</strong> out of 25 problems</p></div>,0,,,,,,,,,,,,,,,,,,,,,,,,,
,,,,,single-stim-button,313,737282,0.0-2.0-65.0-0.0,63f52af01929360880074598,D2,batch4,,37036,tol_tohand,,,,tol_peg_1,37036,37036,0,"[[1,0,0],[3,0],[0]]",1,"[[0,0,0],[1,2],[3]]",18,0,,,,,,7,,,,,,,,,
,,,,,single-stim-button,314,741805,0.0-2.0-65.0-1.0,63f52af01929360880074598,D2,batch4,,4522,tol_toboard,,,,tol_peg_2,4522,4522,0,"[[1,0,0],[3,2],[0]]",1,"[[0,0,0],[1,2],[3]]",18,0,,,,,,7,,,,,,,,,
,,,,,single-stim-button,315,742898,0.0-2.0-65.1-0.1,63f52af01929360880074598,D2,batch4,,1091,tol_tohand,,,,tol_peg_1,1091,1091,0,"[[0,0,0],[3,2],[0]]",2,"[[0,0,0],[1,2],[3]]",18,0,,,,,,7,,,,,,,,,
,,,,,single-stim-button,316,744128,0.0-2.0-65.1-1.1,63f52af01929360880074598,D2,batch4,,1229,tol_toboard,,,,tol_peg_3,1229,1229,0,"[[0,0,0],[3,2],[1]]",2,"[[0,0,0],[1,2],[3]]",18,0,,,,,,7,,,,,,,,,
,,,,,single-stim-button,317,747527,0.0-2.0-65.2-0.2,63f52af01929360880074598,D2,batch4,,3396,tol_tohand,,,,tol_peg_2,3396,3396,0,"[[0,0,0],[3,0],[1]]",3,"[[0,0,0],[1,2],[3]]",18,0,,,,,,7,,,,,,,,,
,,,,,single-stim-button,318,748536,0.0-2.0-65.2-1.2,63f52af01929360880074598,D2,batch4,,1005,tol_toboard,,,,tol_peg_1,1005,1005,0,"[[2,0,0],[3,0],[1]]",3,"[[0,0,0],[1,2],[3]]",18,0,,,,,,7,,,,,,,,,
,,,,,single-stim-button,319,749248,0.0-2.0-65.3-0.3,63f52af01929360880074598,D2,batch4,,710,tol_tohand,,,,tol_peg_2,710,710,0,"[[2,0,0],[0,0],[1]]",4,"[[0,0,0],[1,2],[3]]",18,0,,,,,,7,,,,,,,,,
,,,,,single-stim-button,320,750084,0.0-2.0-65.3-1.3,63f52af01929360880074598,D2,batch4,,834,tol_toboard,,,,tol_peg_1,834,834,0,"[[2,3,0],[0,0],[1]]",4,"[[0,0,0],[1,2],[3]]",18,0,,,,,,7,,,,,,,,,
,,,,,single-stim-button,321,750851,0.0-2.0-65.4-0.4,63f52af01929360880074598,D2,batch4,,766,tol_tohand,,,,tol_peg_3,766,766,0,"[[2,3,0],[0,0],[0]]",5,"[[0,0,0],[1,2],[3]]",18,0,,,,,,7,,,,,,,,,
,,,,,single-stim-button,322,753337,0.0-2.0-65.4-1.4,63f52af01929360880074598,D2,batch4,,2485,tol_toboard,,,,tol_peg_2,2485,2485,0,"[[2,3,0],[1,0],[0]]",5,"[[0,0,0],[1,2],[3]]",18,0,,,,,,7,,,,,,,,,
,,,,,single-stim-button,323,757023,0.0-2.0-65.5-0.5,63f52af01929360880074598,D2,batch4,,3685,tol_tohand,,,,tol_peg_1,3685,3685,0,"[[2,0,0],[1,0],[0]]",6,"[[0,0,0],[1,2],[3]]",18,0,,,,,,7,,,,,,,,,
,,,,,single-stim-button,324,757829,0.0-2.0-65.5-1.5,63f52af01929360880074598,D2,batch4,,805,tol_toboard,,,,tol_peg_3,805,805,0,"[[2,0,0],[1,0],[3]]",6,"[[0,0,0],[1,2],[3]]",18,0,,,,,,7,,,,,,,,,
,,,,,single-stim-button,325,758643,0.0-2.0-65.6-0.6,63f52af01929360880074598,D2,batch4,,811,tol_tohand,,,,tol_peg_1,811,811,0,"[[0,0,0],[1,0],[3]]",7,"[[0,0,0],[1,2],[3]]",18,0,,,,,,7,,,,,,,,,
,,,,,single-stim-button,326,759370,0.0-2.0-65.6-1.6,63f52af01929360880074598,D2,batch4,,725,tol_toboard,,,,tol_peg_2,725,725,0,"[[0,0,0],[1,2],[3]]",7,"[[0,0,0],[1,2],[3]]",18,0,,,,,,7,,,,,,,,,
,,,,,poldrack-single-stim,327,760378,0.0-2.0-66.0,63f52af01929360880074598,D2,batch4,,-1,tol_feedback,,,TRUE,,1000,1000,500,,,,,,-1,none,TRUE,37036,47495,,,,,,,,,,
,,,,,html-button-response,328,761329,0.0-2.0-67.0,63f52af01929360880074598,D2,batch4,,949.3999999761580,tol_trial_num,<div class = centerbox><p class = center-block-text>problem <strong>20</strong> out of 25 problems</p></div>,0,,,,,,,,,,,,,,,,,,,,,,,,,
,,,,,single-stim-button,329,771408,0.0-2.0-68.0-0.0,63f52af01929360880074598,D2,batch4,,10076,tol_tohand,,,,tol_peg_1,10076,10076,0,"[[1,0,0],[3,0],[0]]",1,"[[2,1,0],[0,0],[3]]",19,0,,,,,,5,,,,,,,,,
,,,,,single-stim-button,330,772451,0.0-2.0-68.0-1.0,63f52af01929360880074598,D2,batch4,,1043,tol_toboard,,,,tol_peg_2,1043,1043,0,"[[1,0,0],[3,2],[0]]",1,"[[2,1,0],[0,0],[3]]",19,0,,,,,,5,,,,,,,,,
,,,,,single-stim-button,331,773349,0.0-2.0-68.1-0.1,63f52af01929360880074598,D2,batch4,,897,tol_tohand,,,,tol_peg_1,897,897,0,"[[0,0,0],[3,2],[0]]",2,"[[2,1,0],[0,0],[3]]",19,0,,,,,,5,,,,,,,,,
,,,,,single-stim-button,332,774169,0.0-2.0-68.1-1.1,63f52af01929360880074598,D2,batch4,,819,tol_toboard,,,,tol_peg_3,819,819,0,"[[0,0,0],[3,2],[1]]",2,"[[2,1,0],[0,0],[3]]",19,0,,,,,,5,,,,,,,,,
,,,,,single-stim-button,333,774976,0.0-2.0-68.2-0.2,63f52af01929360880074598,D2,batch4,,806,tol_tohand,,,,tol_peg_2,806,806,0,"[[0,0,0],[3,0],[1]]",3,"[[2,1,0],[0,0],[3]]",19,0,,,,,,5,,,,,,,,,
,,,,,single-stim-button,334,775765,0.0-2.0-68.2-1.2,63f52af01929360880074598,D2,batch4,,788,tol_toboard,,,,tol_peg_1,788,788,0,"[[2,0,0],[3,0],[1]]",3,"[[2,1,0],[0,0],[3]]",19,0,,,,,,5,,,,,,,,,
,,,,,single-stim-button,335,776499,0.0-2.0-68.3-0.3,63f52af01929360880074598,D2,batch4,,733,tol_tohand,,,,tol_peg_3,733,733,0,"[[2,0,0],[3,0],[0]]",4,"[[2,1,0],[0,0],[3]]",19,0,,,,,,5,,,,,,,,,
,,,,,single-stim-button,336,777252,0.0-2.0-68.3-1.3,63f52af01929360880074598,D2,batch4,,752,tol_toboard,,,,tol_peg_1,752,752,0,"[[2,1,0],[3,0],[0]]",4,"[[2,1,0],[0,0],[3]]",19,0,,,,,,5,,,,,,,,,
,,,,,single-stim-button,337,778490,0.0-2.0-68.4-0.4,63f52af01929360880074598,D2,batch4,,1237,tol_tohand,,,,tol_peg_2,1237,1237,0,"[[2,1,0],[0,0],[0]]",5,"[[2,1,0],[0,0],[3]]",19,0,,,,,,5,,,,,,,,,
,,,,,single-stim-button,338,779304,0.0-2.0-68.4-1.4,63f52af01929360880074598,D2,batch4,,812,tol_toboard,,,,tol_peg_3,812,812,0,"[[2,1,0],[0,0],[3]]",5,"[[2,1,0],[0,0],[3]]",19,0,,,,,,5,,,,,,,,,
,,,,,poldrack-single-stim,339,780320,0.0-2.0-69.0,63f52af01929360880074598,D2,batch4,,-1,tol_feedback,,,TRUE,,1000,1000,500,,,,,,-1,none,TRUE,10076,13749,,,,,,,,,,
,,,,,html-button-response,340,781372,0.0-2.0-70.0,63f52af01929360880074598,D2,batch4,,1050.6000000238400,tol_trial_num,<div class = centerbox><p class = center-block-text>problem <strong>21</strong> out of 25 problems</p></div>,0,,,,,,,,,,,,,,,,,,,,,,,,,
,,,,,single-stim-button,341,788163,0.0-2.0-71.0-0.0,63f52af01929360880074598,D2,batch4,,6790,tol_tohand,,,,tol_peg_1,6790,6790,0,"[[1,0,0],[3,0],[0]]",1,"[[3,2,0],[0,0],[1]]",20,0,,,,,,6,,,,,,,,,
,,,,,single-stim-button,342,788945,0.0-2.0-71.0-1.0,63f52af01929360880074598,D2,batch4,,781,tol_toboard,,,,tol_peg_2,781,781,0,"[[1,0,0],[3,2],[0]]",1,"[[3,2,0],[0,0],[1]]",20,0,,,,,,6,,,,,,,,,
,,,,,single-stim-button,343,790068,0.0-2.0-71.1-0.1,63f52af01929360880074598,D2,batch4,,1121,tol_tohand,,,,tol_peg_1,1121,1121,0,"[[0,0,0],[3,2],[0]]",2,"[[3,2,0],[0,0],[1]]",20,0,,,,,,6,,,,,,,,,
,,,,,single-stim-button,344,795606,0.0-2.0-71.1-1.1,63f52af01929360880074598,D2,batch4,,5537,tol_toboard,,,,tol_peg_3,5537,5537,0,"[[0,0,0],[3,2],[1]]",2,"[[3,2,0],[0,0],[1]]",20,0,,,,,,6,,,,,,,,,
,,,,,single-stim-button,345,801607,0.0-2.0-71.2-0.2,63f52af01929360880074598,D2,batch4,,5999,tol_tohand,,,,tol_peg_2,5999,5999,0,"[[0,0,0],[3,0],[1]]",3,"[[3,2,0],[0,0],[1]]",20,0,,,,,,6,,,,,,,,,
,,,,,single-stim-button,346,802651,0.0-2.0-71.2-1.2,63f52af01929360880074598,D2,batch4,,1042,tol_toboard,,,,tol_peg_1,1042,1042,0,"[[2,0,0],[3,0],[1]]",3,"[[3,2,0],[0,0],[1]]",20,0,,,,,,6,,,,,,,,,
,,,,,single-stim-button,347,804087,0.0-2.0-71.3-0.3,63f52af01929360880074598,D2,batch4,,1435,tol_tohand,,,,tol_peg_2,1435,1435,0,"[[2,0,0],[0,0],[1]]",4,"[[3,2,0],[0,0],[1]]",20,0,,,,,,6,,,,,,,,,
,,,,,single-stim-button,348,804579,0.0-2.0-71.3-1.3,63f52af01929360880074598,D2,batch4,,491,tol_toboard,,,,tol_peg_1,491,491,0,"[[2,3,0],[0,0],[1]]",4,"[[3,2,0],[0,0],[1]]",20,0,,,,,,6,,,,,,,,,
,,,,,single-stim-button,349,805379,0.0-2.0-71.4-0.4,63f52af01929360880074598,D2,batch4,,798,tol_tohand,,,,tol_peg_3,798,798,0,"[[2,3,0],[0,0],[0]]",5,"[[3,2,0],[0,0],[1]]",20,0,,,,,,6,,,,,,,,,
,,,,,single-stim-button,350,806121,0.0-2.0-71.4-1.4,63f52af01929360880074598,D2,batch4,,740,tol_toboard,,,,tol_peg_2,740,740,0,"[[2,3,0],[1,0],[0]]",5,"[[3,2,0],[0,0],[1]]",20,0,,,,,,6,,,,,,,,,
,,,,,single-stim-button,351,807073,0.0-2.0-71.5-0.5,63f52af01929360880074598,D2,batch4,,951,tol_tohand,,,,tol_peg_1,951,951,0,"[[2,0,0],[1,0],[0]]",6,"[[3,2,0],[0,0],[1]]",20,0,,,,,,6,,,,,,,,,
,,,,,single-stim-button,352,807988,0.0-2.0-71.5-1.5,63f52af01929360880074598,D2,batch4,,914,tol_toboard,,,,tol_peg_3,914,914,0,"[[2,0,0],[1,0],[3]]",6,"[[3,2,0],[0,0],[1]]",20,0,,,,,,6,,,,,,,,,
,,,,,single-stim-button,353,808699,0.0-2.0-71.6-0.6,63f52af01929360880074598,D2,batch4,,709,tol_tohand,,,,tol_peg_1,709,709,0,"[[0,0,0],[1,0],[3]]",7,"[[3,2,0],[0,0],[1]]",20,0,,,,,,6,,,,,,,,,
,,,,,single-stim-button,354,809684,0.0-2.0-71.6-1.6,63f52af01929360880074598,D2,batch4,,984,tol_toboard,,,,tol_peg_2,984,984,0,"[[0,0,0],[1,2],[3]]",7,"[[3,2,0],[0,0],[1]]",20,0,,,,,,6,,,,,,,,,
,,,,,single-stim-button,355,810589,0.0-2.0-71.7-0.7,63f52af01929360880074598,D2,batch4,,905,tol_tohand,,,,tol_peg_3,905,905,0,"[[0,0,0],[1,2],[0]]",8,"[[3,2,0],[0,0],[1]]",20,0,,,,,,6,,,,,,,,,
,,,,,single-stim-button,356,812696,0.0-2.0-71.7-1.7,63f52af01929360880074598,D2,batch4,,2105,tol_toboard,,,,tol_peg_1,2105,2105,0,"[[3,0,0],[1,2],[0]]",8,"[[3,2,0],[0,0],[1]]",20,0,,,,,,6,,,,,,,,,
,,,,,single-stim-button,357,813933,0.0-2.0-71.8-0.8,63f52af01929360880074598,D2,batch4,,1236,tol_tohand,,,,tol_peg_2,1236,1236,0,"[[3,0,0],[1,0],[0]]",9,"[[3,2,0],[0,0],[1]]",20,0,,,,,,6,,,,,,,,,
,,,,,single-stim-button,358,815087,0.0-2.0-71.8-1.8,63f52af01929360880074598,D2,batch4,,1152,tol_toboard,,,,tol_peg_1,1152,1152,0,"[[3,2,0],[1,0],[0]]",9,"[[3,2,0],[0,0],[1]]",20,0,,,,,,6,,,,,,,,,
,,,,,single-stim-button,359,816419,0.0-2.0-71.9-0.9,63f52af01929360880074598,D2,batch4,,1331,tol_tohand,,,,tol_peg_2,1331,1331,0,"[[3,2,0],[0,0],[0]]",10,"[[3,2,0],[0,0],[1]]",20,0,,,,,,6,,,,,,,,,
,,,,,single-stim-button,360,817511,0.0-2.0-71.9-1.9,63f52af01929360880074598,D2,batch4,,1091,tol_toboard,,,,tol_peg_3,1091,1091,0,"[[3,2,0],[0,0],[1]]",10,"[[3,2,0],[0,0],[1]]",20,0,,,,,,6,,,,,,,,,
,,,,,poldrack-single-stim,361,818524,0.0-2.0-72.0,63f52af01929360880074598,D2,batch4,,-1,tol_feedback,,,TRUE,,1000,1000,500,,,,,,-1,none,TRUE,6790,21275,,,,,,,,,,
,,,,,html-button-response,362,819527,0.0-2.0-73.0,63f52af01929360880074598,D2,batch4,,1000.9000000953700,tol_trial_num,<div class = centerbox><p class = center-block-text>problem <strong>22</strong> out of 25 problems</p></div>,0,,,,,,,,,,,,,,,,,,,,,,,,,
,,,,,single-stim-button,363,828525,0.0-2.0-74.0-0.0,63f52af01929360880074598,D2,batch4,,8997,tol_tohand,,,,tol_peg_1,8997,8997,0,"[[0,0,0],[2,3],[0]]",1,"[[0,0,0],[1,2],[3]]",21,0,,,,,,6,,,,,,,,,
,,,,,single-stim-button,364,829577,0.0-2.0-74.0-1.0,63f52af01929360880074598,D2,batch4,,1050,tol_toboard,,,,tol_peg_3,1050,1050,0,"[[0,0,0],[2,3],[1]]",1,"[[0,0,0],[1,2],[3]]",21,0,,,,,,6,,,,,,,,,
,,,,,single-stim-button,365,830475,0.0-2.0-74.1-0.1,63f52af01929360880074598,D2,batch4,,896,tol_tohand,,,,tol_peg_2,896,896,0,"[[0,0,0],[2,0],[1]]",2,"[[0,0,0],[1,2],[3]]",21,0,,,,,,6,,,,,,,,,
,,,,,single-stim-button,366,831713,0.0-2.0-74.1-1.1,63f52af01929360880074598,D2,batch4,,1236,tol_toboard,,,,tol_peg_1,1236,1236,0,"[[3,0,0],[2,0],[1]]",2,"[[0,0,0],[1,2],[3]]",21,0,,,,,,6,,,,,,,,,
,,,,,single-stim-button,367,833248,0.0-2.0-74.2-0.2,63f52af01929360880074598,D2,batch4,,1534,tol_tohand,,,,tol_peg_2,1534,1534,0,"[[3,0,0],[0,0],[1]]",3,"[[0,0,0],[1,2],[3]]",21,0,,,,,,6,,,,,,,,,
,,,,,single-stim-button,368,834229,0.0-2.0-74.2-1.2,63f52af01929360880074598,D2,batch4,,980,tol_toboard,,,,tol_peg_1,980,980,0,"[[3,2,0],[0,0],[1]]",3,"[[0,0,0],[1,2],[3]]",21,0,,,,,,6,,,,,,,,,
,,,,,single-stim-button,369,835020,0.0-2.0-74.3-0.3,63f52af01929360880074598,D2,batch4,,789,tol_tohand,,,,tol_peg_3,789,789,0,"[[3,2,0],[0,0],[0]]",4,"[[0,0,0],[1,2],[3]]",21,0,,,,,,6,,,,,,,,,
,,,,,single-stim-button,370,835785,0.0-2.0-74.3-1.3,63f52af01929360880074598,D2,batch4,,763,tol_toboard,,,,tol_peg_2,763,763,0,"[[3,2,0],[1,0],[0]]",4,"[[0,0,0],[1,2],[3]]",21,0,,,,,,6,,,,,,,,,
,,,,,single-stim-button,371,836475,0.0-2.0-74.4-0.4,63f52af01929360880074598,D2,batch4,,689,tol_tohand,,,,tol_peg_1,689,689,0,"[[3,0,0],[1,0],[0]]",5,"[[0,0,0],[1,2],[3]]",21,0,,,,,,6,,,,,,,,,
,,,,,single-stim-button,372,837110,0.0-2.0-74.4-1.4,63f52af01929360880074598,D2,batch4,,634,tol_toboard,,,,tol_peg_2,634,634,0,"[[3,0,0],[1,2],[0]]",5,"[[0,0,0],[1,2],[3]]",21,0,,,,,,6,,,,,,,,,
,,,,,single-stim-button,373,837771,0.0-2.0-74.5-0.5,63f52af01929360880074598,D2,batch4,,658,tol_tohand,,,,tol_peg_1,658,658,0,"[[0,0,0],[1,2],[0]]",6,"[[0,0,0],[1,2],[3]]",21,0,,,,,,6,,,,,,,,,
,,,,,single-stim-button,374,838549,0.0-2.0-74.5-1.5,63f52af01929360880074598,D2,batch4,,776,tol_toboard,,,,tol_peg_3,776,776,0,"[[0,0,0],[1,2],[3]]",6,"[[0,0,0],[1,2],[3]]",21,0,,,,,,6,,,,,,,,,
,,,,,poldrack-single-stim,375,839557,0.0-2.0-75.0,63f52af01929360880074598,D2,batch4,,-1,tol_feedback,,,TRUE,,1000,1000,500,,,,,,-1,none,TRUE,8997,13563,,,,,,,,,,
,,,,,html-button-response,376,840610,0.0-2.0-76.0,63f52af01929360880074598,D2,batch4,,1051.2000000476800,tol_trial_num,<div class = centerbox><p class = center-block-text>problem <strong>23</strong> out of 25 problems</p></div>,0,,,,,,,,,,,,,,,,,,,,,,,,,
,,,,,single-stim-button,377,844374,0.0-2.0-77.0-0.0,63f52af01929360880074598,D2,batch4,,3762,tol_tohand,,,,tol_peg_1,3762,3762,0,"[[1,0,0],[3,0],[0]]",1,"[[1,3,2],[0,0],[0]]",22,0,,,,,,3,,,,,,,,,
,,,,,single-stim-button,378,845496,0.0-2.0-77.0-1.0,63f52af01929360880074598,D2,batch4,,1120,tol_toboard,,,,tol_peg_3,1120,1120,0,"[[1,0,0],[3,0],[2]]",1,"[[1,3,2],[0,0],[0]]",22,0,,,,,,3,,,,,,,,,
,,,,,single-stim-button,379,846240,0.0-2.0-77.1-0.1,63f52af01929360880074598,D2,batch4,,743,tol_tohand,,,,tol_peg_2,743,743,0,"[[1,0,0],[0,0],[2]]",2,"[[1,3,2],[0,0],[0]]",22,0,,,,,,3,,,,,,,,,
,,,,,single-stim-button,380,846937,0.0-2.0-77.1-1.1,63f52af01929360880074598,D2,batch4,,695,tol_toboard,,,,tol_peg_1,695,695,0,"[[1,3,0],[0,0],[2]]",2,"[[1,3,2],[0,0],[0]]",22,0,,,,,,3,,,,,,,,,
,,,,,single-stim-button,381,847635,0.0-2.0-77.2-0.2,63f52af01929360880074598,D2,batch4,,697,tol_tohand,,,,tol_peg_3,697,697,0,"[[1,3,0],[0,0],[0]]",3,"[[1,3,2],[0,0],[0]]",22,0,,,,,,3,,,,,,,,,
,,,,,single-stim-button,382,848453,0.0-2.0-77.2-1.2,63f52af01929360880074598,D2,batch4,,817,tol_toboard,,,,tol_peg_1,817,817,0,"[[1,3,2],[0,0],[0]]",3,"[[1,3,2],[0,0],[0]]",22,0,,,,,,3,,,,,,,,,
,,,,,poldrack-single-stim,383,849470,0.0-2.0-78.0,63f52af01929360880074598,D2,batch4,,-1,tol_feedback,,,TRUE,,1000,1000,500,,,,,,-1,none,TRUE,3762,5202,,,,,,,,,,
,,,,,html-button-response,384,850724,0.0-2.0-79.0,63f52af01929360880074598,D2,batch4,,1251.7999999523200,tol_trial_num,<div class = centerbox><p class = center-block-text>problem <strong>24</strong> out of 25 problems</p></div>,0,,,,,,,,,,,,,,,,,,,,,,,,,
,,,,,single-stim-button,385,856468,0.0-2.0-80.0-0.0,63f52af01929360880074598,D2,batch4,,5741,tol_tohand,,,,tol_peg_3,5741,5741,0,"[[0,0,0],[2,3],[0]]",1,"[[2,0,0],[3,0],[1]]",23,0,,,,,,7,,,,,,,,,
,,,,,single-stim-button,386,857717,0.0-2.0-80.0-1.0,63f52af01929360880074598,D2,batch4,,1247,tol_toboard,,,,tol_peg_1,1247,1247,0,"[[1,0,0],[2,3],[0]]",1,"[[2,0,0],[3,0],[1]]",23,0,,,,,,7,,,,,,,,,
,,,,,single-stim-button,387,858490,0.0-2.0-80.1-0.1,63f52af01929360880074598,D2,batch4,,771,tol_tohand,,,,tol_peg_2,771,771,0,"[[1,0,0],[2,0],[0]]",2,"[[2,0,0],[3,0],[1]]",23,0,,,,,,7,,,,,,,,,
,,,,,single-stim-button,388,859536,0.0-2.0-80.1-1.1,63f52af01929360880074598,D2,batch4,,1044,tol_toboard,,,,tol_peg_3,1044,1044,0,"[[1,0,0],[2,0],[3]]",2,"[[2,0,0],[3,0],[1]]",23,0,,,,,,7,,,,,,,,,
,,,,,single-stim-button,389,860921,0.0-2.0-80.2-0.2,63f52af01929360880074598,D2,batch4,,1384,tol_tohand,,,,tol_peg_2,1384,1384,0,"[[1,0,0],[0,0],[3]]",3,"[[2,0,0],[3,0],[1]]",23,0,,,,,,7,,,,,,,,,
,,,,,single-stim-button,390,861796,0.0-2.0-80.2-1.2,63f52af01929360880074598,D2,batch4,,873,tol_toboard,,,,tol_peg_1,873,873,0,"[[1,2,0],[0,0],[3]]",3,"[[2,0,0],[3,0],[1]]",23,0,,,,,,7,,,,,,,,,
,,,,,single-stim-button,391,863701,0.0-2.0-80.3-0.3,63f52af01929360880074598,D2,batch4,,1903,tol_tohand,,,,tol_peg_3,1903,1903,0,"[[1,2,0],[0,0],[0]]",4,"[[2,0,0],[3,0],[1]]",23,0,,,,,,7,,,,,,,,,
,,,,,single-stim-button,392,865559,0.0-2.0-80.3-1.3,63f52af01929360880074598,D2,batch4,,1857,tol_toboard,,,,tol_peg_2,1857,1857,0,"[[1,2,0],[3,0],[0]]",4,"[[2,0,0],[3,0],[1]]",23,0,,,,,,7,,,,,,,,,
,,,,,single-stim-button,393,866281,0.0-2.0-80.4-0.4,63f52af01929360880074598,D2,batch4,,720,tol_tohand,,,,tol_peg_1,720,720,0,"[[1,0,0],[3,0],[0]]",5,"[[2,0,0],[3,0],[1]]",23,0,,,,,,7,,,,,,,,,
,,,,,single-stim-button,394,866876,0.0-2.0-80.4-1.4,63f52af01929360880074598,D2,batch4,,593,tol_toboard,,,,tol_peg_2,593,593,0,"[[1,0,0],[3,2],[0]]",5,"[[2,0,0],[3,0],[1]]",23,0,,,,,,7,,,,,,,,,
,,,,,single-stim-button,395,867474,0.0-2.0-80.5-0.5,63f52af01929360880074598,D2,batch4,,596,tol_tohand,,,,tol_peg_1,596,596,0,"[[0,0,0],[3,2],[0]]",6,"[[2,0,0],[3,0],[1]]",23,0,,,,,,7,,,,,,,,,
,,,,,single-stim-button,396,868285,0.0-2.0-80.5-1.5,63f52af01929360880074598,D2,batch4,,809,tol_toboard,,,,tol_peg_3,809,809,0,"[[0,0,0],[3,2],[1]]",6,"[[2,0,0],[3,0],[1]]",23,0,,,,,,7,,,,,,,,,
,,,,,single-stim-button,397,868944,0.0-2.0-80.6-0.6,63f52af01929360880074598,D2,batch4,,657,tol_tohand,,,,tol_peg_2,657,657,0,"[[0,0,0],[3,0],[1]]",7,"[[2,0,0],[3,0],[1]]",23,0,,,,,,7,,,,,,,,,
,,,,,single-stim-button,398,869797,0.0-2.0-80.6-1.6,63f52af01929360880074598,D2,batch4,,852,tol_toboard,,,,tol_peg_1,852,852,0,"[[2,0,0],[3,0],[1]]",7,"[[2,0,0],[3,0],[1]]",23,0,,,,,,7,,,,,,,,,
,,,,,poldrack-single-stim,399,870807,0.0-2.0-81.0,63f52af01929360880074598,D2,batch4,,-1,tol_feedback,,,TRUE,,1000,1000,500,,,,,,-1,none,TRUE,5741,11772,,,,,,,,,,
,,,,,html-button-response,400,872576,0.0-2.0-82.0,63f52af01929360880074598,D2,batch4,,1766.7999999523200,tol_trial_num,<div class = centerbox><p class = center-block-text>problem <strong>25</strong> out of 25 problems</p></div>,0,,,,,,,,,,,,,,,,,,,,,,,,,
,,,,,single-stim-button,401,879103,0.0-2.0-83.0-0.0,63f52af01929360880074598,D2,batch4,,6523,tol_tohand,,,,tol_peg_1,6523,6523,0,"[[1,0,0],[3,0],[0]]",1,"[[3,0,0],[1,0],[2]]",24,0,,,,,,7,,,,,,,,,
,,,,,single-stim-button,402,880072,0.0-2.0-83.0-1.0,63f52af01929360880074598,D2,batch4,,967,tol_toboard,,,,tol_peg_2,967,967,0,"[[1,0,0],[3,2],[0]]",1,"[[3,0,0],[1,0],[2]]",24,0,,,,,,7,,,,,,,,,
,,,,,single-stim-button,403,880721,0.0-2.0-83.1-0.1,63f52af01929360880074598,D2,batch4,,648,tol_tohand,,,,tol_peg_1,648,648,0,"[[0,0,0],[3,2],[0]]",2,"[[3,0,0],[1,0],[2]]",24,0,,,,,,7,,,,,,,,,
,,,,,single-stim-button,404,881937,0.0-2.0-83.1-1.1,63f52af01929360880074598,D2,batch4,,1213,tol_toboard,,,,tol_peg_3,1213,1213,0,"[[0,0,0],[3,2],[1]]",2,"[[3,0,0],[1,0],[2]]",24,0,,,,,,7,,,,,,,,,
,,,,,single-stim-button,405,884833,0.0-2.0-83.2-0.2,63f52af01929360880074598,D2,batch4,,2896,tol_tohand,,,,tol_peg_2,2896,2896,0,"[[0,0,0],[3,0],[1]]",3,"[[3,0,0],[1,0],[2]]",24,0,,,,,,7,,,,,,,,,
,,,,,single-stim-button,406,886305,0.0-2.0-83.2-1.2,63f52af01929360880074598,D2,batch4,,1471,tol_toboard,,,,tol_peg_1,1471,1471,0,"[[2,0,0],[3,0],[1]]",3,"[[3,0,0],[1,0],[2]]",24,0,,,,,,7,,,,,,,,,
,,,,,single-stim-button,407,887033,0.0-2.0-83.3-0.3,63f52af01929360880074598,D2,batch4,,725,tol_tohand,,,,tol_peg_2,725,725,0,"[[2,0,0],[0,0],[1]]",4,"[[3,0,0],[1,0],[2]]",24,0,,,,,,7,,,,,,,,,
,,,,,single-stim-button,408,887783,0.0-2.0-83.3-1.3,63f52af01929360880074598,D2,batch4,,748,tol_toboard,,,,tol_peg_1,748,748,0,"[[2,3,0],[0,0],[1]]",4,"[[3,0,0],[1,0],[2]]",24,0,,,,,,7,,,,,,,,,
,,,,,single-stim-button,409,888590,0.0-2.0-83.4-0.4,63f52af01929360880074598,D2,batch4,,804,tol_tohand,,,,tol_peg_3,804,804,0,"[[2,3,0],[0,0],[0]]",5,"[[3,0,0],[1,0],[2]]",24,0,,,,,,7,,,,,,,,,
,,,,,single-stim-button,410,889520,0.0-2.0-83.4-1.4,63f52af01929360880074598,D2,batch4,,929,tol_toboard,,,,tol_peg_2,929,929,0,"[[2,3,0],[1,0],[0]]",5,"[[3,0,0],[1,0],[2]]",24,0,,,,,,7,,,,,,,,,
,,,,,single-stim-button,411,890347,0.0-2.0-83.5-0.5,63f52af01929360880074598,D2,batch4,,826,tol_tohand,,,,tol_peg_1,826,826,0,"[[2,0,0],[1,0],[0]]",6,"[[3,0,0],[1,0],[2]]",24,0,,,,,,7,,,,,,,,,
,,,,,single-stim-button,412,891138,0.0-2.0-83.5-1.5,63f52af01929360880074598,D2,batch4,,790,tol_toboard,,,,tol_peg_3,790,790,0,"[[2,0,0],[1,0],[3]]",6,"[[3,0,0],[1,0],[2]]",24,0,,,,,,7,,,,,,,,,
,,,,,single-stim-button,413,891850,0.0-2.0-83.6-0.6,63f52af01929360880074598,D2,batch4,,709,tol_tohand,,,,tol_peg_1,709,709,0,"[[0,0,0],[1,0],[3]]",7,"[[3,0,0],[1,0],[2]]",24,0,,,,,,7,,,,,,,,,
,,,,,single-stim-button,414,892423,0.0-2.0-83.6-1.6,63f52af01929360880074598,D2,batch4,,570,tol_toboard,,,,tol_peg_2,570,570,0,"[[0,0,0],[1,2],[3]]",7,"[[3,0,0],[1,0],[2]]",24,0,,,,,,7,,,,,,,,,
,,,,,single-stim-button,415,893099,0.0-2.0-83.7-0.7,63f52af01929360880074598,D2,batch4,,674,tol_tohand,,,,tol_peg_3,674,674,0,"[[0,0,0],[1,2],[0]]",8,"[[3,0,0],[1,0],[2]]",24,0,,,,,,7,,,,,,,,,
,,,,,single-stim-button,416,894018,0.0-2.0-83.7-1.7,63f52af01929360880074598,D2,batch4,,918,tol_toboard,,,,tol_peg_1,918,918,0,"[[3,0,0],[1,2],[0]]",8,"[[3,0,0],[1,0],[2]]",24,0,,,,,,7,,,,,,,,,
,,,,,single-stim-button,417,894745,0.0-2.0-83.8-0.8,63f52af01929360880074598,D2,batch4,,727,tol_tohand,,,,tol_peg_2,727,727,0,"[[3,0,0],[1,0],[0]]",9,"[[3,0,0],[1,0],[2]]",24,0,,,,,,7,,,,,,,,,
,,,,,single-stim-button,418,895468,0.0-2.0-83.8-1.8,63f52af01929360880074598,D2,batch4,,721,tol_toboard,,,,tol_peg_3,721,721,0,"[[3,0,0],[1,0],[2]]",9,"[[3,0,0],[1,0],[2]]",24,0,,,,,,7,,,,,,,,,
,,,,,poldrack-single-stim,419,896473,0.0-2.0-84.0,63f52af01929360880074598,D2,batch4,,-1,tol_feedback,,,TRUE,,1000,1000,500,,,,,,-1,none,TRUE,6523,14532,,,,,,,,,,
,,,,,html-button-response,420,899229,0.0-2.0-85.0,63f52af01929360880074598,D2,batch4,,2754.7000000476800,tol-goodbye,<p class= block-text>This concludes the Tower of London Task. Thank you for your responses!<br> Click the button below to continue</p>,0,,,,,,,,,,,,,,,,,,,,,,,,,
TRUE,,,,,fullscreen,421,976269,0.0-3.0-0.0,63f52af01929360880074598,D2,batch4,,,spm_fullscreen,,,,,,,,,,,,,,,,,,,,,,,,,,,
,,,,,html-button-response,422,986612,0.0-3.0-1.0,63f52af01929360880074598,D2,batch4,,10338.700000047700,,"<p class = block-text><b>Instructions</b> <br>This is a widely used intelligence test in research. <br>In this test, a figure with a missing piece will be presented.<br>Below the figure are alternative pieces to complete the figure, only one of which is correct.<br> Different figures might involve different principles for obtaining the missing piece<br>Your job is to select the most logical piece to complete the figure.</p>",0,,,,,,,,,,,,,,,,,,,,,,,,,
,,,,,html-keyboard-response,423,987430,0.0-3.0-2.0-0.0,63f52af01929360880074598,D2,batch4,,null,spm_show_trial_num,<p class=block-text>Trial 1 out of 60</p>,null,,,,,,,,,,,,,,,,,,,,,,,,,
,,,,,image-button-response,424,992949,0.0-3.0-2.0-1.0,63f52af01929360880074598,D2,batch4,,5486.099999904630,spm_respsonse,img/question_1_1.jpeg,3,1,,,,,,,,,,,,,,,,mat_01,4,1,5486.099999904630,,,,,
,,,,,html-keyboard-response,425,994025,0.0-3.0-2.0-0.1,63f52af01929360880074598,D2,batch4,,null,spm_show_trial_num,<p class=block-text>Trial 2 out of 60</p>,null,,,,,,,,,,,,,,,,,,,,,,,,,
,,,,,image-button-response,426,997991,0.0-3.0-2.0-1.1,63f52af01929360880074598,D2,batch4,,3961,spm_respsonse,img/question_1_2.jpeg,4,1,,,,,,,,,,,,,,,,mat_02,5,1,3961,,,,,
,,,,,html-keyboard-response,427,999048,0.0-3.0-2.0-0.2,63f52af01929360880074598,D2,batch4,,null,spm_show_trial_num,<p class=block-text>Trial 3 out of 60</p>,null,,,,,,,,,,,,,,,,,,,,,,,,,
,,,,,image-button-response,428,1002272,0.0-3.0-2.0-1.2,63f52af01929360880074598,D2,batch4,,3218.399999976160,spm_respsonse,img/question_1_3.jpeg,0,1,,,,,,,,,,,,,,,,mat_03,1,1,3218.399999976160,,,,,
,,,,,html-keyboard-response,429,1003342,0.0-3.0-2.0-0.3,63f52af01929360880074598,D2,batch4,,null,spm_show_trial_num,<p class=block-text>Trial 4 out of 60</p>,null,,,,,,,,,,,,,,,,,,,,,,,,,
,,,,,image-button-response,430,1008198,0.0-3.0-2.0-1.3,63f52af01929360880074598,D2,batch4,,4850.799999952320,spm_respsonse,img/question_1_4.jpeg,1,1,,,,,,,,,,,,,,,,mat_04,2,1,4850.799999952320,,,,,
,,,,,html-keyboard-response,431,1009257,0.0-3.0-2.0-0.4,63f52af01929360880074598,D2,batch4,,null,spm_show_trial_num,<p class=block-text>Trial 5 out of 60</p>,null,,,,,,,,,,,,,,,,,,,,,,,,,
,,,,,image-button-response,432,1015099,0.0-3.0-2.0-1.4,63f52af01929360880074598,D2,batch4,,5838,spm_respsonse,img/question_1_5.jpeg,5,1,,,,,,,,,,,,,,,,mat_05,6,1,5838,,,,,
,,,,,html-keyboard-response,433,1016164,0.0-3.0-2.0-0.5,63f52af01929360880074598,D2,batch4,,null,spm_show_trial_num,<p class=block-text>Trial 6 out of 60</p>,null,,,,,,,,,,,,,,,,,,,,,,,,,
,,,,,image-button-response,434,1020322,0.0-3.0-2.0-1.5,63f52af01929360880074598,D2,batch4,,4150.600000023840,spm_respsonse,img/question_1_6.jpeg,2,1,,,,,,,,,,,,,,,,mat_06,3,1,4150.600000023840,,,,,
,,,,,html-keyboard-response,435,1021385,0.0-3.0-2.0-0.6,63f52af01929360880074598,D2,batch4,,null,spm_show_trial_num,<p class=block-text>Trial 7 out of 60</p>,null,,,,,,,,,,,,,,,,,,,,,,,,,
,,,,,image-button-response,436,1027242,0.0-3.0-2.0-1.6,63f52af01929360880074598,D2,batch4,,5851.899999976160,spm_respsonse,img/question_1_7.jpeg,5,1,,,,,,,,,,,,,,,,mat_07,6,1,5851.899999976160,,,,,
,,,,,html-keyboard-response,437,1028328,0.0-3.0-2.0-0.7,63f52af01929360880074598,D2,batch4,,null,spm_show_trial_num,<p class=block-text>Trial 8 out of 60</p>,null,,,,,,,,,,,,,,,,,,,,,,,,,
,,,,,image-button-response,438,1033687,0.0-3.0-2.0-1.7,63f52af01929360880074598,D2,batch4,,5355.399999976160,spm_respsonse,img/question_1_8.jpeg,1,1,,,,,,,,,,,,,,,,mat_08,2,1,5355.399999976160,,,,,
,,,,,html-keyboard-response,439,1034748,0.0-3.0-2.0-0.8,63f52af01929360880074598,D2,batch4,,null,spm_show_trial_num,<p class=block-text>Trial 9 out of 60</p>,null,,,,,,,,,,,,,,,,,,,,,,,,,
,,,,,image-button-response,440,1039464,0.0-3.0-2.0-1.8,63f52af01929360880074598,D2,batch4,,4710.100000023840,spm_respsonse,img/question_1_9.jpeg,0,1,,,,,,,,,,,,,,,,mat_09,1,1,4710.100000023840,,,,,
,,,,,html-keyboard-response,441,1040537,0.0-3.0-2.0-0.9,63f52af01929360880074598,D2,batch4,,null,spm_show_trial_num,<p class=block-text>Trial 10 out of 60</p>,null,,,,,,,,,,,,,,,,,,,,,,,,,
,,,,,image-button-response,442,1050300,0.0-3.0-2.0-1.9,63f52af01929360880074598,D2,batch4,,9758,spm_respsonse,img/question_1_10.jpeg,2,1,,,,,,,,,,,,,,,,mat_10,3,1,9758,,,,,
,,,,,html-keyboard-response,443,1051370,0.0-3.0-2.0-0.10,63f52af01929360880074598,D2,batch4,,null,spm_show_trial_num,<p class=block-text>Trial 11 out of 60</p>,null,,,,,,,,,,,,,,,,,,,,,,,,,
,,,,,image-button-response,444,1060966,0.0-3.0-2.0-1.10,63f52af01929360880074598,D2,batch4,,9592.5,spm_respsonse,img/question_1_11.jpeg,3,1,,,,,,,,,,,,,,,,mat_11,4,1,9592.5,,,,,
,,,,,html-keyboard-response,445,1062038,0.0-3.0-2.0-0.11,63f52af01929360880074598,D2,batch4,,null,spm_show_trial_num,<p class=block-text>Trial 12 out of 60</p>,null,,,,,,,,,,,,,,,,,,,,,,,,,
,,,,,image-button-response,446,1083923,0.0-3.0-2.0-1.11,63f52af01929360880074598,D2,batch4,,21878.800000071500,spm_respsonse,img/question_1_12.jpeg,4,1,,,,,,,,,,,,,,,,mat_12,5,1,21878.800000071500,,,,,
,,,,,html-keyboard-response,447,1084993,0.0-3.0-2.0-0.12,63f52af01929360880074598,D2,batch4,,null,spm_show_trial_num,<p class=block-text>Trial 13 out of 60</p>,null,,,,,,,,,,,,,,,,,,,,,,,,,
,,,,,image-button-response,448,1088137,0.0-3.0-2.0-1.12,63f52af01929360880074598,D2,batch4,,3136,spm_respsonse,img/question_2_1.jpeg,1,1,,,,,,,,,,,,,,,,mat_13,2,1,3136,,,,,
,,,,,html-keyboard-response,449,1089205,0.0-3.0-2.0-0.13,63f52af01929360880074598,D2,batch4,,null,spm_show_trial_num,<p class=block-text>Trial 14 out of 60</p>,null,,,,,,,,,,,,,,,,,,,,,,,,,
,,,,,image-button-response,450,1094060,0.0-3.0-2.0-1.13,63f52af01929360880074598,D2,batch4,,4850,spm_respsonse,img/question_2_2.jpeg,5,1,,,,,,,,,,,,,,,,mat_14,6,1,4850,,,,,
,,,,,html-keyboard-response,451,1095117,0.0-3.0-2.0-0.14,63f52af01929360880074598,D2,batch4,,null,spm_show_trial_num,<p class=block-text>Trial 15 out of 60</p>,null,,,,,,,,,,,,,,,,,,,,,,,,,
,,,,,image-button-response,452,1099264,0.0-3.0-2.0-1.14,63f52af01929360880074598,D2,batch4,,4142.800000071530,spm_respsonse,img/question_2_3.jpeg,0,1,,,,,,,,,,,,,,,,mat_15,1,1,4142.800000071530,,,,,
,,,,,html-keyboard-response,453,1100336,0.0-3.0-2.0-0.15,63f52af01929360880074598,D2,batch4,,null,spm_show_trial_num,<p class=block-text>Trial 16 out of 60</p>,null,,,,,,,,,,,,,,,,,,,,,,,,,
,,,,,image-button-response,454,1103117,0.0-3.0-2.0-1.15,63f52af01929360880074598,D2,batch4,,2775,spm_respsonse,img/question_2_4.jpeg,1,1,,,,,,,,,,,,,,,,mat_16,2,1,2775,,,,,
,,,,,html-keyboard-response,455,1104181,0.0-3.0-2.0-0.16,63f52af01929360880074598,D2,batch4,,null,spm_show_trial_num,<p class=block-text>Trial 17 out of 60</p>,null,,,,,,,,,,,,,,,,,,,,,,,,,
,,,,,image-button-response,456,1107916,0.0-3.0-2.0-1.16,63f52af01929360880074598,D2,batch4,,3730.2000000476800,spm_respsonse,img/question_2_5.jpeg,0,1,,,,,,,,,,,,,,,,mat_17,1,1,3730.2000000476800,,,,,
,,,,,html-keyboard-response,457,1108995,0.0-3.0-2.0-0.17,63f52af01929360880074598,D2,batch4,,null,spm_show_trial_num,<p class=block-text>Trial 18 out of 60</p>,null,,,,,,,,,,,,,,,,,,,,,,,,,
,,,,,image-button-response,458,1112857,0.0-3.0-2.0-1.17,63f52af01929360880074598,D2,batch4,,3855.2999999523200,spm_respsonse,img/question_2_6.jpeg,3,0,,,,,,,,,,,,,,,,mat_18,3,0,3855.2999999523200,,,,,
,,,,,html-keyboard-response,459,1113929,0.0-3.0-2.0-0.18,63f52af01929360880074598,D2,batch4,,null,spm_show_trial_num,<p class=block-text>Trial 19 out of 60</p>,null,,,,,,,,,,,,,,,,,,,,,,,,,
,,,,,image-button-response,460,1118015,0.0-3.0-2.0-1.18,63f52af01929360880074598,D2,batch4,,4080.7000000476800,spm_respsonse,img/question_2_7.jpeg,4,1,,,,,,,,,,,,,,,,mat_19,5,1,4080.7000000476800,,,,,
,,,,,html-keyboard-response,461,1119105,0.0-3.0-2.0-0.19,63f52af01929360880074598,D2,batch4,,null,spm_show_trial_num,<p class=block-text>Trial 20 out of 60</p>,null,,,,,,,,,,,,,,,,,,,,,,,,,
,,,,,image-button-response,462,1123996,0.0-3.0-2.0-1.19,63f52af01929360880074598,D2,batch4,,4885.699999928470,spm_respsonse,img/question_2_8.jpeg,4,0,,,,,,,,,,,,,,,,mat_20,6,0,4885.699999928470,,,,,
,,,,,html-keyboard-response,463,1125071,0.0-3.0-2.0-0.20,63f52af01929360880074598,D2,batch4,,null,spm_show_trial_num,<p class=block-text>Trial 21 out of 60</p>,null,,,,,,,,,,,,,,,,,,,,,,,,,
,,,,,image-button-response,464,1131213,0.0-3.0-2.0-1.20,63f52af01929360880074598,D2,batch4,,6135.100000023840,spm_respsonse,img/question_2_9.jpeg,3,1,,,,,,,,,,,,,,,,mat_21,4,1,6135.100000023840,,,,,
,,,,,html-keyboard-response,465,1132289,0.0-3.0-2.0-0.21,63f52af01929360880074598,D2,batch4,,null,spm_show_trial_num,<p class=block-text>Trial 22 out of 60</p>,null,,,,,,,,,,,,,,,,,,,,,,,,,
,,,,,image-button-response,466,1135736,0.0-3.0-2.0-1.21,63f52af01929360880074598,D2,batch4,,3441.399999976160,spm_respsonse,img/question_2_10.jpeg,2,1,,,,,,,,,,,,,,,,mat_22,3,1,3441.399999976160,,,,,
,,,,,html-keyboard-response,467,1136797,0.0-3.0-2.0-0.22,63f52af01929360880074598,D2,batch4,,null,spm_show_trial_num,<p class=block-text>Trial 23 out of 60</p>,null,,,,,,,,,,,,,,,,,,,,,,,,,
,,,,,image-button-response,468,1141407,0.0-3.0-2.0-1.22,63f52af01929360880074598,D2,batch4,,4605.699999928470,spm_respsonse,img/question_2_11.jpeg,3,1,,,,,,,,,,,,,,,,mat_23,4,1,4605.699999928470,,,,,
,,,,,html-keyboard-response,469,1142473,0.0-3.0-2.0-0.23,63f52af01929360880074598,D2,batch4,,null,spm_show_trial_num,<p class=block-text>Trial 24 out of 60</p>,null,,,,,,,,,,,,,,,,,,,,,,,,,
,,,,,image-button-response,470,1148936,0.0-3.0-2.0-1.23,63f52af01929360880074598,D2,batch4,,6455.600000023840,spm_respsonse,img/question_2_12.jpeg,4,1,,,,,,,,,,,,,,,,mat_24,5,1,6455.600000023840,,,,,
,,,,,html-button-response,471,1151048,0.0-3.0-3.0,63f52af01929360880074598,D2,batch4,,1857.7999999523200,attention_check,<p class = block-text>Attention check: Please choose 1<br></p>,0,TRUE,,,,,,,,,,,,,,,,,,,,,,,,
,,,,,html-keyboard-response,472,1151851,0.0-3.0-4.0-0.0,63f52af01929360880074598,D2,batch4,,null,spm_show_trial_num,<p class=block-text>Trial 25 out of 60</p>,null,,,,,,,,,,,,,,,,,,,,,,,,,
,,,,,image-button-response,473,1158067,0.0-3.0-4.0-1.0,63f52af01929360880074598,D2,batch4,,6211.5,spm_respsonse,img/question_3_1.jpeg,7,1,,,,,,,,,,,,,,,,mat_25,8,1,6211.5,,,,,
,,,,,html-keyboard-response,474,1159132,0.0-3.0-4.0-0.1,63f52af01929360880074598,D2,batch4,,null,spm_show_trial_num,<p class=block-text>Trial 26 out of 60</p>,null,,,,,,,,,,,,,,,,,,,,,,,,,
,,,,,image-button-response,475,1172932,0.0-3.0-4.0-1.1,63f52af01929360880074598,D2,batch4,,13794.399999976200,spm_respsonse,img/question_3_2.jpeg,1,1,,,,,,,,,,,,,,,,mat_26,2,1,13794.399999976200,,,,,
,,,,,html-keyboard-response,476,1173999,0.0-3.0-4.0-0.2,63f52af01929360880074598,D2,batch4,,null,spm_show_trial_num,<p class=block-text>Trial 27 out of 60</p>,null,,,,,,,,,,,,,,,,,,,,,,,,,
,,,,,image-button-response,477,1179492,0.0-3.0-4.0-1.2,63f52af01929360880074598,D2,batch4,,5486.300000071530,spm_respsonse,img/question_3_3.jpeg,2,1,,,,,,,,,,,,,,,,mat_27,3,1,5486.300000071530,,,,,
,,,,,html-keyboard-response,478,1180560,0.0-3.0-4.0-0.3,63f52af01929360880074598,D2,batch4,,null,spm_show_trial_num,<p class=block-text>Trial 28 out of 60</p>,null,,,,,,,,,,,,,,,,,,,,,,,,,
,,,,,image-button-response,479,1205567,0.0-3.0-4.0-1.3,63f52af01929360880074598,D2,batch4,,25001.600000023800,spm_respsonse,img/question_3_4.jpeg,7,1,,,,,,,,,,,,,,,,mat_28,8,1,25001.600000023800,,,,,
,,,,,html-keyboard-response,480,1206631,0.0-3.0-4.0-0.4,63f52af01929360880074598,D2,batch4,,null,spm_show_trial_num,<p class=block-text>Trial 29 out of 60</p>,null,,,,,,,,,,,,,,,,,,,,,,,,,
,,,,,image-button-response,481,1214017,0.0-3.0-4.0-1.4,63f52af01929360880074598,D2,batch4,,7378.700000047680,spm_respsonse,img/question_3_5.jpeg,6,1,,,,,,,,,,,,,,,,mat_29,7,1,7378.700000047680,,,,,
,,,,,html-keyboard-response,482,1215087,0.0-3.0-4.0-0.5,63f52af01929360880074598,D2,batch4,,null,spm_show_trial_num,<p class=block-text>Trial 30 out of 60</p>,null,,,,,,,,,,,,,,,,,,,,,,,,,
,,,,,image-button-response,483,1221343,0.0-3.0-4.0-1.5,63f52af01929360880074598,D2,batch4,,6249.700000047680,spm_respsonse,img/question_3_6.jpeg,3,1,,,,,,,,,,,,,,,,mat_30,4,1,6249.700000047680,,,,,
,,,,,html-keyboard-response,484,1222422,0.0-3.0-4.0-0.6,63f52af01929360880074598,D2,batch4,,null,spm_show_trial_num,<p class=block-text>Trial 31 out of 60</p>,null,,,,,,,,,,,,,,,,,,,,,,,,,
,,,,,image-button-response,485,1226679,0.0-3.0-4.0-1.6,63f52af01929360880074598,D2,batch4,,4249.800000071530,spm_respsonse,img/question_3_7.jpeg,4,1,,,,,,,,,,,,,,,,mat_31,5,1,4249.800000071530,,,,,
,,,,,html-keyboard-response,486,1227747,0.0-3.0-4.0-0.7,63f52af01929360880074598,D2,batch4,,null,spm_show_trial_num,<p class=block-text>Trial 32 out of 60</p>,null,,,,,,,,,,,,,,,,,,,,,,,,,
,,,,,image-button-response,487,1235104,0.0-3.0-4.0-1.7,63f52af01929360880074598,D2,batch4,,7352.5,spm_respsonse,img/question_3_8.jpeg,0,1,,,,,,,,,,,,,,,,mat_32,1,1,7352.5,,,,,
,,,,,html-keyboard-response,488,1236179,0.0-3.0-4.0-0.8,63f52af01929360880074598,D2,batch4,,null,spm_show_trial_num,<p class=block-text>Trial 33 out of 60</p>,null,,,,,,,,,,,,,,,,,,,,,,,,,
,,,,,image-button-response,489,1243863,0.0-3.0-4.0-1.8,63f52af01929360880074598,D2,batch4,,7678.799999952320,spm_respsonse,img/question_3_9.jpeg,6,1,,,,,,,,,,,,,,,,mat_33,7,1,7678.799999952320,,,,,
,,,,,html-keyboard-response,490,1244942,0.0-3.0-4.0-0.9,63f52af01929360880074598,D2,batch4,,null,spm_show_trial_num,<p class=block-text>Trial 34 out of 60</p>,null,,,,,,,,,,,,,,,,,,,,,,,,,
,,,,,image-button-response,491,1256585,0.0-3.0-4.0-1.9,63f52af01929360880074598,D2,batch4,,11636.100000023800,spm_respsonse,img/question_3_10.jpeg,5,1,,,,,,,,,,,,,,,,mat_34,6,1,11636.100000023800,,,,,
,,,,,html-keyboard-response,492,1257640,0.0-3.0-4.0-0.10,63f52af01929360880074598,D2,batch4,,null,spm_show_trial_num,<p class=block-text>Trial 35 out of 60</p>,null,,,,,,,,,,,,,,,,,,,,,,,,,
,,,,,image-button-response,493,1344840,0.0-3.0-4.0-1.10,63f52af01929360880074598,D2,batch4,,87194.5,spm_respsonse,img/question_3_11.jpeg,0,1,,,,,,,,,,,,,,,,mat_35,1,1,87194.5,,,,,
,,,,,html-keyboard-response,494,1345901,0.0-3.0-4.0-0.11,63f52af01929360880074598,D2,batch4,,null,spm_show_trial_num,<p class=block-text>Trial 36 out of 60</p>,null,,,,,,,,,,,,,,,,,,,,,,,,,
,,,,,image-button-response,495,1366438,0.0-3.0-4.0-1.11,63f52af01929360880074598,D2,batch4,,20531.300000071500,spm_respsonse,img/question_3_12.jpeg,1,1,,,,,,,,,,,,,,,,mat_36,2,1,20531.300000071500,,,,,
,,,,,html-keyboard-response,496,1367495,0.0-3.0-4.0-0.12,63f52af01929360880074598,D2,batch4,,null,spm_show_trial_num,<p class=block-text>Trial 37 out of 60</p>,null,,,,,,,,,,,,,,,,,,,,,,,,,
,,,,,image-button-response,497,1370397,0.0-3.0-4.0-1.12,63f52af01929360880074598,D2,batch4,,2896.0999999046300,spm_respsonse,img/question_4_1.jpeg,2,1,,,,,,,,,,,,,,,,mat_37,3,1,2896.0999999046300,,,,,
,,,,,html-keyboard-response,498,1371475,0.0-3.0-4.0-0.13,63f52af01929360880074598,D2,batch4,,null,spm_show_trial_num,<p class=block-text>Trial 38 out of 60</p>,null,,,,,,,,,,,,,,,,,,,,,,,,,
,,,,,image-button-response,499,1381807,0.0-3.0-4.0-1.13,63f52af01929360880074598,D2,batch4,,10326.300000071500,spm_respsonse,img/question_4_2.jpeg,3,1,,,,,,,,,,,,,,,,mat_38,4,1,10326.300000071500,,,,,
,,,,,html-keyboard-response,500,1382871,0.0-3.0-4.0-0.14,63f52af01929360880074598,D2,batch4,,null,spm_show_trial_num,<p class=block-text>Trial 39 out of 60</p>,null,,,,,,,,,,,,,,,,,,,,,,,,,
,,,,,image-button-response,501,1393394,0.0-3.0-4.0-1.14,63f52af01929360880074598,D2,batch4,,10517.099999904600,spm_respsonse,img/question_4_3.jpeg,2,1,,,,,,,,,,,,,,,,mat_39,3,1,10517.099999904600,,,,,
