"success","timeout","failed_images","failed_audio","failed_video","trial_type","trial_index","time_elapsed","internal_node_id","subject_id","study_id","session_id","view_history","rt","stimulus","response","task","correct","answer","item","fiar_detect_rt","fiar_detect_correct","total_correct_fiar_detect","post_trial_gap","choices","mouse_click","stim_duration","block_duration","timing_post_trial","current_position","tol_num_moves_made","tol_target","tol_problem_id","tol_rt","key_press","possible_responses","tol_correct","preplanning","tol_rt_per_trial","tol_min_moves","spm_correct","spm_rt"
"true","false","[]","[]","[]","preload","0","12492","0.0-0.0","63f57759284ce2f495e4442d","C3","batch3","","","","","","","","","","","","","","","","","","","","","","","","","","","","","",""
"true","","","","","fullscreen","1","28502","0.0-1.0-0.0","63f57759284ce2f495e4442d","C3","batch3","","","","","","","","","","","","","","","","","","","","","","","","","","","","","",""
"true","","","","","fullscreen","2","32926","0.0-2.0-0.0","63f57759284ce2f495e4442d","C3","batch3","","","","","","","","","","","","","","","","","","","","","","","","","","","","","",""
"","","","","","instructions","3","59978","0.0-2.0-1.0-0.0","63f57759284ce2f495e4442d","C3","batch3","[{""page_index"":0,""viewing_time"":9357.599999904633},{""page_index"":1,""viewing_time"":17693.400000095367}]","27051.199999809265","","","","","","","","","","","","","","","","","","","","","","","","","","","",""
"","","","","","html-button-response","4","61188","0.0-2.0-1.0-1.0-0.0","63f57759284ce2f495e4442d","C3","batch3","","1208.7999997138977","<p class=block-text> Let's answer a few questions <br>","0","pattern_enter_quiz","","","","","","","","","","","","","","","","","","","","","","","","",""
"","","","","","html-button-response","5","63890","0.0-2.0-1.0-1.0-1.0","63f57759284ce2f495e4442d","C3","batch3","","2700.7000002861023","<p class = block-text>True or False: You will have as much time as you want to make each choice. <br></p>","1","pattern_quiz","true","","","","","","","","","","","","","","","","","","","","","","","",""
"","","","","","html-button-response","6","65201","0.0-2.0-1.0-1.0-2.0","63f57759284ce2f495e4442d","C3","batch3","","1310","<p class = block-text>Correct! You should make your choice <strong> as fast as you can</strong>.</p>","0","pattern_quiz_feedback","","","","","","","","","","","","","","","","","","","","","","","","",""
"","","","","","html-button-response","7","69322","0.0-2.0-1.0-1.0-3.0","63f57759284ce2f495e4442d","C3","batch3","","4120.300000190735","<p class = block-text>True or False: You will look for 4 pieces in black or white color connected in a row either horizontally, vertically or diagonally. <br></p>","0","pattern_quiz","true","","","","","","","","","","","","","","","","","","","","","","","",""
"","","","","","html-button-response","8","70139","0.0-2.0-1.0-1.0-4.0","63f57759284ce2f495e4442d","C3","batch3","","815.9000000953674","<p class = block-text>Correct! </p>","0","pattern_quiz_feedback","","","","","","","","","","","","","","","","","","","","","","","","",""
"","","","","","html-button-response","9","72137","0.0-2.0-2.0","63f57759284ce2f495e4442d","C3","batch3","","1996.5","<p class=block-text> Now that you've understood the game, let's do a few practice trials before we start!<br> <br>","0","pattern_enter_practice","","","","","","","","","","","","","","","","","","","","","","","","",""
"","","","","","image-keyboard-response","10","74864","0.0-2.0-3.0-0.0","63f57759284ce2f495e4442d","C3","batch3","","2722.1000003814697","stim/prac_yes_16_ver_w1.png","f","pattern_practice","true","f","","","","","","","","","","","","","","","","","","","","","","",""
"","","","","","html-keyboard-response","11","75870","0.0-2.0-3.0-1.0","63f57759284ce2f495e4442d","C3","batch3","","null","<p style=""font-size:30px;color:green;"">Correct!</p>","null","pattern_feedback","","","","","","","","","","","","","","","","","","","","","","","","",""
"","","","","","image-keyboard-response","12","77623","0.0-2.0-3.0-0.1","63f57759284ce2f495e4442d","C3","batch3","","1750.8000001907349","stim/prac_yes_18_hor_w1.png","f","pattern_practice","true","f","","","","","","","","","","","","","","","","","","","","","","",""
"","","","","","html-keyboard-response","13","78630","0.0-2.0-3.0-1.1","63f57759284ce2f495e4442d","C3","batch3","","null","<p style=""font-size:30px;color:green;"">Correct!</p>","null","pattern_feedback","","","","","","","","","","","","","","","","","","","","","","","","",""
"","","","","","image-keyboard-response","14","80128","0.0-2.0-3.0-0.2","63f57759284ce2f495e4442d","C3","batch3","","1496.5999999046326","stim/prac_no_18_1.png","j","pattern_practice","true","j","","","","","","","","","","","","","","","","","","","","","","",""
"","","","","","html-keyboard-response","15","81134","0.0-2.0-3.0-1.2","63f57759284ce2f495e4442d","C3","batch3","","null","<p style=""font-size:30px;color:green;"">Correct!</p>","null","pattern_feedback","","","","","","","","","","","","","","","","","","","","","","","","",""
"","","","","","image-keyboard-response","16","83285","0.0-2.0-3.0-0.3","63f57759284ce2f495e4442d","C3","batch3","","2149.5999999046326","stim/prac_no_16_1.png","j","pattern_practice","true","j","","","","","","","","","","","","","","","","","","","","","","",""
"","","","","","html-keyboard-response","17","84294","0.0-2.0-3.0-1.3","63f57759284ce2f495e4442d","C3","batch3","","null","<p style=""font-size:30px;color:green;"">Correct!</p>","null","pattern_feedback","","","","","","","","","","","","","","","","","","","","","","","","",""
"","","","","","image-keyboard-response","18","87048","0.0-2.0-3.0-0.4","63f57759284ce2f495e4442d","C3","batch3","","2751.800000190735","stim/prac_yes_20_dia_b1.png","j","pattern_practice","false","f","","","","","","","","","","","","","","","","","","","","","","",""
"","","","","","html-keyboard-response","19","88054","0.0-2.0-3.0-1.4","63f57759284ce2f495e4442d","C3","batch3","","null","<p style=""font-size:30px;color:red;"">Wrong.</p>","null","pattern_feedback","","","","","","","","","","","","","","","","","","","","","","","","",""
"","","","","","html-button-response","20","93273","0.0-2.0-4.0","63f57759284ce2f495e4442d","C3","batch3","","5217.300000190735","<p class=block-text> Good job! You are done with practice trials!<br>
        You responded correctly on 80% of the trials.<br>
        Press the button below to start official trials. Now you won't see any feedback about your response</p>","0","pattern_enter_official_trials","","","","","","","","","","","","","","","","","","","","","","","","",""
"","","","","","html-keyboard-response","21","94078","0.0-2.0-5.0-0.0","63f57759284ce2f495e4442d","C3","batch3","","null","<p class=block-text>Trial 1 out of 78</p>","null","pattern_show_trial_num","","","","","","","","","","","","","","","","","","","","","","","","",""
"","","","","","image-keyboard-response","22","96445","0.0-2.0-5.0-1.0","63f57759284ce2f495e4442d","C3","batch3","","2365.0999999046326","stim/yes_49_hor_w1_b.png","j","pattern_response","false","f","pattern_70","2365.0999999046326","false","0","","","","","","","","","","","","","","","","","","",""
"","","","","","html-keyboard-response","23","97758","0.0-2.0-5.0-0.1","63f57759284ce2f495e4442d","C3","batch3","","null","<p class=block-text>Trial 2 out of 78</p>","null","pattern_show_trial_num","","","","","","","","","","","","","","","","","","","","","","","","",""
"","","","","","image-keyboard-response","24","100075","0.0-2.0-5.0-1.1","63f57759284ce2f495e4442d","C3","batch3","","2315.5","stim/yes_70_ver_b1.png","f","pattern_response","true","f","pattern_80","2315.5","true","1","","","","","","","","","","","","","","","","","","",""
"","","","","","html-keyboard-response","25","101390","0.0-2.0-5.0-0.2","63f57759284ce2f495e4442d","C3","batch3","","null","<p class=block-text>Trial 3 out of 78</p>","null","pattern_show_trial_num","","","","","","","","","","","","","","","","","","","","","","","","",""
"","","","","","image-keyboard-response","26","103127","0.0-2.0-5.0-1.2","63f57759284ce2f495e4442d","C3","batch3","","1735.5","stim/yes_33_dia_w1_w.png","j","pattern_response","false","f","pattern_56","1735.5","false","1","","","","","","","","","","","","","","","","","","",""
"","","","","","html-keyboard-response","27","104438","0.0-2.0-5.0-0.3","63f57759284ce2f495e4442d","C3","batch3","","null","<p class=block-text>Trial 4 out of 78</p>","null","pattern_show_trial_num","","","","","","","","","","","","","","","","","","","","","","","","",""
"","","","","","image-keyboard-response","28","106327","0.0-2.0-5.0-1.3","63f57759284ce2f495e4442d","C3","batch3","","1887.4000000953674","stim/no_33_1_b.png","j","pattern_response","true","j","pattern_15","1887.4000000953674","true","2","","","","","","","","","","","","","","","","","","",""
"","","","","","html-keyboard-response","29","107638","0.0-2.0-5.0-0.4","63f57759284ce2f495e4442d","C3","batch3","","null","<p class=block-text>Trial 5 out of 78</p>","null","pattern_show_trial_num","","","","","","","","","","","","","","","","","","","","","","","","",""
"","","","","","image-keyboard-response","30","109382","0.0-2.0-5.0-1.4","63f57759284ce2f495e4442d","C3","batch3","","1742.0999999046326","stim/no_18_1_b.png","j","pattern_response","true","j","pattern_05","1742.0999999046326","true","3","","","","","","","","","","","","","","","","","","",""
"","","","","","html-keyboard-response","31","110695","0.0-2.0-5.0-0.5","63f57759284ce2f495e4442d","C3","batch3","","null","<p class=block-text>Trial 6 out of 78</p>","null","pattern_show_trial_num","","","","","","","","","","","","","","","","","","","","","","","","",""
"","","","","","image-keyboard-response","32","112000","0.0-2.0-5.0-1.5","63f57759284ce2f495e4442d","C3","batch3","","1303.8000001907349","stim/yes_39_hor_w1_w.png","f","pattern_response","true","f","pattern_62","1303.8000001907349","true","4","","","","","","","","","","","","","","","","","","",""
"","","","","","html-keyboard-response","33","113310","0.0-2.0-5.0-0.6","63f57759284ce2f495e4442d","C3","batch3","","null","<p class=block-text>Trial 7 out of 78</p>","null","pattern_show_trial_num","","","","","","","","","","","","","","","","","","","","","","","","",""
"","","","","","image-keyboard-response","34","115221","0.0-2.0-5.0-1.6","63f57759284ce2f495e4442d","C3","batch3","","1909","stim/yes_26_dia_w2_w.png","f","pattern_response","true","f","pattern_50","1909","true","5","","","","","","","","","","","","","","","","","","",""
"","","","","","html-keyboard-response","35","116534","0.0-2.0-5.0-0.7","63f57759284ce2f495e4442d","C3","batch3","","null","<p class=block-text>Trial 8 out of 78</p>","null","pattern_show_trial_num","","","","","","","","","","","","","","","","","","","","","","","","",""
"","","","","","image-keyboard-response","36","119959","0.0-2.0-5.0-1.7","63f57759284ce2f495e4442d","C3","batch3","","3422.9000000953674","stim/yes_51_dia_b1.png","j","pattern_response","false","f","pattern_72","3422.9000000953674","false","5","","","","","","","","","","","","","","","","","","",""
"","","","","","html-keyboard-response","37","121270","0.0-2.0-5.0-0.8","63f57759284ce2f495e4442d","C3","batch3","","null","<p class=block-text>Trial 9 out of 78</p>","null","pattern_show_trial_num","","","","","","","","","","","","","","","","","","","","","","","","",""
"","","","","","image-keyboard-response","38","122640","0.0-2.0-5.0-1.8","63f57759284ce2f495e4442d","C3","batch3","","1368.4000000953674","stim/yes_23_ver_b1.png","f","pattern_response","true","f","pattern_48","1368.4000000953674","true","6","","","","","","","","","","","","","","","","","","",""
"","","","","","html-keyboard-response","39","123950","0.0-2.0-5.0-0.9","63f57759284ce2f495e4442d","C3","batch3","","null","<p class=block-text>Trial 10 out of 78</p>","null","pattern_show_trial_num","","","","","","","","","","","","","","","","","","","","","","","","",""
"","","","","","image-keyboard-response","40","126655","0.0-2.0-5.0-1.9","63f57759284ce2f495e4442d","C3","batch3","","2703.300000190735","stim/no_39_1_w.png","j","pattern_response","true","j","pattern_21","2703.300000190735","true","7","","","","","","","","","","","","","","","","","","",""
"","","","","","html-keyboard-response","41","127966","0.0-2.0-5.0-0.10","63f57759284ce2f495e4442d","C3","batch3","","null","<p class=block-text>Trial 11 out of 78</p>","null","pattern_show_trial_num","","","","","","","","","","","","","","","","","","","","","","","","",""
"","","","","","image-keyboard-response","42","132102","0.0-2.0-5.0-1.10","63f57759284ce2f495e4442d","C3","batch3","","4134.400000095367","stim/yes_58_dia_w1_w.png","j","pattern_response","false","f","pattern_76","4134.400000095367","false","7","","","","","","","","","","","","","","","","","","",""
"","","","","","html-keyboard-response","43","133414","0.0-2.0-5.0-0.11","63f57759284ce2f495e4442d","C3","batch3","","null","<p class=block-text>Trial 12 out of 78</p>","null","pattern_show_trial_num","","","","","","","","","","","","","","","","","","","","","","","","",""
"","","","","","image-keyboard-response","44","137152","0.0-2.0-5.0-1.11","63f57759284ce2f495e4442d","C3","batch3","","3735.5999999046326","stim/no_49_2_b.png","j","pattern_response","true","j","pattern_29","3735.5999999046326","true","8","","","","","","","","","","","","","","","","","","",""
"","","","","","html-keyboard-response","45","138463","0.0-2.0-5.0-0.12","63f57759284ce2f495e4442d","C3","batch3","","null","<p class=block-text>Trial 13 out of 78</p>","null","pattern_show_trial_num","","","","","","","","","","","","","","","","","","","","","","","","",""
"","","","","","image-keyboard-response","46","141134","0.0-2.0-5.0-1.12","63f57759284ce2f495e4442d","C3","batch3","","2670.1000003814697","stim/no_30_1_b.png","j","pattern_response","true","j","pattern_13","2670.1000003814697","true","9","","","","","","","","","","","","","","","","","","",""
"","","","","","html-keyboard-response","47","142446","0.0-2.0-5.0-0.13","63f57759284ce2f495e4442d","C3","batch3","","null","<p class=block-text>Trial 14 out of 78</p>","null","pattern_show_trial_num","","","","","","","","","","","","","","","","","","","","","","","","",""
"","","","","","image-keyboard-response","48","143668","0.0-2.0-5.0-1.13","63f57759284ce2f495e4442d","C3","batch3","","1220.4000000953674","stim/yes_17_ver_b1_b.png","f","pattern_response","true","f","pattern_46","1220.4000000953674","true","10","","","","","","","","","","","","","","","","","","",""
"","","","","","html-keyboard-response","49","144982","0.0-2.0-5.0-0.14","63f57759284ce2f495e4442d","C3","batch3","","null","<p class=block-text>Trial 15 out of 78</p>","null","pattern_show_trial_num","","","","","","","","","","","","","","","","","","","","","","","","",""
"","","","","","image-keyboard-response","50","151082","0.0-2.0-5.0-1.14","63f57759284ce2f495e4442d","C3","batch3","","6098.700000286102","stim/no_67_1.png","j","pattern_response","true","j","pattern_39","6098.700000286102","true","11","","","","","","","","","","","","","","","","","","",""
"","","","","","html-keyboard-response","51","152398","0.0-2.0-5.0-0.15","63f57759284ce2f495e4442d","C3","batch3","","null","<p class=block-text>Trial 16 out of 78</p>","null","pattern_show_trial_num","","","","","","","","","","","","","","","","","","","","","","","","",""
"","","","","","image-keyboard-response","52","153758","0.0-2.0-5.0-1.15","63f57759284ce2f495e4442d","C3","batch3","","1357.8000001907349","stim/yes_37_hor_w1_w.png","f","pattern_response","true","f","pattern_60","1357.8000001907349","true","12","","","","","","","","","","","","","","","","","","",""
"","","","","","html-keyboard-response","53","155070","0.0-2.0-5.0-0.16","63f57759284ce2f495e4442d","C3","batch3","","null","<p class=block-text>Trial 17 out of 78</p>","null","pattern_show_trial_num","","","","","","","","","","","","","","","","","","","","","","","","",""
"","","","","","image-keyboard-response","54","159912","0.0-2.0-5.0-1.16","63f57759284ce2f495e4442d","C3","batch3","","4840.099999904633","stim/no_43_2_b.png","j","pattern_response","true","j","pattern_23","4840.099999904633","true","13","","","","","","","","","","","","","","","","","","",""
"","","","","","html-keyboard-response","55","161222","0.0-2.0-5.0-0.17","63f57759284ce2f495e4442d","C3","batch3","","null","<p class=block-text>Trial 18 out of 78</p>","null","pattern_show_trial_num","","","","","","","","","","","","","","","","","","","","","","","","",""
"","","","","","image-keyboard-response","56","163839","0.0-2.0-5.0-1.17","63f57759284ce2f495e4442d","C3","batch3","","2612.699999809265","stim/no_28_2.png","j","pattern_response","true","j","pattern_11","2612.699999809265","true","14","","","","","","","","","","","","","","","","","","",""
"","","","","","html-keyboard-response","57","165150","0.0-2.0-5.0-0.18","63f57759284ce2f495e4442d","C3","batch3","","null","<p class=block-text>Trial 19 out of 78</p>","null","pattern_show_trial_num","","","","","","","","","","","","","","","","","","","","","","","","",""
"","","","","","image-keyboard-response","58","166344","0.0-2.0-5.0-1.18","63f57759284ce2f495e4442d","C3","batch3","","1191.5","stim/yes_36_ver_w1_w.png","f","pattern_response","true","f","pattern_58","1191.5","true","15","","","","","","","","","","","","","","","","","","",""
"","","","","","html-keyboard-response","59","167654","0.0-2.0-5.0-0.19","63f57759284ce2f495e4442d","C3","batch3","","null","<p class=block-text>Trial 20 out of 78</p>","null","pattern_show_trial_num","","","","","","","","","","","","","","","","","","","","","","","","",""
"","","","","","image-keyboard-response","60","172243","0.0-2.0-5.0-1.19","63f57759284ce2f495e4442d","C3","batch3","","4586.89999961853","stim/no_51_1.png","j","pattern_response","true","j","pattern_31","4586.89999961853","true","16","","","","","","","","","","","","","","","","","","",""
"","","","","","html-keyboard-response","61","173558","0.0-2.0-5.0-0.20","63f57759284ce2f495e4442d","C3","batch3","","null","<p class=block-text>Trial 21 out of 78</p>","null","pattern_show_trial_num","","","","","","","","","","","","","","","","","","","","","","","","",""
"","","","","","image-keyboard-response","62","175232","0.0-2.0-5.0-1.20","63f57759284ce2f495e4442d","C3","batch3","","1672","stim/no_15_1_w.png","j","pattern_response","true","j","pattern_03","1672","true","17","","","","","","","","","","","","","","","","","","",""
"","","","","","html-keyboard-response","63","176542","0.0-2.0-5.0-0.21","63f57759284ce2f495e4442d","C3","batch3","","null","<p class=block-text>Trial 22 out of 78</p>","null","pattern_show_trial_num","","","","","","","","","","","","","","","","","","","","","","","","",""
"","","","","","image-keyboard-response","64","177622","0.0-2.0-5.0-1.21","63f57759284ce2f495e4442d","C3","batch3","","1078.0999999046326","stim/yes_12_hor_w1_w.png","f","pattern_response","true","f","pattern_42","1078.0999999046326","true","18","","","","","","","","","","","","","","","","","","",""
"","","","","","html-keyboard-response","65","178934","0.0-2.0-5.0-0.22","63f57759284ce2f495e4442d","C3","batch3","","null","<p class=block-text>Trial 23 out of 78</p>","null","pattern_show_trial_num","","","","","","","","","","","","","","","","","","","","","","","","",""
"","","","","","image-keyboard-response","66","181041","0.0-2.0-5.0-1.22","63f57759284ce2f495e4442d","C3","batch3","","2104.7999997138977","stim/no_25_1_b.png","j","pattern_response","true","j","pattern_09","2104.7999997138977","true","19","","","","","","","","","","","","","","","","","","",""
"","","","","","html-keyboard-response","67","182350","0.0-2.0-5.0-0.23","63f57759284ce2f495e4442d","C3","batch3","","null","<p class=block-text>Trial 24 out of 78</p>","null","pattern_show_trial_num","","","","","","","","","","","","","","","","","","","","","","","","",""
"","","","","","image-keyboard-response","68","187590","0.0-2.0-5.0-1.23","63f57759284ce2f495e4442d","C3","batch3","","5238","stim/no_53_1_b.png","j","pattern_response","true","j","pattern_33","5238","true","20","","","","","","","","","","","","","","","","","","",""
"","","","","","html-keyboard-response","69","188902","0.0-2.0-5.0-0.24","63f57759284ce2f495e4442d","C3","batch3","","null","<p class=block-text>Trial 25 out of 78</p>","null","pattern_show_trial_num","","","","","","","","","","","","","","","","","","","","","","","","",""
"","","","","","image-keyboard-response","70","190454","0.0-2.0-5.0-1.24","63f57759284ce2f495e4442d","C3","batch3","","1550.5","stim/no_22_1_b.png","j","pattern_response","true","j","pattern_07","1550.5","true","21","","","","","","","","","","","","","","","","","","",""
"","","","","","html-keyboard-response","71","191766","0.0-2.0-5.0-0.25","63f57759284ce2f495e4442d","C3","batch3","","null","<p class=block-text>Trial 26 out of 78</p>","null","pattern_show_trial_num","","","","","","","","","","","","","","","","","","","","","","","","",""
"","","","","","image-keyboard-response","72","197008","0.0-2.0-5.0-1.25","63f57759284ce2f495e4442d","C3","batch3","","5240.799999713898","stim/yes_53_ver_b1_b.png","j","pattern_response","false","f","pattern_74","5240.799999713898","false","21","","","","","","","","","","","","","","","","","","",""
"","","","","","html-keyboard-response","73","198318","0.0-2.0-5.0-0.26","63f57759284ce2f495e4442d","C3","batch3","","null","<p class=block-text>Trial 27 out of 78</p>","null","pattern_show_trial_num","","","","","","","","","","","","","","","","","","","","","","","","",""
"","","","","","image-keyboard-response","74","205463","0.0-2.0-5.0-1.26","63f57759284ce2f495e4442d","C3","batch3","","7142.800000190735","stim/yes_63_dia_b1.png","f","pattern_response","true","f","pattern_78","7142.800000190735","true","22","","","","","","","","","","","","","","","","","","",""
"","","","","","html-keyboard-response","75","206774","0.0-2.0-5.0-0.27","63f57759284ce2f495e4442d","C3","batch3","","null","<p class=block-text>Trial 28 out of 78</p>","null","pattern_show_trial_num","","","","","","","","","","","","","","","","","","","","","","","","",""
"","","","","","image-keyboard-response","76","208080","0.0-2.0-5.0-1.27","63f57759284ce2f495e4442d","C3","batch3","","1303.7000002861023","stim/yes_30_ver_b1_b.png","f","pattern_response","true","f","pattern_54","1303.7000002861023","true","23","","","","","","","","","","","","","","","","","","",""
"","","","","","html-keyboard-response","77","209390","0.0-2.0-5.0-0.28","63f57759284ce2f495e4442d","C3","batch3","","null","<p class=block-text>Trial 29 out of 78</p>","null","pattern_show_trial_num","","","","","","","","","","","","","","","","","","","","","","","","",""
"","","","","","image-keyboard-response","78","215607","0.0-2.0-5.0-1.28","63f57759284ce2f495e4442d","C3","batch3","","6214.799999713898","stim/no_58_1_w.png","j","pattern_response","true","j","pattern_35","6214.799999713898","true","24","","","","","","","","","","","","","","","","","","",""
"","","","","","html-keyboard-response","79","216918","0.0-2.0-5.0-0.29","63f57759284ce2f495e4442d","C3","batch3","","null","<p class=block-text>Trial 30 out of 78</p>","null","pattern_show_trial_num","","","","","","","","","","","","","","","","","","","","","","","","",""
"","","","","","image-keyboard-response","80","222942","0.0-2.0-5.0-1.29","63f57759284ce2f495e4442d","C3","batch3","","6022","stim/no_45_1_w.png","j","pattern_response","true","j","pattern_25","6022","true","25","","","","","","","","","","","","","","","","","","",""
"","","","","","html-keyboard-response","81","224254","0.0-2.0-5.0-0.30","63f57759284ce2f495e4442d","C3","batch3","","null","<p class=block-text>Trial 31 out of 78</p>","null","pattern_show_trial_num","","","","","","","","","","","","","","","","","","","","","","","","",""
"","","","","","image-keyboard-response","82","225431","0.0-2.0-5.0-1.30","63f57759284ce2f495e4442d","C3","batch3","","1174.7999997138977","stim/yes_29_hor_b1_b.png","f","pattern_response","true","f","pattern_52","1174.7999997138977","true","26","","","","","","","","","","","","","","","","","","",""
"","","","","","html-keyboard-response","83","226742","0.0-2.0-5.0-0.31","63f57759284ce2f495e4442d","C3","batch3","","null","<p class=block-text>Trial 32 out of 78</p>","null","pattern_show_trial_num","","","","","","","","","","","","","","","","","","","","","","","","",""
"","","","","","image-keyboard-response","84","227935","0.0-2.0-5.0-1.31","63f57759284ce2f495e4442d","C3","batch3","","1190.7999997138977","stim/yes_46_ver_b1_b.png","f","pattern_response","true","f","pattern_68","1190.7999997138977","true","27","","","","","","","","","","","","","","","","","","",""
"","","","","","html-keyboard-response","85","229246","0.0-2.0-5.0-0.32","63f57759284ce2f495e4442d","C3","batch3","","null","<p class=block-text>Trial 33 out of 78</p>","null","pattern_show_trial_num","","","","","","","","","","","","","","","","","","","","","","","","",""
"","","","","","image-keyboard-response","86","233248","0.0-2.0-5.0-1.32","63f57759284ce2f495e4442d","C3","batch3","","3999.699999809265","stim/no_36_1_b.png","j","pattern_response","true","j","pattern_17","3999.699999809265","true","28","","","","","","","","","","","","","","","","","","",""
"","","","","","html-keyboard-response","87","234558","0.0-2.0-5.0-0.33","63f57759284ce2f495e4442d","C3","batch3","","null","<p class=block-text>Trial 34 out of 78</p>","null","pattern_show_trial_num","","","","","","","","","","","","","","","","","","","","","","","","",""
"","","","","","image-keyboard-response","88","235581","0.0-2.0-5.0-1.33","63f57759284ce2f495e4442d","C3","batch3","","1021.1000003814697","stim/yes_15_dia_b1u_b.png","f","pattern_response","true","f","pattern_44","1021.1000003814697","true","29","","","","","","","","","","","","","","","","","","",""
"","","","","","html-keyboard-response","89","236894","0.0-2.0-5.0-0.34","63f57759284ce2f495e4442d","C3","batch3","","null","<p class=block-text>Trial 35 out of 78</p>","null","pattern_show_trial_num","","","","","","","","","","","","","","","","","","","","","","","","",""
"","","","","","image-keyboard-response","90","238032","0.0-2.0-5.0-1.34","63f57759284ce2f495e4442d","C3","batch3","","1136","stim/no_12_1.png","j","pattern_response","true","j","pattern_01","1136","true","30","","","","","","","","","","","","","","","","","","",""
"","","","","","html-keyboard-response","91","239342","0.0-2.0-5.0-0.35","63f57759284ce2f495e4442d","C3","batch3","","null","<p class=block-text>Trial 36 out of 78</p>","null","pattern_show_trial_num","","","","","","","","","","","","","","","","","","","","","","","","",""
"","","","","","image-keyboard-response","92","243799","0.0-2.0-5.0-1.35","63f57759284ce2f495e4442d","C3","batch3","","4455.099999904633","stim/no_37_2_w.png","j","pattern_response","true","j","pattern_19","4455.099999904633","true","31","","","","","","","","","","","","","","","","","","",""
"","","","","","html-keyboard-response","93","245111","0.0-2.0-5.0-0.36","63f57759284ce2f495e4442d","C3","batch3","","null","<p class=block-text>Trial 37 out of 78</p>","null","pattern_show_trial_num","","","","","","","","","","","","","","","","","","","","","","","","",""
"","","","","","image-keyboard-response","94","248638","0.0-2.0-5.0-1.36","63f57759284ce2f495e4442d","C3","batch3","","3525.7000002861023","stim/no_47_1_b.png","j","pattern_response","true","j","pattern_27","3525.7000002861023","true","32","","","","","","","","","","","","","","","","","","",""
"","","","","","html-keyboard-response","95","249950","0.0-2.0-5.0-0.37","63f57759284ce2f495e4442d","C3","batch3","","null","<p class=block-text>Trial 38 out of 78</p>","null","pattern_show_trial_num","","","","","","","","","","","","","","","","","","","","","","","","",""
"","","","","","image-keyboard-response","96","254546","0.0-2.0-5.0-1.37","63f57759284ce2f495e4442d","C3","batch3","","4594.300000190735","stim/yes_42_dia_w1_w.png","f","pattern_response","true","f","pattern_64","4594.300000190735","true","33","","","","","","","","","","","","","","","","","","",""
"","","","","","html-keyboard-response","97","255862","0.0-2.0-5.0-0.38","63f57759284ce2f495e4442d","C3","batch3","","null","<p class=block-text>Trial 39 out of 78</p>","null","pattern_show_trial_num","","","","","","","","","","","","","","","","","","","","","","","","",""
"","","","","","image-keyboard-response","98","259438","0.0-2.0-5.0-1.38","63f57759284ce2f495e4442d","C3","batch3","","3574.300000190735","stim/yes_44_ver_w1_w.png","j","pattern_response","false","f","pattern_66","3574.300000190735","false","33","","","","","","","","","","","","","","","","","","",""
"","","","","","image-keyboard-response","99","262770","0.0-2.0-6.0","63f57759284ce2f495e4442d","C3","batch3","","2826.300000190735","stim/empty_board.png","j","attention_check","true","j","","","","","500","[""f"",""j""]","","","","","","","","","","","","","","","","",""
"","","","","","html-keyboard-response","100","263574","0.0-2.0-7.0-0.0","63f57759284ce2f495e4442d","C3","batch3","","null","<p class=block-text>Trial 40 out of 78</p>","null","pattern_show_trial_num","","","","","","","","","","","","","","","","","","","","","","","","",""
"","","","","","image-keyboard-response","101","265198","0.0-2.0-7.0-1.0","63f57759284ce2f495e4442d","C3","batch3","","1622.2000002861023","stim/yes_55_hor_w1_w.png","f","pattern_response","true","f","pattern_75","1622.2000002861023","true","34","","","","","","","","","","","","","","","","","","",""
"","","","","","html-keyboard-response","102","266510","0.0-2.0-7.0-0.1","63f57759284ce2f495e4442d","C3","batch3","","null","<p class=block-text>Trial 41 out of 78</p>","null","pattern_show_trial_num","","","","","","","","","","","","","","","","","","","","","","","","",""
"","","","","","image-keyboard-response","103","269502","0.0-2.0-7.0-1.1","63f57759284ce2f495e4442d","C3","batch3","","2990.0999999046326","stim/no_34_1_b.png","j","pattern_response","true","j","pattern_16","2990.0999999046326","true","35","","","","","","","","","","","","","","","","","","",""
"","","","","","html-keyboard-response","104","270814","0.0-2.0-7.0-0.2","63f57759284ce2f495e4442d","C3","batch3","","null","<p class=block-text>Trial 42 out of 78</p>","null","pattern_show_trial_num","","","","","","","","","","","","","","","","","","","","","","","","",""
"","","","","","image-keyboard-response","105","276575","0.0-2.0-7.0-1.2","63f57759284ce2f495e4442d","C3","batch3","","5759.099999904633","stim/no_70_2.png","j","pattern_response","true","j","pattern_40","5759.099999904633","true","36","","","","","","","","","","","","","","","","","","",""
"","","","","","html-keyboard-response","106","277886","0.0-2.0-7.0-0.3","63f57759284ce2f495e4442d","C3","batch3","","null","<p class=block-text>Trial 43 out of 78</p>","null","pattern_show_trial_num","","","","","","","","","","","","","","","","","","","","","","","","",""
"","","","","","image-keyboard-response","107","280407","0.0-2.0-7.0-1.3","63f57759284ce2f495e4442d","C3","batch3","","2519.4000000953674","stim/no_32_1_w.png","j","pattern_response","true","j","pattern_14","2519.4000000953674","true","37","","","","","","","","","","","","","","","","","","",""
"","","","","","html-keyboard-response","108","281718","0.0-2.0-7.0-0.4","63f57759284ce2f495e4442d","C3","batch3","","null","<p class=block-text>Trial 44 out of 78</p>","null","pattern_show_trial_num","","","","","","","","","","","","","","","","","","","","","","","","",""
"","","","","","image-keyboard-response","109","283510","0.0-2.0-7.0-1.4","63f57759284ce2f495e4442d","C3","batch3","","1789.8000001907349","stim/yes_17_dia_w1.png","j","pattern_response","false","f","pattern_45","1789.8000001907349","false","37","","","","","","","","","","","","","","","","","","",""
"","","","","","html-keyboard-response","110","284822","0.0-2.0-7.0-0.5","63f57759284ce2f495e4442d","C3","batch3","","null","<p class=block-text>Trial 45 out of 78</p>","null","pattern_show_trial_num","","","","","","","","","","","","","","","","","","","","","","","","",""
"","","","","","image-keyboard-response","111","286401","0.0-2.0-7.0-1.5","63f57759284ce2f495e4442d","C3","batch3","","1577.4000000953674","stim/yes_52_ver_w1.png","f","pattern_response","true","f","pattern_73","1577.4000000953674","true","38","","","","","","","","","","","","","","","","","","",""
"","","","","","html-keyboard-response","112","287710","0.0-2.0-7.0-0.6","63f57759284ce2f495e4442d","C3","batch3","","null","<p class=block-text>Trial 46 out of 78</p>","null","pattern_show_trial_num","","","","","","","","","","","","","","","","","","","","","","","","",""
"","","","","","image-keyboard-response","113","291579","0.0-2.0-7.0-1.6","63f57759284ce2f495e4442d","C3","batch3","","3867.199999809265","stim/no_52_1.png","j","pattern_response","true","j","pattern_32","3867.199999809265","true","39","","","","","","","","","","","","","","","","","","",""
"","","","","","html-keyboard-response","114","292894","0.0-2.0-7.0-0.7","63f57759284ce2f495e4442d","C3","batch3","","null","<p class=block-text>Trial 47 out of 78</p>","null","pattern_show_trial_num","","","","","","","","","","","","","","","","","","","","","","","","",""
"","","","","","image-keyboard-response","115","295497","0.0-2.0-7.0-1.7","63f57759284ce2f495e4442d","C3","batch3","","2600.8999996185303","stim/no_23_1.png","j","pattern_response","true","j","pattern_08","2600.8999996185303","true","40","","","","","","","","","","","","","","","","","","",""
"","","","","","html-keyboard-response","116","296806","0.0-2.0-7.0-0.8","63f57759284ce2f495e4442d","C3","batch3","","null","<p class=block-text>Trial 48 out of 78</p>","null","pattern_show_trial_num","","","","","","","","","","","","","","","","","","","","","","","","",""
"","","","","","image-keyboard-response","117","298519","0.0-2.0-7.0-1.8","63f57759284ce2f495e4442d","C3","batch3","","1710.9000000953674","stim/no_17_1_w.png","j","pattern_response","true","j","pattern_04","1710.9000000953674","true","41","","","","","","","","","","","","","","","","","","",""
"","","","","","html-keyboard-response","118","299830","0.0-2.0-7.0-0.9","63f57759284ce2f495e4442d","C3","batch3","","null","<p class=block-text>Trial 49 out of 78</p>","null","pattern_show_trial_num","","","","","","","","","","","","","","","","","","","","","","","","",""
"","","","","","image-keyboard-response","119","304535","0.0-2.0-7.0-1.9","63f57759284ce2f495e4442d","C3","batch3","","4703.199999809265","stim/no_36_2_w.png","j","pattern_response","true","j","pattern_18","4703.199999809265","true","42","","","","","","","","","","","","","","","","","","",""
"","","","","","html-keyboard-response","120","305846","0.0-2.0-7.0-0.10","63f57759284ce2f495e4442d","C3","batch3","","null","<p class=block-text>Trial 50 out of 78</p>","null","pattern_show_trial_num","","","","","","","","","","","","","","","","","","","","","","","","",""
"","","","","","image-keyboard-response","121","308865","0.0-2.0-7.0-1.10","63f57759284ce2f495e4442d","C3","batch3","","3016.7000002861023","stim/yes_37_dia_w1.png","f","pattern_response","true","f","pattern_59","3016.7000002861023","true","43","","","","","","","","","","","","","","","","","","",""
"","","","","","html-keyboard-response","122","310174","0.0-2.0-7.0-0.11","63f57759284ce2f495e4442d","C3","batch3","","null","<p class=block-text>Trial 51 out of 78</p>","null","pattern_show_trial_num","","","","","","","","","","","","","","","","","","","","","","","","",""
"","","","","","image-keyboard-response","123","312014","0.0-2.0-7.0-1.11","63f57759284ce2f495e4442d","C3","batch3","","1838","stim/no_20_1_w.png","j","pattern_response","true","j","pattern_06","1838","true","44","","","","","","","","","","","","","","","","","","",""
"","","","","","html-keyboard-response","124","313326","0.0-2.0-7.0-0.12","63f57759284ce2f495e4442d","C3","batch3","","null","<p class=block-text>Trial 52 out of 78</p>","null","pattern_show_trial_num","","","","","","","","","","","","","","","","","","","","","","","","",""
"","","","","","image-keyboard-response","125","318525","0.0-2.0-7.0-1.12","63f57759284ce2f495e4442d","C3","batch3","","5197","stim/no_44_1.png","j","pattern_response","true","j","pattern_24","5197","true","45","","","","","","","","","","","","","","","","","","",""
"","","","","","html-keyboard-response","126","319838","0.0-2.0-7.0-0.13","63f57759284ce2f495e4442d","C3","batch3","","null","<p class=block-text>Trial 53 out of 78</p>","null","pattern_show_trial_num","","","","","","","","","","","","","","","","","","","","","","","","",""
"","","","","","image-keyboard-response","127","322702","0.0-2.0-7.0-1.13","63f57759284ce2f495e4442d","C3","batch3","","2861.9000000953674","stim/yes_31_hor_b1.png","f","pattern_response","true","f","pattern_55","2861.9000000953674","true","46","","","","","","","","","","","","","","","","","","",""
"","","","","","html-keyboard-response","128","324014","0.0-2.0-7.0-0.14","63f57759284ce2f495e4442d","C3","batch3","","null","<p class=block-text>Trial 54 out of 78</p>","null","pattern_show_trial_num","","","","","","","","","","","","","","","","","","","","","","","","",""
"","","","","","image-keyboard-response","129","329638","0.0-2.0-7.0-1.14","63f57759284ce2f495e4442d","C3","batch3","","5622.099999904633","stim/yes_50_dia_w1.png","j","pattern_response","false","f","pattern_71","5622.099999904633","false","46","","","","","","","","","","","","","","","","","","",""
"","","","","","html-keyboard-response","130","330950","0.0-2.0-7.0-0.15","63f57759284ce2f495e4442d","C3","batch3","","null","<p class=block-text>Trial 55 out of 78</p>","null","pattern_show_trial_num","","","","","","","","","","","","","","","","","","","","","","","","",""
"","","","","","image-keyboard-response","131","337021","0.0-2.0-7.0-1.15","63f57759284ce2f495e4442d","C3","batch3","","6068.900000095367","stim/no_62_1_w.png","j","pattern_response","true","j","pattern_36","6068.900000095367","true","47","","","","","","","","","","","","","","","","","","",""
"","","","","","html-keyboard-response","132","338334","0.0-2.0-7.0-0.16","63f57759284ce2f495e4442d","C3","batch3","","null","<p class=block-text>Trial 56 out of 78</p>","null","pattern_show_trial_num","","","","","","","","","","","","","","","","","","","","","","","","",""
"","","","","","image-keyboard-response","133","340250","0.0-2.0-7.0-1.16","63f57759284ce2f495e4442d","C3","batch3","","1914.2000002861023","stim/yes_43_ver_w1_w.png","f","pattern_response","true","f","pattern_65","1914.2000002861023","true","48","","","","","","","","","","","","","","","","","","",""
"","","","","","html-keyboard-response","134","341558","0.0-2.0-7.0-0.17","63f57759284ce2f495e4442d","C3","batch3","","null","<p class=block-text>Trial 57 out of 78</p>","null","pattern_show_trial_num","","","","","","","","","","","","","","","","","","","","","","","","",""
"","","","","","image-keyboard-response","135","343047","0.0-2.0-7.0-1.17","63f57759284ce2f495e4442d","C3","batch3","","1486.5999999046326","stim/yes_25_hor_b1_b.png","f","pattern_response","true","f","pattern_49","1486.5999999046326","true","49","","","","","","","","","","","","","","","","","","",""
"","","","","","html-keyboard-response","136","344358","0.0-2.0-7.0-0.18","63f57759284ce2f495e4442d","C3","batch3","","null","<p class=block-text>Trial 58 out of 78</p>","null","pattern_show_trial_num","","","","","","","","","","","","","","","","","","","","","","","","",""
"","","","","","image-keyboard-response","137","350482","0.0-2.0-7.0-1.18","63f57759284ce2f495e4442d","C3","batch3","","6121.699999809265","stim/no_65_1_b.png","j","pattern_response","true","j","pattern_38","6121.699999809265","true","50","","","","","","","","","","","","","","","","","","",""
"","","","","","html-keyboard-response","138","351790","0.0-2.0-7.0-0.19","63f57759284ce2f495e4442d","C3","batch3","","null","<p class=block-text>Trial 59 out of 78</p>","null","pattern_show_trial_num","","","","","","","","","","","","","","","","","","","","","","","","",""
"","","","","","image-keyboard-response","139","353858","0.0-2.0-7.0-1.19","63f57759284ce2f495e4442d","C3","batch3","","2065.7000002861023","stim/yes_45_hor_b2_b.png","f","pattern_response","true","f","pattern_67","2065.7000002861023","true","51","","","","","","","","","","","","","","","","","","",""
"","","","","","html-keyboard-response","140","355166","0.0-2.0-7.0-0.20","63f57759284ce2f495e4442d","C3","batch3","","null","<p class=block-text>Trial 60 out of 78</p>","null","pattern_show_trial_num","","","","","","","","","","","","","","","","","","","","","","","","",""
"","","","","","image-keyboard-response","141","360967","0.0-2.0-7.0-1.20","63f57759284ce2f495e4442d","C3","batch3","","5799","stim/yes_67_hor_b1.png","f","pattern_response","true","f","pattern_79","5799","true","52","","","","","","","","","","","","","","","","","","",""
"","","","","","html-keyboard-response","142","362278","0.0-2.0-7.0-0.21","63f57759284ce2f495e4442d","C3","batch3","","null","<p class=block-text>Trial 61 out of 78</p>","null","pattern_show_trial_num","","","","","","","","","","","","","","","","","","","","","","","","",""
"","","","","","image-keyboard-response","143","366999","0.0-2.0-7.0-1.21","63f57759284ce2f495e4442d","C3","batch3","","4719.10000038147","stim/no_42_1_w.png","j","pattern_response","true","j","pattern_22","4719.10000038147","true","53","","","","","","","","","","","","","","","","","","",""
"","","","","","html-keyboard-response","144","368311","0.0-2.0-7.0-0.22","63f57759284ce2f495e4442d","C3","batch3","","null","<p class=block-text>Trial 62 out of 78</p>","null","pattern_show_trial_num","","","","","","","","","","","","","","","","","","","","","","","","",""
"","","","","","image-keyboard-response","145","373278","0.0-2.0-7.0-1.22","63f57759284ce2f495e4442d","C3","batch3","","4966.099999904633","stim/yes_48_dia_w1_w.png","j","pattern_response","false","f","pattern_69","4966.099999904633","false","53","","","","","","","","","","","","","","","","","","",""
"","","","","","html-keyboard-response","146","374590","0.0-2.0-7.0-0.23","63f57759284ce2f495e4442d","C3","batch3","","null","<p class=block-text>Trial 63 out of 78</p>","null","pattern_show_trial_num","","","","","","","","","","","","","","","","","","","","","","","","",""
"","","","","","image-keyboard-response","147","376982","0.0-2.0-7.0-1.23","63f57759284ce2f495e4442d","C3","batch3","","2390.5","stim/no_26_1_w.png","j","pattern_response","true","j","pattern_10","2390.5","true","54","","","","","","","","","","","","","","","","","","",""
"","","","","","html-keyboard-response","148","378294","0.0-2.0-7.0-0.24","63f57759284ce2f495e4442d","C3","batch3","","null","<p class=block-text>Trial 64 out of 78</p>","null","pattern_show_trial_num","","","","","","","","","","","","","","","","","","","","","","","","",""
"","","","","","image-keyboard-response","149","382357","0.0-2.0-7.0-1.24","63f57759284ce2f495e4442d","C3","batch3","","4061.2000002861023","stim/no_48_1_w.png","j","pattern_response","true","j","pattern_28","4061.2000002861023","true","55","","","","","","","","","","","","","","","","","","",""
"","","","","","html-keyboard-response","150","383670","0.0-2.0-7.0-0.25","63f57759284ce2f495e4442d","C3","batch3","","null","<p class=block-text>Trial 65 out of 78</p>","null","pattern_show_trial_num","","","","","","","","","","","","","","","","","","","","","","","","",""
"","","","","","image-keyboard-response","151","386222","0.0-2.0-7.0-1.25","63f57759284ce2f495e4442d","C3","batch3","","2550.2000002861023","stim/no_29_1_b.png","j","pattern_response","true","j","pattern_12","2550.2000002861023","true","56","","","","","","","","","","","","","","","","","","",""
"","","","","","html-keyboard-response","152","387534","0.0-2.0-7.0-0.26","63f57759284ce2f495e4442d","C3","batch3","","null","<p class=block-text>Trial 66 out of 78</p>","null","pattern_show_trial_num","","","","","","","","","","","","","","","","","","","","","","","","",""
"","","","","","image-keyboard-response","153","391918","0.0-2.0-7.0-1.26","63f57759284ce2f495e4442d","C3","batch3","","4382","stim/no_50_1.png","j","pattern_response","true","j","pattern_30","4382","true","57","","","","","","","","","","","","","","","","","","",""
"","","","","","html-keyboard-response","154","393230","0.0-2.0-7.0-0.27","63f57759284ce2f495e4442d","C3","batch3","","null","<p class=block-text>Trial 67 out of 78</p>","null","pattern_show_trial_num","","","","","","","","","","","","","","","","","","","","","","","","",""
"","","","","","image-keyboard-response","155","394983","0.0-2.0-7.0-1.27","63f57759284ce2f495e4442d","C3","batch3","","1750.8000001907349","stim/yes_38_hor_b1_b.png","f","pattern_response","true","f","pattern_61","1750.8000001907349","true","58","","","","","","","","","","","","","","","","","","",""
"","","","","","html-keyboard-response","156","396294","0.0-2.0-7.0-0.28","63f57759284ce2f495e4442d","C3","batch3","","null","<p class=block-text>Trial 68 out of 78</p>","null","pattern_show_trial_num","","","","","","","","","","","","","","","","","","","","","","","","",""
"","","","","","image-keyboard-response","157","401639","0.0-2.0-7.0-1.28","63f57759284ce2f495e4442d","C3","batch3","","5343.89999961853","stim/yes_60_ver_b1_b.png","f","pattern_response","true","f","pattern_77","5343.89999961853","true","59","","","","","","","","","","","","","","","","","","",""
"","","","","","html-keyboard-response","158","402950","0.0-2.0-7.0-0.29","63f57759284ce2f495e4442d","C3","batch3","","null","<p class=block-text>Trial 69 out of 78</p>","null","pattern_show_trial_num","","","","","","","","","","","","","","","","","","","","","","","","",""
"","","","","","image-keyboard-response","159","407454","0.0-2.0-7.0-1.29","63f57759284ce2f495e4442d","C3","batch3","","4501.700000286102","stim/no_38_1_b.png","j","pattern_response","true","j","pattern_20","4501.700000286102","true","60","","","","","","","","","","","","","","","","","","",""
"","","","","","html-keyboard-response","160","408766","0.0-2.0-7.0-0.30","63f57759284ce2f495e4442d","C3","batch3","","null","<p class=block-text>Trial 70 out of 78</p>","null","pattern_show_trial_num","","","","","","","","","","","","","","","","","","","","","","","","",""
"","","","","","image-keyboard-response","161","410414","0.0-2.0-7.0-1.30","63f57759284ce2f495e4442d","C3","batch3","","1645.8000001907349","stim/no_13_2_b.png","j","pattern_response","true","j","pattern_02","1645.8000001907349","true","61","","","","","","","","","","","","","","","","","","",""
"","","","","","html-keyboard-response","162","411726","0.0-2.0-7.0-0.31","63f57759284ce2f495e4442d","C3","batch3","","null","<p class=block-text>Trial 71 out of 78</p>","null","pattern_show_trial_num","","","","","","","","","","","","","","","","","","","","","","","","",""
"","","","","","image-keyboard-response","163","412808","0.0-2.0-7.0-1.31","63f57759284ce2f495e4442d","C3","batch3","","1080","stim/yes_14_hor_b1_w.png","f","pattern_response","true","f","pattern_43","1080","true","62","","","","","","","","","","","","","","","","","","",""
"","","","","","html-keyboard-response","164","414118","0.0-2.0-7.0-0.32","63f57759284ce2f495e4442d","C3","batch3","","null","<p class=block-text>Trial 72 out of 78</p>","null","pattern_show_trial_num","","","","","","","","","","","","","","","","","","","","","","","","",""
"","","","","","image-keyboard-response","165","416736","0.0-2.0-7.0-1.32","63f57759284ce2f495e4442d","C3","batch3","","2615.9000000953674","stim/yes_29_ver_w1.png","f","pattern_response","true","f","pattern_53","2615.9000000953674","true","63","","","","","","","","","","","","","","","","","","",""
"","","","","","html-keyboard-response","166","418046","0.0-2.0-7.0-0.33","63f57759284ce2f495e4442d","C3","batch3","","null","<p class=block-text>Trial 73 out of 78</p>","null","pattern_show_trial_num","","","","","","","","","","","","","","","","","","","","","","","","",""
"","","","","","image-keyboard-response","167","419410","0.0-2.0-7.0-1.33","63f57759284ce2f495e4442d","C3","batch3","","1361.8999996185303","stim/yes_22_ver_w1.png","f","pattern_response","true","f","pattern_47","1361.8999996185303","true","64","","","","","","","","","","","","","","","","","","",""
"","","","","","html-keyboard-response","168","420718","0.0-2.0-7.0-0.34","63f57759284ce2f495e4442d","C3","batch3","","null","<p class=block-text>Trial 74 out of 78</p>","null","pattern_show_trial_num","","","","","","","","","","","","","","","","","","","","","","","","",""
"","","","","","image-keyboard-response","169","425245","0.0-2.0-7.0-1.34","63f57759284ce2f495e4442d","C3","batch3","","4525.5","stim/no_55_1_w.png","j","pattern_response","true","j","pattern_34","4525.5","true","65","","","","","","","","","","","","","","","","","","",""
"","","","","","html-keyboard-response","170","426558","0.0-2.0-7.0-0.35","63f57759284ce2f495e4442d","C3","batch3","","null","<p class=block-text>Trial 75 out of 78</p>","null","pattern_show_trial_num","","","","","","","","","","","","","","","","","","","","","","","","",""
"","","","","","image-keyboard-response","171","427768","0.0-2.0-7.0-1.35","63f57759284ce2f495e4442d","C3","batch3","","1208.3000001907349","stim/yes_28_ver_b1.png","f","pattern_response","true","f","pattern_51","1208.3000001907349","true","66","","","","","","","","","","","","","","","","","","",""
"","","","","","html-keyboard-response","172","429078","0.0-2.0-7.0-0.36","63f57759284ce2f495e4442d","C3","batch3","","null","<p class=block-text>Trial 76 out of 78</p>","null","pattern_show_trial_num","","","","","","","","","","","","","","","","","","","","","","","","",""
"","","","","","image-keyboard-response","173","433664","0.0-2.0-7.0-1.36","63f57759284ce2f495e4442d","C3","batch3","","4584","stim/no_46_1_b.png","j","pattern_response","true","j","pattern_26","4584","true","67","","","","","","","","","","","","","","","","","","",""
"","","","","","html-keyboard-response","174","434974","0.0-2.0-7.0-0.37","63f57759284ce2f495e4442d","C3","batch3","","null","<p class=block-text>Trial 77 out of 78</p>","null","pattern_show_trial_num","","","","","","","","","","","","","","","","","","","","","","","","",""
"","","","","","image-keyboard-response","175","438119","0.0-2.0-7.0-1.37","63f57759284ce2f495e4442d","C3","batch3","","3143.2000002861023","stim/yes_35_dia_b1.png","f","pattern_response","true","f","pattern_57","3143.2000002861023","true","68","","","","","","","","","","","","","","","","","","",""
"","","","","","html-keyboard-response","176","439430","0.0-2.0-7.0-0.38","63f57759284ce2f495e4442d","C3","batch3","","null","<p class=block-text>Trial 78 out of 78</p>","null","pattern_show_trial_num","","","","","","","","","","","","","","","","","","","","","","","","",""
"","","","","","image-keyboard-response","177","444022","0.0-2.0-7.0-1.38","63f57759284ce2f495e4442d","C3","batch3","","4590.099999904633","stim/yes_40_dia_b1_b.png","f","pattern_response","true","f","pattern_63","4590.099999904633","true","69","","","","","","","","","","","","","","","","","","",""
"","","","","","html-button-response","178","529249","0.0-2.0-8.0","63f57759284ce2f495e4442d","C3","batch3","","84722.30000019073","<p class = block-text>This concludes the 4-in-a-row detection game.Thank you for your responses!<br>
            You responded correctly on 88% of the trials.<br>
            When you are ready, press ""Continue"" button to continue </p>","0","","","","","","","","","","","","","","","","","","","","","","","","","",""
"true","","","","","fullscreen","179","532566","0.0-3.0-0.0","63f57759284ce2f495e4442d","C3","batch3","","","","","","","","","","","","","","","","","","","","","","","","","","","","","",""
"","","","","","instructions","180","603302","0.0-3.0-1.0-0.0-0.0","63f57759284ce2f495e4442d","C3","batch3","[{""page_index"":0,""viewing_time"":11944},{""page_index"":1,""viewing_time"":12468.299999713898},{""page_index"":2,""viewing_time"":7324.900000095367},{""page_index"":3,""viewing_time"":14918.900000095367},{""page_index"":4,""viewing_time"":8247.400000095367},{""page_index"":5,""viewing_time"":10758.5},{""page_index"":6,""viewing_time"":5073.5}]","70735.69999980927","","","tol-instructions","","","","","","","","","","","","","","","","","","","","","","","","",""
"","","","","","html-button-response","181","605005","0.0-3.0-1.0-1.0-0.0","63f57759284ce2f495e4442d","C3","batch3","","1701.5","<p class=block-text> Let's answer a few questions <br>","0","tol_enter_quiz","","","","","","","","","","","","","","","","","","","","","","","","",""
"","","","","","html-button-response","182","612042","0.0-3.0-1.0-1.0-1.0","63f57759284ce2f495e4442d","C3","batch3","","7036.799999713898","<p class = block-text>True or False: You can only move the ball on top of a peg. <br></p>","0","tol_quiz","true","","","","","","","","","","","","","","","","","","","","","","","",""
"","","","","","html-button-response","183","613596","0.0-3.0-1.0-1.0-2.0","63f57759284ce2f495e4442d","C3","batch3","","1552.5","<p class = block-text>Correct! You can only move the ball on top of a peg.</p>","0","tol_quiz_feedback","","","","","","","","","","","","","","","","","","","","","","","","",""
"","","","","","html-button-response","184","617559","0.0-3.0-1.0-1.0-3.0","63f57759284ce2f495e4442d","C3","batch3","","3962.9000000953674","<p class = block-text>True or False: You should try to match your board with the target board with fewest moves possible. <br></p>","0","tol_quiz","true","","","","","","","","","","","","","","","","","","","","","","","",""
"","","","","","html-button-response","185","618297","0.0-3.0-1.0-1.0-4.0","63f57759284ce2f495e4442d","C3","batch3","","736.6999998092651","<p class = block-text>Correct! </p>","0","tol_quiz_feedback","","","","","","","","","","","","","","","","","","","","","","","","",""
"","","","","","html-button-response","186","620272","0.0-3.0-2.0","63f57759284ce2f495e4442d","C3","batch3","","1974.1999998092651","<p class=block-text> Now that you've understood the game, let's practice a few easier examples before we start!<br> <br>","0","","","","","","","","","","","","","","","","","","","","","","","","","",""
"","","","","","single-stim-button","187","623964","0.0-3.0-3.0-0.0","63f57759284ce2f495e4442d","C3","batch3","","3690","","","tol_practice","","","","","","","","","tol_peg_2","3690","3690","0","[[1,2,0],[0,0],[0]]","1","[[1,2,0],[0,0],[3]]","practice","3690","","","","","","","",""
"","","","","","single-stim-button","188","626227","0.0-3.0-3.0-1.0","63f57759284ce2f495e4442d","C3","batch3","","2263","","","tol_practice","","","","","","","","","tol_peg_3","2263","2263","0","[[1,2,0],[0,0],[3]]","1","[[1,2,0],[0,0],[3]]","practice","2263","","","","","","","",""
"","","","","","poldrack-single-stim","189","627230","0.0-3.0-4.0","63f57759284ce2f495e4442d","C3","batch3","","-1","","","tol_feedback","true","","","","","","","","","1000","1000","500","","","","","","-1","none","true","","0","","",""
"","","","","","single-stim-button","190","633534","0.0-3.0-5.0-0.0","63f57759284ce2f495e4442d","C3","batch3","","6302","","","tol_practice","","","","","","","","","tol_peg_1","6302","6302","0","[[1,0,0],[3,0],[0]]","2","[[0,0,0],[3,1],[2]]","practice","6302","","","","","","","",""
"","","","","","single-stim-button","191","634965","0.0-3.0-5.0-1.0","63f57759284ce2f495e4442d","C3","batch3","","1431","","","tol_practice","","","","","","","","","tol_peg_3","1431","1431","0","[[1,0,0],[3,0],[2]]","2","[[0,0,0],[3,1],[2]]","practice","1431","","","","","","","",""
"","","","","","single-stim-button","192","638084","0.0-3.0-5.1-0.1","63f57759284ce2f495e4442d","C3","batch3","","3118","","","tol_practice","","","","","","","","","tol_peg_1","3118","3118","0","[[0,0,0],[3,0],[2]]","3","[[0,0,0],[3,1],[2]]","practice","3118","","","","","","","",""
"","","","","","single-stim-button","193","639278","0.0-3.0-5.1-1.1","63f57759284ce2f495e4442d","C3","batch3","","1194","","","tol_practice","","","","","","","","","tol_peg_2","1194","1194","0","[[0,0,0],[3,1],[2]]","3","[[0,0,0],[3,1],[2]]","practice","1194","","","","","","","",""
"","","","","","poldrack-single-stim","194","640286","0.0-3.0-6.0","63f57759284ce2f495e4442d","C3","batch3","","-1","","","tol_feedback","true","","","","","","","","","1000","1000","500","","","","","","-1","none","true","","0","","",""
"","","","","","single-stim-button","195","644951","0.0-3.0-7.0-0.0","63f57759284ce2f495e4442d","C3","batch3","","4664","","","tol_practice","","","","","","","","","tol_peg_2","4664","4664","0","[[1,2,0],[0,0],[0]]","4","[[1,0,0],[2,0],[3]]","practice","4664","","","","","","","",""
"","","","","","single-stim-button","196","646262","0.0-3.0-7.0-1.0","63f57759284ce2f495e4442d","C3","batch3","","1311","","","tol_practice","","","","","","","","","tol_peg_3","1311","1311","0","[[1,2,0],[0,0],[3]]","4","[[1,0,0],[2,0],[3]]","practice","1311","","","","","","","",""
"","","","","","single-stim-button","197","647127","0.0-3.0-7.1-0.1","63f57759284ce2f495e4442d","C3","batch3","","865","","","tol_practice","","","","","","","","","tol_peg_1","865","865","0","[[1,0,0],[0,0],[3]]","5","[[1,0,0],[2,0],[3]]","practice","865","","","","","","","",""
"","","","","","single-stim-button","198","647808","0.0-3.0-7.1-1.1","63f57759284ce2f495e4442d","C3","batch3","","680","","","tol_practice","","","","","","","","","tol_peg_2","680","680","0","[[1,0,0],[2,0],[3]]","5","[[1,0,0],[2,0],[3]]","practice","680","","","","","","","",""
"","","","","","poldrack-single-stim","199","648814","0.0-3.0-8.0","63f57759284ce2f495e4442d","C3","batch3","","-1","","","tol_feedback","true","","","","","","","","","1000","1000","500","","","","","","-1","none","true","","0","","",""
"","","","","","html-button-response","200","720089","0.0-3.0-9.0","63f57759284ce2f495e4442d","C3","batch3","","71274.2000002861","<div class = centerbox><p class = center-block-text>Great job! You are done with practice trials<br>You are about to start official trials.<br> <br> Problem <strong>1</strong> out of 25 problems</p></div>","0","tol_instruction","","","","","","","","","","","","","","","","","","","","","","","","",""
"","","","","","single-stim-button","201","728653","0.0-3.0-10.0-0.0","63f57759284ce2f495e4442d","C3","batch3","","7557","","","tol_tohand","","","","","","","","","tol_peg_2","7557","7557","0","[[1,2,0],[0,0],[0]]","1","[[1,3,0],[2,0],[0]]","0","0","","","","","","3","",""
"","","","","","single-stim-button","202","730452","0.0-3.0-10.0-1.0","63f57759284ce2f495e4442d","C3","batch3","","1799","","","tol_toboard","","","","","","","","","tol_peg_3","1799","1799","0","[[1,2,0],[0,0],[3]]","1","[[1,3,0],[2,0],[0]]","0","0","","","","","","3","",""
"","","","","","single-stim-button","203","731750","0.0-3.0-10.1-0.1","63f57759284ce2f495e4442d","C3","batch3","","1298","","","tol_tohand","","","","","","","","","tol_peg_1","1298","1298","0","[[1,0,0],[0,0],[3]]","2","[[1,3,0],[2,0],[0]]","0","0","","","","","","3","",""
"","","","","","single-stim-button","204","732558","0.0-3.0-10.1-1.1","63f57759284ce2f495e4442d","C3","batch3","","808","","","tol_toboard","","","","","","","","","tol_peg_2","808","808","0","[[1,0,0],[2,0],[3]]","2","[[1,3,0],[2,0],[0]]","0","0","","","","","","3","",""
"","","","","","single-stim-button","205","735120","0.0-3.0-10.2-0.2","63f57759284ce2f495e4442d","C3","batch3","","2561","","","tol_tohand","","","","","","","","","tol_peg_3","2561","2561","0","[[1,0,0],[2,0],[0]]","3","[[1,3,0],[2,0],[0]]","0","0","","","","","","3","",""
"","","","","","single-stim-button","206","736573","0.0-3.0-10.2-1.2","63f57759284ce2f495e4442d","C3","batch3","","1452","","","tol_toboard","","","","","","","","","tol_peg_1","1452","1452","0","[[1,3,0],[2,0],[0]]","3","[[1,3,0],[2,0],[0]]","0","0","","","","","","3","",""
"","","","","","poldrack-single-stim","207","737574","0.0-3.0-11.0","63f57759284ce2f495e4442d","C3","batch3","","-1","","","tol_feedback","true","","","","","","","","","1000","1000","500","","","","","","-1","none","true","7557","11416","","",""
"","","","","","html-button-response","208","738789","0.0-3.0-12.0","63f57759284ce2f495e4442d","C3","batch3","","1213.6000003814697","<div class = centerbox><p class = center-block-text>problem <strong>2</strong> out of 25 problems</p></div>","0","tol_trial_num","","","","","","","","","","","","","","","","","","","","","","","","",""
"","","","","","single-stim-button","209","748865","0.0-3.0-13.0-0.0","63f57759284ce2f495e4442d","C3","batch3","","10076","","","tol_tohand","","","","","","","","","tol_peg_1","10076","10076","0","[[1,0,0],[3,0],[0]]","1","[[2,1,3],[0,0],[0]]","1","0","","","","","","5","",""
"","","","","","single-stim-button","210","749664","0.0-3.0-13.0-1.0","63f57759284ce2f495e4442d","C3","batch3","","799","","","tol_toboard","","","","","","","","","tol_peg_2","799","799","0","[[1,0,0],[3,2],[0]]","1","[[2,1,3],[0,0],[0]]","1","0","","","","","","5","",""
"","","","","","single-stim-button","211","750716","0.0-3.0-13.1-0.1","63f57759284ce2f495e4442d","C3","batch3","","1050","","","tol_tohand","","","","","","","","","tol_peg_1","1050","1050","0","[[0,0,0],[3,2],[0]]","2","[[2,1,3],[0,0],[0]]","1","0","","","","","","5","",""
"","","","","","single-stim-button","212","751889","0.0-3.0-13.1-1.1","63f57759284ce2f495e4442d","C3","batch3","","1172","","","tol_toboard","","","","","","","","","tol_peg_3","1172","1172","0","[[0,0,0],[3,2],[1]]","2","[[2,1,3],[0,0],[0]]","1","0","","","","","","5","",""
"","","","","","single-stim-button","213","753111","0.0-3.0-13.2-0.2","63f57759284ce2f495e4442d","C3","batch3","","1222","","","tol_tohand","","","","","","","","","tol_peg_2","1222","1222","0","[[0,0,0],[3,0],[1]]","3","[[2,1,3],[0,0],[0]]","1","0","","","","","","5","",""
"","","","","","single-stim-button","214","754695","0.0-3.0-13.2-1.2","63f57759284ce2f495e4442d","C3","batch3","","1583","","","tol_toboard","","","","","","","","","tol_peg_1","1583","1583","0","[[2,0,0],[3,0],[1]]","3","[[2,1,3],[0,0],[0]]","1","0","","","","","","5","",""
"","","","","","single-stim-button","215","755415","0.0-3.0-13.3-0.3","63f57759284ce2f495e4442d","C3","batch3","","719","","","tol_tohand","","","","","","","","","tol_peg_3","719","719","0","[[2,0,0],[3,0],[0]]","4","[[2,1,3],[0,0],[0]]","1","0","","","","","","5","",""
"","","","","","single-stim-button","216","756257","0.0-3.0-13.3-1.3","63f57759284ce2f495e4442d","C3","batch3","","841","","","tol_toboard","","","","","","","","","tol_peg_1","841","841","0","[[2,1,0],[3,0],[0]]","4","[[2,1,3],[0,0],[0]]","1","0","","","","","","5","",""
"","","","","","single-stim-button","217","756801","0.0-3.0-13.4-0.4","63f57759284ce2f495e4442d","C3","batch3","","544","","","tol_tohand","","","","","","","","","tol_peg_2","544","544","0","[[2,1,0],[0,0],[0]]","5","[[2,1,3],[0,0],[0]]","1","0","","","","","","5","",""
"","","","","","single-stim-button","218","757572","0.0-3.0-13.4-1.4","63f57759284ce2f495e4442d","C3","batch3","","771","","","tol_toboard","","","","","","","","","tol_peg_1","771","771","0","[[2,1,3],[0,0],[0]]","5","[[2,1,3],[0,0],[0]]","1","0","","","","","","5","",""
"","","","","","poldrack-single-stim","219","758574","0.0-3.0-14.0","63f57759284ce2f495e4442d","C3","batch3","","-1","","","tol_feedback","true","","","","","","","","","1000","1000","500","","","","","","-1","none","true","10076","13611","","",""
"","","","","","html-button-response","220","759465","0.0-3.0-15.0","63f57759284ce2f495e4442d","C3","batch3","","890.0999999046326","<div class = centerbox><p class = center-block-text>problem <strong>3</strong> out of 25 problems</p></div>","0","tol_trial_num","","","","","","","","","","","","","","","","","","","","","","","","",""
"","","","","","single-stim-button","221","773492","0.0-3.0-16.0-0.0","63f57759284ce2f495e4442d","C3","batch3","","14026","","","tol_tohand","","","","","","","","","tol_peg_1","14026","14026","0","[[2,0,0],[0,0],[1]]","1","[[1,2,0],[3,0],[0]]","2","0","","","","","","4","",""
"","","","","","single-stim-button","222","774819","0.0-3.0-16.0-1.0","63f57759284ce2f495e4442d","C3","batch3","","1327","","","tol_toboard","","","","","","","","","tol_peg_2","1327","1327","0","[[2,0,0],[3,0],[1]]","1","[[1,2,0],[3,0],[0]]","2","0","","","","","","4","",""
"","","","","","single-stim-button","223","775644","0.0-3.0-16.1-0.1","63f57759284ce2f495e4442d","C3","batch3","","824","","","tol_tohand","","","","","","","","","tol_peg_1","824","824","0","[[0,0,0],[3,0],[1]]","2","[[1,2,0],[3,0],[0]]","2","0","","","","","","4","",""
"","","","","","single-stim-button","224","776340","0.0-3.0-16.1-1.1","63f57759284ce2f495e4442d","C3","batch3","","696","","","tol_toboard","","","","","","","","","tol_peg_2","696","696","0","[[0,0,0],[3,2],[1]]","2","[[1,2,0],[3,0],[0]]","2","0","","","","","","4","",""
"","","","","","single-stim-button","225","776980","0.0-3.0-16.2-0.2","63f57759284ce2f495e4442d","C3","batch3","","640","","","tol_tohand","","","","","","","","","tol_peg_3","640","640","0","[[0,0,0],[3,2],[0]]","3","[[1,2,0],[3,0],[0]]","2","0","","","","","","4","",""
"","","","","","single-stim-button","226","778314","0.0-3.0-16.2-1.2","63f57759284ce2f495e4442d","C3","batch3","","1333","","","tol_toboard","","","","","","","","","tol_peg_1","1333","1333","0","[[1,0,0],[3,2],[0]]","3","[[1,2,0],[3,0],[0]]","2","0","","","","","","4","",""
"","","","","","single-stim-button","227","779099","0.0-3.0-16.3-0.3","63f57759284ce2f495e4442d","C3","batch3","","785","","","tol_tohand","","","","","","","","","tol_peg_2","785","785","0","[[1,0,0],[3,0],[0]]","4","[[1,2,0],[3,0],[0]]","2","0","","","","","","4","",""
"","","","","","single-stim-button","228","779756","0.0-3.0-16.3-1.3","63f57759284ce2f495e4442d","C3","batch3","","657","","","tol_toboard","","","","","","","","","tol_peg_1","657","657","0","[[1,2,0],[3,0],[0]]","4","[[1,2,0],[3,0],[0]]","2","0","","","","","","4","",""
"","","","","","poldrack-single-stim","229","780758","0.0-3.0-17.0","63f57759284ce2f495e4442d","C3","batch3","","-1","","","tol_feedback","true","","","","","","","","","1000","1000","500","","","","","","-1","none","true","14026","16275","","",""
"","","","","","html-button-response","230","781691","0.0-3.0-18.0","63f57759284ce2f495e4442d","C3","batch3","","931.5999999046326","<div class = centerbox><p class = center-block-text>problem <strong>4</strong> out of 25 problems</p></div>","0","tol_trial_num","","","","","","","","","","","","","","","","","","","","","","","","",""
"","","","","","single-stim-button","231","786798","0.0-3.0-19.0-0.0","63f57759284ce2f495e4442d","C3","batch3","","5107","","","tol_tohand","","","","","","","","","tol_peg_2","5107","5107","0","[[3,0,0],[2,0],[0]]","1","[[3,0,0],[1,0],[2]]","3","0","","","","","","3","",""
"","","","","","single-stim-button","232","787880","0.0-3.0-19.0-1.0","63f57759284ce2f495e4442d","C3","batch3","","1082","","","tol_toboard","","","","","","","","","tol_peg_1","1082","1082","0","[[3,1,0],[2,0],[0]]","1","[[3,0,0],[1,0],[2]]","3","0","","","","","","3","",""
"","","","","","single-stim-button","233","788409","0.0-3.0-19.1-0.1","63f57759284ce2f495e4442d","C3","batch3","","529","","","tol_tohand","","","","","","","","","tol_peg_2","529","529","0","[[3,1,0],[0,0],[0]]","2","[[3,0,0],[1,0],[2]]","3","0","","","","","","3","",""
"","","","","","single-stim-button","234","789378","0.0-3.0-19.1-1.1","63f57759284ce2f495e4442d","C3","batch3","","969","","","tol_toboard","","","","","","","","","tol_peg_3","969","969","0","[[3,1,0],[0,0],[2]]","2","[[3,0,0],[1,0],[2]]","3","0","","","","","","3","",""
"","","","","","single-stim-button","235","790178","0.0-3.0-19.2-0.2","63f57759284ce2f495e4442d","C3","batch3","","798","","","tol_tohand","","","","","","","","","tol_peg_1","798","798","0","[[3,0,0],[0,0],[2]]","3","[[3,0,0],[1,0],[2]]","3","0","","","","","","3","",""
"","","","","","single-stim-button","236","790975","0.0-3.0-19.2-1.2","63f57759284ce2f495e4442d","C3","batch3","","797","","","tol_toboard","","","","","","","","","tol_peg_2","797","797","0","[[3,0,0],[1,0],[2]]","3","[[3,0,0],[1,0],[2]]","3","0","","","","","","3","",""
"","","","","","poldrack-single-stim","237","791982","0.0-3.0-20.0","63f57759284ce2f495e4442d","C3","batch3","","-1","","","tol_feedback","true","","","","","","","","","1000","1000","500","","","","","","-1","none","true","5107","6434","","",""
"","","","","","html-button-response","238","792956","0.0-3.0-21.0","63f57759284ce2f495e4442d","C3","batch3","","973.3000001907349","<div class = centerbox><p class = center-block-text>problem <strong>5</strong> out of 25 problems</p></div>","0","tol_trial_num","","","","","","","","","","","","","","","","","","","","","","","","",""
"","","","","","single-stim-button","239","797254","0.0-3.0-22.0-0.0","63f57759284ce2f495e4442d","C3","batch3","","4297","","","tol_tohand","","","","","","","","","tol_peg_2","4297","4297","0","[[1,0,0],[0,0],[3]]","1","[[0,0,0],[1,2],[3]]","4","0","","","","","","7","",""
"","","","","","single-stim-button","240","801906","0.0-3.0-22.0-1.0","63f57759284ce2f495e4442d","C3","batch3","","4651","","","tol_toboard","","","","","","","","","tol_peg_2","4651","4651","0","[[1,0,0],[2,0],[3]]","1","[[0,0,0],[1,2],[3]]","4","0","","","","","","7","",""
"","","","","","single-stim-button","241","814659","0.0-3.0-22.1-0.1","63f57759284ce2f495e4442d","C3","batch3","","12752","","","tol_tohand","","","","","","","","","tol_peg_3","12752","12752","0","[[1,0,0],[2,0],[0]]","2","[[0,0,0],[1,2],[3]]","4","0","","","","","","7","",""
"","","","","","single-stim-button","242","817331","0.0-3.0-22.1-1.1","63f57759284ce2f495e4442d","C3","batch3","","2671","","","tol_toboard","","","","","","","","","tol_peg_1","2671","2671","0","[[1,3,0],[2,0],[0]]","2","[[0,0,0],[1,2],[3]]","4","0","","","","","","7","",""
"","","","","","single-stim-button","243","818115","0.0-3.0-22.2-0.2","63f57759284ce2f495e4442d","C3","batch3","","783","","","tol_tohand","","","","","","","","","tol_peg_2","783","783","0","[[1,3,0],[0,0],[0]]","3","[[0,0,0],[1,2],[3]]","4","0","","","","","","7","",""
"","","","","","single-stim-button","244","819042","0.0-3.0-22.2-1.2","63f57759284ce2f495e4442d","C3","batch3","","926","","","tol_toboard","","","","","","","","","tol_peg_3","926","926","0","[[1,3,0],[0,0],[2]]","3","[[0,0,0],[1,2],[3]]","4","0","","","","","","7","",""
"","","","","","single-stim-button","245","820100","0.0-3.0-22.3-0.3","63f57759284ce2f495e4442d","C3","batch3","","1058","","","tol_tohand","","","","","","","","","tol_peg_1","1058","1058","0","[[1,0,0],[0,0],[2]]","4","[[0,0,0],[1,2],[3]]","4","0","","","","","","7","",""
"","","","","","single-stim-button","246","826515","0.0-3.0-22.3-1.3","63f57759284ce2f495e4442d","C3","batch3","","6415","","","tol_toboard","","","","","","","","","tol_peg_2","6415","6415","0","[[1,0,0],[3,0],[2]]","4","[[0,0,0],[1,2],[3]]","4","0","","","","","","7","",""
"","","","","","single-stim-button","247","833260","0.0-3.0-22.4-0.4","63f57759284ce2f495e4442d","C3","batch3","","6745","","","tol_tohand","","","","","","","","","tol_peg_1","6745","6745","0","[[0,0,0],[3,0],[2]]","5","[[0,0,0],[1,2],[3]]","4","0","","","","","","7","",""
"","","","","","single-stim-button","248","834108","0.0-3.0-22.4-1.4","63f57759284ce2f495e4442d","C3","batch3","","847","","","tol_toboard","","","","","","","","","tol_peg_2","847","847","0","[[0,0,0],[3,1],[2]]","5","[[0,0,0],[1,2],[3]]","4","0","","","","","","7","",""
"","","","","","single-stim-button","249","835046","0.0-3.0-22.5-0.5","63f57759284ce2f495e4442d","C3","batch3","","937","","","tol_tohand","","","","","","","","","tol_peg_3","937","937","0","[[0,0,0],[3,1],[0]]","6","[[0,0,0],[1,2],[3]]","4","0","","","","","","7","",""
"","","","","","single-stim-button","250","836021","0.0-3.0-22.5-1.5","63f57759284ce2f495e4442d","C3","batch3","","975","","","tol_toboard","","","","","","","","","tol_peg_1","975","975","0","[[2,0,0],[3,1],[0]]","6","[[0,0,0],[1,2],[3]]","4","0","","","","","","7","",""
"","","","","","single-stim-button","251","837060","0.0-3.0-22.6-0.6","63f57759284ce2f495e4442d","C3","batch3","","1039","","","tol_tohand","","","","","","","","","tol_peg_2","1039","1039","0","[[2,0,0],[3,0],[0]]","7","[[0,0,0],[1,2],[3]]","4","0","","","","","","7","",""
"","","","","","single-stim-button","252","837764","0.0-3.0-22.6-1.6","63f57759284ce2f495e4442d","C3","batch3","","703","","","tol_toboard","","","","","","","","","tol_peg_3","703","703","0","[[2,0,0],[3,0],[1]]","7","[[0,0,0],[1,2],[3]]","4","0","","","","","","7","",""
"","","","","","single-stim-button","253","838718","0.0-3.0-22.7-0.7","63f57759284ce2f495e4442d","C3","batch3","","953","","","tol_tohand","","","","","","","","","tol_peg_2","953","953","0","[[2,0,0],[0,0],[1]]","8","[[0,0,0],[1,2],[3]]","4","0","","","","","","7","",""
"","","","","","single-stim-button","254","839441","0.0-3.0-22.7-1.7","63f57759284ce2f495e4442d","C3","batch3","","723","","","tol_toboard","","","","","","","","","tol_peg_1","723","723","0","[[2,3,0],[0,0],[1]]","8","[[0,0,0],[1,2],[3]]","4","0","","","","","","7","",""
"","","","","","single-stim-button","255","840231","0.0-3.0-22.8-0.8","63f57759284ce2f495e4442d","C3","batch3","","790","","","tol_tohand","","","","","","","","","tol_peg_3","790","790","0","[[2,3,0],[0,0],[0]]","9","[[0,0,0],[1,2],[3]]","4","0","","","","","","7","",""
"","","","","","single-stim-button","256","840845","0.0-3.0-22.8-1.8","63f57759284ce2f495e4442d","C3","batch3","","614","","","tol_toboard","","","","","","","","","tol_peg_2","614","614","0","[[2,3,0],[1,0],[0]]","9","[[0,0,0],[1,2],[3]]","4","0","","","","","","7","",""
"","","","","","single-stim-button","257","841540","0.0-3.0-22.9-0.9","63f57759284ce2f495e4442d","C3","batch3","","695","","","tol_tohand","","","","","","","","","tol_peg_1","695","695","0","[[2,0,0],[1,0],[0]]","10","[[0,0,0],[1,2],[3]]","4","0","","","","","","7","",""
"","","","","","single-stim-button","258","842253","0.0-3.0-22.9-1.9","63f57759284ce2f495e4442d","C3","batch3","","712","","","tol_toboard","","","","","","","","","tol_peg_3","712","712","0","[[2,0,0],[1,0],[3]]","10","[[0,0,0],[1,2],[3]]","4","0","","","","","","7","",""
"","","","","","single-stim-button","259","842932","0.0-3.0-22.10-0.10","63f57759284ce2f495e4442d","C3","batch3","","679","","","tol_tohand","","","","","","","","","tol_peg_1","679","679","0","[[0,0,0],[1,0],[3]]","11","[[0,0,0],[1,2],[3]]","4","0","","","","","","7","",""
"","","","","","single-stim-button","260","843604","0.0-3.0-22.10-1.10","63f57759284ce2f495e4442d","C3","batch3","","672","","","tol_toboard","","","","","","","","","tol_peg_2","672","672","0","[[0,0,0],[1,2],[3]]","11","[[0,0,0],[1,2],[3]]","4","0","","","","","","7","",""
"","","","","","poldrack-single-stim","261","844606","0.0-3.0-23.0","63f57759284ce2f495e4442d","C3","batch3","","-1","","","tol_feedback","true","","","","","","","","","1000","1000","500","","","","","","-1","none","true","4297","30728","","",""
"","","","","","html-button-response","262","845520","0.0-3.0-24.0","63f57759284ce2f495e4442d","C3","batch3","","913.2000002861023","<div class = centerbox><p class = center-block-text>problem <strong>6</strong> out of 25 problems</p></div>","0","tol_trial_num","","","","","","","","","","","","","","","","","","","","","","","","",""
"","","","","","single-stim-button","263","876204","0.0-3.0-25.0-0.0","63f57759284ce2f495e4442d","C3","batch3","","30683","","","tol_tohand","","","","","","","","","tol_peg_3","30683","30683","0","[[0,0,0],[1,2],[0]]","1","[[1,0,0],[2,3],[0]]","5","0","","","","","","6","",""
"","","","","","single-stim-button","264","877322","0.0-3.0-25.0-1.0","63f57759284ce2f495e4442d","C3","batch3","","1117","","","tol_toboard","","","","","","","","","tol_peg_1","1117","1117","0","[[3,0,0],[1,2],[0]]","1","[[1,0,0],[2,3],[0]]","5","0","","","","","","6","",""
"","","","","","single-stim-button","265","878668","0.0-3.0-25.1-0.1","63f57759284ce2f495e4442d","C3","batch3","","1346","","","tol_tohand","","","","","","","","","tol_peg_2","1346","1346","0","[[3,0,0],[1,0],[0]]","2","[[1,0,0],[2,3],[0]]","5","0","","","","","","6","",""
"","","","","","single-stim-button","266","879556","0.0-3.0-25.1-1.1","63f57759284ce2f495e4442d","C3","batch3","","887","","","tol_toboard","","","","","","","","","tol_peg_1","887","887","0","[[3,2,0],[1,0],[0]]","2","[[1,0,0],[2,3],[0]]","5","0","","","","","","6","",""
"","","","","","single-stim-button","267","881364","0.0-3.0-25.2-0.2","63f57759284ce2f495e4442d","C3","batch3","","1808","","","tol_tohand","","","","","","","","","tol_peg_2","1808","1808","0","[[3,2,0],[0,0],[0]]","3","[[1,0,0],[2,3],[0]]","5","0","","","","","","6","",""
"","","","","","single-stim-button","268","882109","0.0-3.0-25.2-1.2","63f57759284ce2f495e4442d","C3","batch3","","743","","","tol_toboard","","","","","","","","","tol_peg_3","743","743","0","[[3,2,0],[0,0],[1]]","3","[[1,0,0],[2,3],[0]]","5","0","","","","","","6","",""
"","","","","","single-stim-button","269","882884","0.0-3.0-25.3-0.3","63f57759284ce2f495e4442d","C3","batch3","","775","","","tol_tohand","","","","","","","","","tol_peg_1","775","775","0","[[3,0,0],[0,0],[1]]","4","[[1,0,0],[2,3],[0]]","5","0","","","","","","6","",""
"","","","","","single-stim-button","270","883729","0.0-3.0-25.3-1.3","63f57759284ce2f495e4442d","C3","batch3","","845","","","tol_toboard","","","","","","","","","tol_peg_2","845","845","0","[[3,0,0],[2,0],[1]]","4","[[1,0,0],[2,3],[0]]","5","0","","","","","","6","",""
"","","","","","single-stim-button","271","884240","0.0-3.0-25.4-0.4","63f57759284ce2f495e4442d","C3","batch3","","510","","","tol_tohand","","","","","","","","","tol_peg_1","510","510","0","[[0,0,0],[2,0],[1]]","5","[[1,0,0],[2,3],[0]]","5","0","","","","","","6","",""
"","","","","","single-stim-button","272","884862","0.0-3.0-25.4-1.4","63f57759284ce2f495e4442d","C3","batch3","","621","","","tol_toboard","","","","","","","","","tol_peg_2","621","621","0","[[0,0,0],[2,3],[1]]","5","[[1,0,0],[2,3],[0]]","5","0","","","","","","6","",""
"","","","","","single-stim-button","273","885484","0.0-3.0-25.5-0.5","63f57759284ce2f495e4442d","C3","batch3","","621","","","tol_tohand","","","","","","","","","tol_peg_3","621","621","0","[[0,0,0],[2,3],[0]]","6","[[1,0,0],[2,3],[0]]","5","0","","","","","","6","",""
"","","","","","single-stim-button","274","886187","0.0-3.0-25.5-1.5","63f57759284ce2f495e4442d","C3","batch3","","703","","","tol_toboard","","","","","","","","","tol_peg_1","703","703","0","[[1,0,0],[2,3],[0]]","6","[[1,0,0],[2,3],[0]]","5","0","","","","","","6","",""
"","","","","","poldrack-single-stim","275","887190","0.0-3.0-26.0","63f57759284ce2f495e4442d","C3","batch3","","-1","","","tol_feedback","true","","","","","","","","","1000","1000","500","","","","","","-1","none","true","30683","35743","","",""
"","","","","","html-button-response","276","888103","0.0-3.0-27.0","63f57759284ce2f495e4442d","C3","batch3","","911.8000001907349","<div class = centerbox><p class = center-block-text>problem <strong>7</strong> out of 25 problems</p></div>","0","tol_trial_num","","","","","","","","","","","","","","","","","","","","","","","","",""
"","","","","","single-stim-button","277","910244","0.0-3.0-28.0-0.0","63f57759284ce2f495e4442d","C3","batch3","","22141","","","tol_tohand","","","","","","","","","tol_peg_3","22141","22141","0","[[2,1,0],[0,0],[0]]","1","[[1,2,0],[3,0],[0]]","6","0","","","","","","5","",""
"","","","","","single-stim-button","278","911575","0.0-3.0-28.0-1.0","63f57759284ce2f495e4442d","C3","batch3","","1329","","","tol_toboard","","","","","","","","","tol_peg_2","1329","1329","0","[[2,1,0],[3,0],[0]]","1","[[1,2,0],[3,0],[0]]","6","0","","","","","","5","",""
"","","","","","single-stim-button","279","916308","0.0-3.0-28.1-0.1","63f57759284ce2f495e4442d","C3","batch3","","4733","","","tol_tohand","","","","","","","","","tol_peg_1","4733","4733","0","[[2,0,0],[3,0],[0]]","2","[[1,2,0],[3,0],[0]]","6","0","","","","","","5","",""
"","","","","","single-stim-button","280","917898","0.0-3.0-28.1-1.1","63f57759284ce2f495e4442d","C3","batch3","","1590","","","tol_toboard","","","","","","","","","tol_peg_2","1590","1590","0","[[2,0,0],[3,1],[0]]","2","[[1,2,0],[3,0],[0]]","6","0","","","","","","5","",""
"","","","","","single-stim-button","281","919506","0.0-3.0-28.2-0.2","63f57759284ce2f495e4442d","C3","batch3","","1608","","","tol_tohand","","","","","","","","","tol_peg_1","1608","1608","0","[[0,0,0],[3,1],[0]]","3","[[1,2,0],[3,0],[0]]","6","0","","","","","","5","",""
"","","","","","single-stim-button","282","920521","0.0-3.0-28.2-1.2","63f57759284ce2f495e4442d","C3","batch3","","1014","","","tol_toboard","","","","","","","","","tol_peg_3","1014","1014","0","[[0,0,0],[3,1],[2]]","3","[[1,2,0],[3,0],[0]]","6","0","","","","","","5","",""
"","","","","","single-stim-button","283","921217","0.0-3.0-28.3-0.3","63f57759284ce2f495e4442d","C3","batch3","","695","","","tol_tohand","","","","","","","","","tol_peg_2","695","695","0","[[0,0,0],[3,0],[2]]","4","[[1,2,0],[3,0],[0]]","6","0","","","","","","5","",""
"","","","","","single-stim-button","284","921954","0.0-3.0-28.3-1.3","63f57759284ce2f495e4442d","C3","batch3","","737","","","tol_toboard","","","","","","","","","tol_peg_1","737","737","0","[[1,0,0],[3,0],[2]]","4","[[1,2,0],[3,0],[0]]","6","0","","","","","","5","",""
"","","","","","single-stim-button","285","922778","0.0-3.0-28.4-0.4","63f57759284ce2f495e4442d","C3","batch3","","824","","","tol_tohand","","","","","","","","","tol_peg_3","824","824","0","[[1,0,0],[3,0],[0]]","5","[[1,2,0],[3,0],[0]]","6","0","","","","","","5","",""
"","","","","","single-stim-button","286","923520","0.0-3.0-28.4-1.4","63f57759284ce2f495e4442d","C3","batch3","","742","","","tol_toboard","","","","","","","","","tol_peg_1","742","742","0","[[1,2,0],[3,0],[0]]","5","[[1,2,0],[3,0],[0]]","6","0","","","","","","5","",""
"","","","","","poldrack-single-stim","287","924524","0.0-3.0-29.0","63f57759284ce2f495e4442d","C3","batch3","","-1","","","tol_feedback","true","","","","","","","","","1000","1000","500","","","","","","-1","none","true","22141","30001","","",""
"","","","","","html-button-response","288","925777","0.0-3.0-30.0","63f57759284ce2f495e4442d","C3","batch3","","1252.2000002861023","<div class = centerbox><p class = center-block-text>problem <strong>8</strong> out of 25 problems</p></div>","0","tol_trial_num","","","","","","","","","","","","","","","","","","","","","","","","",""
"","","","","","single-stim-button","289","935446","0.0-3.0-31.0-0.0","63f57759284ce2f495e4442d","C3","batch3","","9668","","","tol_tohand","","","","","","","","","tol_peg_3","9668","9668","0","[[0,0,0],[2,3],[0]]","1","[[1,2,0],[3,0],[0]]","7","0","","","","","","4","",""
"","","","","","single-stim-button","290","936886","0.0-3.0-31.0-1.0","63f57759284ce2f495e4442d","C3","batch3","","1440","","","tol_toboard","","","","","","","","","tol_peg_1","1440","1440","0","[[1,0,0],[2,3],[0]]","1","[[1,2,0],[3,0],[0]]","7","0","","","","","","4","",""
"","","","","","single-stim-button","291","937755","0.0-3.0-31.1-0.1","63f57759284ce2f495e4442d","C3","batch3","","869","","","tol_tohand","","","","","","","","","tol_peg_2","869","869","0","[[1,0,0],[2,0],[0]]","2","[[1,2,0],[3,0],[0]]","7","0","","","","","","4","",""
"","","","","","single-stim-button","292","938388","0.0-3.0-31.1-1.1","63f57759284ce2f495e4442d","C3","batch3","","633","","","tol_toboard","","","","","","","","","tol_peg_3","633","633","0","[[1,0,0],[2,0],[3]]","2","[[1,2,0],[3,0],[0]]","7","0","","","","","","4","",""
"","","","","","single-stim-button","293","939057","0.0-3.0-31.2-0.2","63f57759284ce2f495e4442d","C3","batch3","","669","","","tol_tohand","","","","","","","","","tol_peg_2","669","669","0","[[1,0,0],[0,0],[3]]","3","[[1,2,0],[3,0],[0]]","7","0","","","","","","4","",""
"","","","","","single-stim-button","294","939671","0.0-3.0-31.2-1.2","63f57759284ce2f495e4442d","C3","batch3","","614","","","tol_toboard","","","","","","","","","tol_peg_1","614","614","0","[[1,2,0],[0,0],[3]]","3","[[1,2,0],[3,0],[0]]","7","0","","","","","","4","",""
"","","","","","single-stim-button","295","940381","0.0-3.0-31.3-0.3","63f57759284ce2f495e4442d","C3","batch3","","710","","","tol_tohand","","","","","","","","","tol_peg_3","710","710","0","[[1,2,0],[0,0],[0]]","4","[[1,2,0],[3,0],[0]]","7","0","","","","","","4","",""
"","","","","","single-stim-button","296","941031","0.0-3.0-31.3-1.3","63f57759284ce2f495e4442d","C3","batch3","","650","","","tol_toboard","","","","","","","","","tol_peg_2","650","650","0","[[1,2,0],[3,0],[0]]","4","[[1,2,0],[3,0],[0]]","7","0","","","","","","4","",""
"","","","","","poldrack-single-stim","297","942038","0.0-3.0-32.0","63f57759284ce2f495e4442d","C3","batch3","","-1","","","tol_feedback","true","","","","","","","","","1000","1000","500","","","","","","-1","none","true","9668","11916","","",""
"","","","","","html-button-response","298","943308","0.0-3.0-33.0","63f57759284ce2f495e4442d","C3","batch3","","1269.5","<div class = centerbox><p class = center-block-text>problem <strong>9</strong> out of 25 problems</p></div>","0","tol_trial_num","","","","","","","","","","","","","","","","","","","","","","","","",""
"","","","","","single-stim-button","299","950761","0.0-3.0-34.0-0.0","63f57759284ce2f495e4442d","C3","batch3","","7452","","","tol_tohand","","","","","","","","","tol_peg_3","7452","7452","0","[[3,2,0],[0,0],[0]]","1","[[2,1,0],[3,0],[0]]","8","0","","","","","","6","",""
"","","","","","single-stim-button","300","951966","0.0-3.0-34.0-1.0","63f57759284ce2f495e4442d","C3","batch3","","1205","","","tol_toboard","","","","","","","","","tol_peg_2","1205","1205","0","[[3,2,0],[1,0],[0]]","1","[[2,1,0],[3,0],[0]]","8","0","","","","","","6","",""
"","","","","","single-stim-button","301","953126","0.0-3.0-34.1-0.1","63f57759284ce2f495e4442d","C3","batch3","","1160","","","tol_tohand","","","","","","","","","tol_peg_1","1160","1160","0","[[3,0,0],[1,0],[0]]","2","[[2,1,0],[3,0],[0]]","8","0","","","","","","6","",""
"","","","","","single-stim-button","302","954039","0.0-3.0-34.1-1.1","63f57759284ce2f495e4442d","C3","batch3","","913","","","tol_toboard","","","","","","","","","tol_peg_2","913","913","0","[[3,0,0],[1,2],[0]]","2","[[2,1,0],[3,0],[0]]","8","0","","","","","","6","",""
"","","","","","single-stim-button","303","955499","0.0-3.0-34.2-0.2","63f57759284ce2f495e4442d","C3","batch3","","1460","","","tol_tohand","","","","","","","","","tol_peg_1","1460","1460","0","[[0,0,0],[1,2],[0]]","3","[[2,1,0],[3,0],[0]]","8","0","","","","","","6","",""
"","","","","","single-stim-button","304","956368","0.0-3.0-34.2-1.2","63f57759284ce2f495e4442d","C3","batch3","","869","","","tol_toboard","","","","","","","","","tol_peg_3","869","869","0","[[0,0,0],[1,2],[3]]","3","[[2,1,0],[3,0],[0]]","8","0","","","","","","6","",""
"","","","","","single-stim-button","305","957168","0.0-3.0-34.3-0.3","63f57759284ce2f495e4442d","C3","batch3","","799","","","tol_tohand","","","","","","","","","tol_peg_2","799","799","0","[[0,0,0],[1,0],[3]]","4","[[2,1,0],[3,0],[0]]","8","0","","","","","","6","",""
"","","","","","single-stim-button","306","958015","0.0-3.0-34.3-1.3","63f57759284ce2f495e4442d","C3","batch3","","846","","","tol_toboard","","","","","","","","","tol_peg_1","846","846","0","[[2,0,0],[1,0],[3]]","4","[[2,1,0],[3,0],[0]]","8","0","","","","","","6","",""
"","","","","","single-stim-button","307","958904","0.0-3.0-34.4-0.4","63f57759284ce2f495e4442d","C3","batch3","","887","","","tol_tohand","","","","","","","","","tol_peg_2","887","887","0","[[2,0,0],[0,0],[3]]","5","[[2,1,0],[3,0],[0]]","8","0","","","","","","6","",""
"","","","","","single-stim-button","308","959557","0.0-3.0-34.4-1.4","63f57759284ce2f495e4442d","C3","batch3","","653","","","tol_toboard","","","","","","","","","tol_peg_1","653","653","0","[[2,1,0],[0,0],[3]]","5","[[2,1,0],[3,0],[0]]","8","0","","","","","","6","",""
"","","","","","single-stim-button","309","960226","0.0-3.0-34.5-0.5","63f57759284ce2f495e4442d","C3","batch3","","669","","","tol_tohand","","","","","","","","","tol_peg_3","669","669","0","[[2,1,0],[0,0],[0]]","6","[[2,1,0],[3,0],[0]]","8","0","","","","","","6","",""
"","","","","","single-stim-button","310","960720","0.0-3.0-34.5-1.5","63f57759284ce2f495e4442d","C3","batch3","","493","","","tol_toboard","","","","","","","","","tol_peg_2","493","493","0","[[2,1,0],[3,0],[0]]","6","[[2,1,0],[3,0],[0]]","8","0","","","","","","6","",""
"","","","","","poldrack-single-stim","311","961727","0.0-3.0-35.0","63f57759284ce2f495e4442d","C3","batch3","","-1","","","tol_feedback","true","","","","","","","","","1000","1000","500","","","","","","-1","none","true","7452","12427","","",""
"","","","","","html-button-response","312","962639","0.0-3.0-36.0","63f57759284ce2f495e4442d","C3","batch3","","912.1999998092651","<div class = centerbox><p class = center-block-text>problem <strong>10</strong> out of 25 problems</p></div>","0","tol_trial_num","","","","","","","","","","","","","","","","","","","","","","","","",""
"","","","","","single-stim-button","313","967481","0.0-3.0-37.0-0.0","63f57759284ce2f495e4442d","C3","batch3","","4841","","","tol_tohand","","","","","","","","","tol_peg_2","4841","4841","0","[[3,0,0],[0,0],[2]]","1","[[3,0,0],[2,1],[0]]","9","0","","","","","","3","",""
"","","","","","single-stim-button","314","968017","0.0-3.0-37.0-1.0","63f57759284ce2f495e4442d","C3","batch3","","536","","","tol_toboard","","","","","","","","","tol_peg_1","536","536","0","[[3,1,0],[0,0],[2]]","1","[[3,0,0],[2,1],[0]]","9","0","","","","","","3","",""
"","","","","","single-stim-button","315","968805","0.0-3.0-37.1-0.1","63f57759284ce2f495e4442d","C3","batch3","","786","","","tol_tohand","","","","","","","","","tol_peg_3","786","786","0","[[3,1,0],[0,0],[0]]","2","[[3,0,0],[2,1],[0]]","9","0","","","","","","3","",""
"","","","","","single-stim-button","316","969388","0.0-3.0-37.1-1.1","63f57759284ce2f495e4442d","C3","batch3","","583","","","tol_toboard","","","","","","","","","tol_peg_2","583","583","0","[[3,1,0],[2,0],[0]]","2","[[3,0,0],[2,1],[0]]","9","0","","","","","","3","",""
"","","","","","single-stim-button","317","969960","0.0-3.0-37.2-0.2","63f57759284ce2f495e4442d","C3","batch3","","571","","","tol_tohand","","","","","","","","","tol_peg_1","571","571","0","[[3,0,0],[2,0],[0]]","3","[[3,0,0],[2,1],[0]]","9","0","","","","","","3","",""
"","","","","","single-stim-button","318","970522","0.0-3.0-37.2-1.2","63f57759284ce2f495e4442d","C3","batch3","","561","","","tol_toboard","","","","","","","","","tol_peg_2","561","561","0","[[3,0,0],[2,1],[0]]","3","[[3,0,0],[2,1],[0]]","9","0","","","","","","3","",""
"","","","","","poldrack-single-stim","319","971526","0.0-3.0-38.0","63f57759284ce2f495e4442d","C3","batch3","","-1","","","tol_feedback","true","","","","","","","","","1000","1000","500","","","","","","-1","none","true","4841","6198","","",""
"","","","","","html-button-response","320","972668","0.0-3.0-39.0","63f57759284ce2f495e4442d","C3","batch3","","1140.7000002861023","<div class = centerbox><p class = center-block-text>problem <strong>11</strong> out of 25 problems</p></div>","0","tol_trial_num","","","","","","","","","","","","","","","","","","","","","","","","",""
"","","","","","single-stim-button","321","983884","0.0-3.0-40.0-0.0","63f57759284ce2f495e4442d","C3","batch3","","11216","","","tol_tohand","","","","","","","","","tol_peg_2","11216","11216","0","[[1,2,0],[0,0],[0]]","1","[[2,0,0],[1,3],[0]]","10","0","","","","","","6","",""
"","","","","","single-stim-button","322","986221","0.0-3.0-40.0-1.0","63f57759284ce2f495e4442d","C3","batch3","","2337","","","tol_toboard","","","","","","","","","tol_peg_3","2337","2337","0","[[1,2,0],[0,0],[3]]","1","[[2,0,0],[1,3],[0]]","10","0","","","","","","6","",""
"","","","","","single-stim-button","323","987256","0.0-3.0-40.1-0.1","63f57759284ce2f495e4442d","C3","batch3","","1034","","","tol_tohand","","","","","","","","","tol_peg_1","1034","1034","0","[[1,0,0],[0,0],[3]]","2","[[2,0,0],[1,3],[0]]","10","0","","","","","","6","",""
"","","","","","single-stim-button","324","995743","0.0-3.0-40.1-1.1","63f57759284ce2f495e4442d","C3","batch3","","8487","","","tol_toboard","","","","","","","","","tol_peg_2","8487","8487","0","[[1,0,0],[2,0],[3]]","2","[[2,0,0],[1,3],[0]]","10","0","","","","","","6","",""
"","","","","","single-stim-button","325","997632","0.0-3.0-40.2-0.2","63f57759284ce2f495e4442d","C3","batch3","","1887","","","tol_tohand","","","","","","","","","tol_peg_1","1887","1887","0","[[0,0,0],[2,0],[3]]","3","[[2,0,0],[1,3],[0]]","10","0","","","","","","6","",""
"","","","","","single-stim-button","326","998240","0.0-3.0-40.2-1.2","63f57759284ce2f495e4442d","C3","batch3","","607","","","tol_toboard","","","","","","","","","tol_peg_2","607","607","0","[[0,0,0],[2,1],[3]]","3","[[2,0,0],[1,3],[0]]","10","0","","","","","","6","",""
"","","","","","single-stim-button","327","998770","0.0-3.0-40.3-0.3","63f57759284ce2f495e4442d","C3","batch3","","530","","","tol_tohand","","","","","","","","","tol_peg_3","530","530","0","[[0,0,0],[2,1],[0]]","4","[[2,0,0],[1,3],[0]]","10","0","","","","","","6","",""
"","","","","","single-stim-button","328","999392","0.0-3.0-40.3-1.3","63f57759284ce2f495e4442d","C3","batch3","","621","","","tol_toboard","","","","","","","","","tol_peg_1","621","621","0","[[3,0,0],[2,1],[0]]","4","[[2,0,0],[1,3],[0]]","10","0","","","","","","6","",""
"","","","","","single-stim-button","329","1000126","0.0-3.0-40.4-0.4","63f57759284ce2f495e4442d","C3","batch3","","734","","","tol_tohand","","","","","","","","","tol_peg_2","734","734","0","[[3,0,0],[2,0],[0]]","5","[[2,0,0],[1,3],[0]]","10","0","","","","","","6","",""
"","","","","","single-stim-button","330","1000744","0.0-3.0-40.4-1.4","63f57759284ce2f495e4442d","C3","batch3","","618","","","tol_toboard","","","","","","","","","tol_peg_3","618","618","0","[[3,0,0],[2,0],[1]]","5","[[2,0,0],[1,3],[0]]","10","0","","","","","","6","",""
"","","","","","single-stim-button","331","1005210","0.0-3.0-40.5-0.5","63f57759284ce2f495e4442d","C3","batch3","","4465","","","tol_tohand","","","","","","","","","tol_peg_3","4465","4465","0","[[3,0,0],[2,0],[0]]","6","[[2,0,0],[1,3],[0]]","10","0","","","","","","6","",""
"","","","","","single-stim-button","332","1007594","0.0-3.0-40.5-1.5","63f57759284ce2f495e4442d","C3","batch3","","2383","","","tol_toboard","","","","","","","","","tol_peg_2","2383","2383","0","[[3,0,0],[2,1],[0]]","6","[[2,0,0],[1,3],[0]]","10","0","","","","","","6","",""
"","","","","","single-stim-button","333","1008450","0.0-3.0-40.6-0.6","63f57759284ce2f495e4442d","C3","batch3","","856","","","tol_tohand","","","","","","","","","tol_peg_1","856","856","0","[[0,0,0],[2,1],[0]]","7","[[2,0,0],[1,3],[0]]","10","0","","","","","","6","",""
"","","","","","single-stim-button","334","1009411","0.0-3.0-40.6-1.6","63f57759284ce2f495e4442d","C3","batch3","","961","","","tol_toboard","","","","","","","","","tol_peg_3","961","961","0","[[0,0,0],[2,1],[3]]","7","[[2,0,0],[1,3],[0]]","10","0","","","","","","6","",""
"","","","","","single-stim-button","335","1017508","0.0-3.0-40.7-0.7","63f57759284ce2f495e4442d","C3","batch3","","8097","","","tol_tohand","","","","","","","","","tol_peg_2","8097","8097","0","[[0,0,0],[2,0],[3]]","8","[[2,0,0],[1,3],[0]]","10","0","","","","","","6","",""
"","","","","","single-stim-button","336","1021274","0.0-3.0-40.7-1.7","63f57759284ce2f495e4442d","C3","batch3","","3765","","","tol_toboard","","","","","","","","","tol_peg_1","3765","3765","0","[[1,0,0],[2,0],[3]]","8","[[2,0,0],[1,3],[0]]","10","0","","","","","","6","",""
"","","","","","single-stim-button","337","1026179","0.0-3.0-40.8-0.8","63f57759284ce2f495e4442d","C3","batch3","","4904","","","tol_tohand","","","","","","","","","tol_peg_3","4904","4904","0","[[1,0,0],[2,0],[0]]","9","[[2,0,0],[1,3],[0]]","10","0","","","","","","6","",""
"","","","","","single-stim-button","338","1027207","0.0-3.0-40.8-1.8","63f57759284ce2f495e4442d","C3","batch3","","1028","","","tol_toboard","","","","","","","","","tol_peg_2","1028","1028","0","[[1,0,0],[2,3],[0]]","9","[[2,0,0],[1,3],[0]]","10","0","","","","","","6","",""
"","","","","","single-stim-button","339","1027926","0.0-3.0-40.9-0.9","63f57759284ce2f495e4442d","C3","batch3","","718","","","tol_tohand","","","","","","","","","tol_peg_2","718","718","0","[[1,0,0],[2,0],[0]]","10","[[2,0,0],[1,3],[0]]","10","0","","","","","","6","",""
"","","","","","single-stim-button","340","1028757","0.0-3.0-40.9-1.9","63f57759284ce2f495e4442d","C3","batch3","","830","","","tol_toboard","","","","","","","","","tol_peg_1","830","830","0","[[1,3,0],[2,0],[0]]","10","[[2,0,0],[1,3],[0]]","10","0","","","","","","6","",""
"","","","","","single-stim-button","341","1029412","0.0-3.0-40.10-0.10","63f57759284ce2f495e4442d","C3","batch3","","654","","","tol_tohand","","","","","","","","","tol_peg_2","654","654","0","[[1,3,0],[0,0],[0]]","11","[[2,0,0],[1,3],[0]]","10","0","","","","","","6","",""
"","","","","","single-stim-button","342","1030523","0.0-3.0-40.10-1.10","63f57759284ce2f495e4442d","C3","batch3","","1111","","","tol_toboard","","","","","","","","","tol_peg_3","1111","1111","0","[[1,3,0],[0,0],[2]]","11","[[2,0,0],[1,3],[0]]","10","0","","","","","","6","",""
"","","","","","single-stim-button","343","1032049","0.0-3.0-40.11-0.11","63f57759284ce2f495e4442d","C3","batch3","","1525","","","tol_tohand","","","","","","","","","tol_peg_1","1525","1525","0","[[1,0,0],[0,0],[2]]","12","[[2,0,0],[1,3],[0]]","10","0","","","","","","6","",""
"","","","","","single-stim-button","344","1033255","0.0-3.0-40.11-1.11","63f57759284ce2f495e4442d","C3","batch3","","1206","","","tol_toboard","","","","","","","","","tol_peg_2","1206","1206","0","[[1,0,0],[3,0],[2]]","12","[[2,0,0],[1,3],[0]]","10","0","","","","","","6","",""
"","","","","","single-stim-button","345","1033965","0.0-3.0-40.12-0.12","63f57759284ce2f495e4442d","C3","batch3","","710","","","tol_tohand","","","","","","","","","tol_peg_1","710","710","0","[[0,0,0],[3,0],[2]]","13","[[2,0,0],[1,3],[0]]","10","0","","","","","","6","",""
"","","","","","single-stim-button","346","1034690","0.0-3.0-40.12-1.12","63f57759284ce2f495e4442d","C3","batch3","","725","","","tol_toboard","","","","","","","","","tol_peg_2","725","725","0","[[0,0,0],[3,1],[2]]","13","[[2,0,0],[1,3],[0]]","10","0","","","","","","6","",""
"","","","","","single-stim-button","347","1035305","0.0-3.0-40.13-0.13","63f57759284ce2f495e4442d","C3","batch3","","614","","","tol_tohand","","","","","","","","","tol_peg_3","614","614","0","[[0,0,0],[3,1],[0]]","14","[[2,0,0],[1,3],[0]]","10","0","","","","","","6","",""
"","","","","","single-stim-button","348","1036123","0.0-3.0-40.13-1.13","63f57759284ce2f495e4442d","C3","batch3","","818","","","tol_toboard","","","","","","","","","tol_peg_1","818","818","0","[[2,0,0],[3,1],[0]]","14","[[2,0,0],[1,3],[0]]","10","0","","","","","","6","",""
