"success","timeout","failed_images","failed_audio","failed_video","trial_type","trial_index","time_elapsed","internal_node_id","subject_id","study_id","session_id","view_history","rt","stimulus","response","task","correct","answer","item","fiar_detect_rt","fiar_detect_correct","total_correct_fiar_detect","post_trial_gap","choices","mouse_click","stim_duration","block_duration","timing_post_trial","current_position","tol_num_moves_made","tol_target","tol_problem_id","tol_rt","key_press","possible_responses","tol_correct","preplanning","tol_rt_per_trial","tol_min_moves","spm_correct","spm_rt"
"true","false","[]","[]","[]","preload","0","5305","0.0-0.0","63f795d78dc12fffa0aad1ba","A3","batch1","","","","","","","","","","","","","","","","","","","","","","","","","","","","","",""
"true","","","","","fullscreen","1","46315","0.0-1.0-0.0","63f795d78dc12fffa0aad1ba","A3","batch1","","","","","","","","","","","","","","","","","","","","","","","","","","","","","",""
"true","","","","","fullscreen","2","53348","0.0-2.0-0.0","63f795d78dc12fffa0aad1ba","A3","batch1","","","","","","","","","","","","","","","","","","","","","","","","","","","","","",""
"","","","","","instructions","3","70420","0.0-2.0-1.0-0.0","63f795d78dc12fffa0aad1ba","A3","batch1","[{""page_index"":0,""viewing_time"":10974.5},{""page_index"":1,""viewing_time"":6096}]","17070.89999999851","","","","","","","","","","","","","","","","","","","","","","","","","","","",""
"","","","","","html-button-response","4","71668","0.0-2.0-1.0-1.0-0.0","63f795d78dc12fffa0aad1ba","A3","batch1","","1246.8999999985099","<p class=block-text> Let's answer a few questions <br>","0","pattern_enter_quiz","","","","","","","","","","","","","","","","","","","","","","","","",""
"","","","","","html-button-response","5","75012","0.0-2.0-1.0-1.0-1.0","63f795d78dc12fffa0aad1ba","A3","batch1","","3343","<p class = block-text>True or False: You will have as much time as you want to make each choice. <br></p>","1","pattern_quiz","true","","","","","","","","","","","","","","","","","","","","","","","",""
"","","","","","html-button-response","6","76244","0.0-2.0-1.0-1.0-2.0","63f795d78dc12fffa0aad1ba","A3","batch1","","1230.8999999985099","<p class = block-text>Correct! You should make your choice <strong> as fast as you can</strong>.</p>","0","pattern_quiz_feedback","","","","","","","","","","","","","","","","","","","","","","","","",""
"","","","","","html-button-response","7","80460","0.0-2.0-1.0-1.0-3.0","63f795d78dc12fffa0aad1ba","A3","batch1","","4215.39999999851","<p class = block-text>True or False: You will look for 4 pieces in black or white color connected in a row either horizontally, vertically or diagonally. <br></p>","0","pattern_quiz","true","","","","","","","","","","","","","","","","","","","","","","","",""
"","","","","","html-button-response","8","81068","0.0-2.0-1.0-1.0-4.0","63f795d78dc12fffa0aad1ba","A3","batch1","","607.1000000014901","<p class = block-text>Correct! </p>","0","pattern_quiz_feedback","","","","","","","","","","","","","","","","","","","","","","","","",""
"","","","","","html-button-response","9","82700","0.0-2.0-2.0","63f795d78dc12fffa0aad1ba","A3","batch1","","1630.7999999970198","<p class=block-text> Now that you've understood the game, let's do a few practice trials before we start!<br> <br>","0","pattern_enter_practice","","","","","","","","","","","","","","","","","","","","","","","","",""
"","","","","","image-keyboard-response","10","84476","0.0-2.0-3.0-0.0","63f795d78dc12fffa0aad1ba","A3","batch1","","1774.3999999985099","stim/prac_no_18_1.png","j","pattern_practice","true","j","","","","","","","","","","","","","","","","","","","","","","",""
"","","","","","html-keyboard-response","11","85496","0.0-2.0-3.0-1.0","63f795d78dc12fffa0aad1ba","A3","batch1","","null","<p style=""font-size:30px;color:green;"">Correct!</p>","null","pattern_feedback","","","","","","","","","","","","","","","","","","","","","","","","",""
"","","","","","image-keyboard-response","12","86460","0.0-2.0-3.0-0.1","63f795d78dc12fffa0aad1ba","A3","batch1","","963","stim/prac_yes_20_dia_b1.png","f","pattern_practice","true","f","","","","","","","","","","","","","","","","","","","","","","",""
"","","","","","html-keyboard-response","13","87486","0.0-2.0-3.0-1.1","63f795d78dc12fffa0aad1ba","A3","batch1","","null","<p style=""font-size:30px;color:green;"">Correct!</p>","null","pattern_feedback","","","","","","","","","","","","","","","","","","","","","","","","",""
"","","","","","image-keyboard-response","14","88540","0.0-2.0-3.0-0.2","63f795d78dc12fffa0aad1ba","A3","batch1","","1053.1999999955297","stim/prac_no_16_1.png","j","pattern_practice","true","j","","","","","","","","","","","","","","","","","","","","","","",""
"","","","","","html-keyboard-response","15","89566","0.0-2.0-3.0-1.2","63f795d78dc12fffa0aad1ba","A3","batch1","","null","<p style=""font-size:30px;color:green;"">Correct!</p>","null","pattern_feedback","","","","","","","","","","","","","","","","","","","","","","","","",""
"","","","","","image-keyboard-response","16","90284","0.0-2.0-3.0-0.3","63f795d78dc12fffa0aad1ba","A3","batch1","","716.7999999970198","stim/prac_yes_16_ver_w1.png","f","pattern_practice","true","f","","","","","","","","","","","","","","","","","","","","","","",""
"","","","","","html-keyboard-response","17","91316","0.0-2.0-3.0-1.3","63f795d78dc12fffa0aad1ba","A3","batch1","","null","<p style=""font-size:30px;color:green;"">Correct!</p>","null","pattern_feedback","","","","","","","","","","","","","","","","","","","","","","","","",""
"","","","","","image-keyboard-response","18","93852","0.0-2.0-3.0-0.4","63f795d78dc12fffa0aad1ba","A3","batch1","","2535","stim/prac_yes_18_hor_w1.png","f","pattern_practice","true","f","","","","","","","","","","","","","","","","","","","","","","",""
"","","","","","html-keyboard-response","19","94857","0.0-2.0-3.0-1.4","63f795d78dc12fffa0aad1ba","A3","batch1","","null","<p style=""font-size:30px;color:green;"">Correct!</p>","null","pattern_feedback","","","","","","","","","","","","","","","","","","","","","","","","",""
"","","","","","html-button-response","20","100572","0.0-2.0-4.0","63f795d78dc12fffa0aad1ba","A3","batch1","","5711.10000000149","<p class=block-text> Good job! You are done with practice trials!<br>
        You responded correctly on 100% of the trials.<br>
        Press the button below to start official trials. Now you won't see any feedback about your response</p>","0","pattern_enter_official_trials","","","","","","","","","","","","","","","","","","","","","","","","",""
"","","","","","html-keyboard-response","21","101376","0.0-2.0-5.0-0.0","63f795d78dc12fffa0aad1ba","A3","batch1","","null","<p class=block-text>Trial 1 out of 78</p>","null","pattern_show_trial_num","","","","","","","","","","","","","","","","","","","","","","","","",""
"","","","","","image-keyboard-response","22","102444","0.0-2.0-5.0-1.0","63f795d78dc12fffa0aad1ba","A3","batch1","","1066.9000000059605","stim/yes_49_hor_w1_b.png","f","pattern_response","true","f","pattern_70","1066.9000000059605","true","1","","","","","","","","","","","","","","","","","","",""
"","","","","","html-keyboard-response","23","103751","0.0-2.0-5.0-0.1","63f795d78dc12fffa0aad1ba","A3","batch1","","null","<p class=block-text>Trial 2 out of 78</p>","null","pattern_show_trial_num","","","","","","","","","","","","","","","","","","","","","","","","",""
"","","","","","image-keyboard-response","24","106940","0.0-2.0-5.0-1.1","63f795d78dc12fffa0aad1ba","A3","batch1","","3187.89999999851","stim/no_39_1_w.png","j","pattern_response","true","j","pattern_21","3187.89999999851","true","2","","","","","","","","","","","","","","","","","","",""
"","","","","","html-keyboard-response","25","108266","0.0-2.0-5.0-0.2","63f795d78dc12fffa0aad1ba","A3","batch1","","null","<p class=block-text>Trial 3 out of 78</p>","null","pattern_show_trial_num","","","","","","","","","","","","","","","","","","","","","","","","",""
"","","","","","image-keyboard-response","26","109660","0.0-2.0-5.0-1.2","63f795d78dc12fffa0aad1ba","A3","batch1","","1392.8000000044703","stim/yes_23_ver_b1.png","f","pattern_response","true","f","pattern_48","1392.8000000044703","true","3","","","","","","","","","","","","","","","","","","",""
"","","","","","html-keyboard-response","27","110995","0.0-2.0-5.0-0.3","63f795d78dc12fffa0aad1ba","A3","batch1","","null","<p class=block-text>Trial 4 out of 78</p>","null","pattern_show_trial_num","","","","","","","","","","","","","","","","","","","","","","","","",""
"","","","","","image-keyboard-response","28","112028","0.0-2.0-5.0-1.3","63f795d78dc12fffa0aad1ba","A3","batch1","","1031.6000000014901","stim/no_22_1_b.png","j","pattern_response","true","j","pattern_07","1031.6000000014901","true","4","","","","","","","","","","","","","","","","","","",""
"","","","","","html-keyboard-response","29","113361","0.0-2.0-5.0-0.4","63f795d78dc12fffa0aad1ba","A3","batch1","","null","<p class=block-text>Trial 5 out of 78</p>","null","pattern_show_trial_num","","","","","","","","","","","","","","","","","","","","","","","","",""
"","","","","","image-keyboard-response","30","114332","0.0-2.0-5.0-1.4","63f795d78dc12fffa0aad1ba","A3","batch1","","969.4000000059605","stim/yes_26_dia_w2_w.png","f","pattern_response","true","f","pattern_50","969.4000000059605","true","5","","","","","","","","","","","","","","","","","","",""
"","","","","","html-keyboard-response","31","115656","0.0-2.0-5.0-0.5","63f795d78dc12fffa0aad1ba","A3","batch1","","null","<p class=block-text>Trial 6 out of 78</p>","null","pattern_show_trial_num","","","","","","","","","","","","","","","","","","","","","","","","",""
"","","","","","image-keyboard-response","32","117244","0.0-2.0-5.0-1.5","63f795d78dc12fffa0aad1ba","A3","batch1","","1586.8999999985099","stim/yes_53_ver_b1_b.png","f","pattern_response","true","f","pattern_74","1586.8999999985099","true","6","","","","","","","","","","","","","","","","","","",""
"","","","","","html-keyboard-response","33","118555","0.0-2.0-5.0-0.6","63f795d78dc12fffa0aad1ba","A3","batch1","","null","<p class=block-text>Trial 7 out of 78</p>","null","pattern_show_trial_num","","","","","","","","","","","","","","","","","","","","","","","","",""
"","","","","","image-keyboard-response","34","119164","0.0-2.0-5.0-1.6","63f795d78dc12fffa0aad1ba","A3","batch1","","607.4000000059605","stim/yes_17_ver_b1_b.png","f","pattern_response","true","f","pattern_46","607.4000000059605","true","7","","","","","","","","","","","","","","","","","","",""
"","","","","","html-keyboard-response","35","120486","0.0-2.0-5.0-0.7","63f795d78dc12fffa0aad1ba","A3","batch1","","null","<p class=block-text>Trial 8 out of 78</p>","null","pattern_show_trial_num","","","","","","","","","","","","","","","","","","","","","","","","",""
"","","","","","image-keyboard-response","36","124957","0.0-2.0-5.0-1.7","63f795d78dc12fffa0aad1ba","A3","batch1","","4469.5","stim/no_47_1_b.png","j","pattern_response","true","j","pattern_27","4469.5","true","8","","","","","","","","","","","","","","","","","","",""
"","","","","","html-keyboard-response","37","126285","0.0-2.0-5.0-0.8","63f795d78dc12fffa0aad1ba","A3","batch1","","null","<p class=block-text>Trial 9 out of 78</p>","null","pattern_show_trial_num","","","","","","","","","","","","","","","","","","","","","","","","",""
"","","","","","image-keyboard-response","38","126940","0.0-2.0-5.0-1.8","63f795d78dc12fffa0aad1ba","A3","batch1","","653.2000000029802","stim/yes_12_hor_w1_w.png","f","pattern_response","true","f","pattern_42","653.2000000029802","true","9","","","","","","","","","","","","","","","","","","",""
"","","","","","html-keyboard-response","39","128256","0.0-2.0-5.0-0.9","63f795d78dc12fffa0aad1ba","A3","batch1","","null","<p class=block-text>Trial 10 out of 78</p>","null","pattern_show_trial_num","","","","","","","","","","","","","","","","","","","","","","","","",""
"","","","","","image-keyboard-response","40","129084","0.0-2.0-5.0-1.9","63f795d78dc12fffa0aad1ba","A3","batch1","","827.3000000044703","stim/no_15_1_w.png","j","pattern_response","true","j","pattern_03","827.3000000044703","true","10","","","","","","","","","","","","","","","","","","",""
"","","","","","html-keyboard-response","41","130397","0.0-2.0-5.0-0.10","63f795d78dc12fffa0aad1ba","A3","batch1","","null","<p class=block-text>Trial 11 out of 78</p>","null","pattern_show_trial_num","","","","","","","","","","","","","","","","","","","","","","","","",""
"","","","","","image-keyboard-response","42","131196","0.0-2.0-5.0-1.10","63f795d78dc12fffa0aad1ba","A3","batch1","","798.1000000014901","stim/yes_29_hor_b1_b.png","f","pattern_response","true","f","pattern_52","798.1000000014901","true","11","","","","","","","","","","","","","","","","","","",""
"","","","","","html-keyboard-response","43","132526","0.0-2.0-5.0-0.11","63f795d78dc12fffa0aad1ba","A3","batch1","","null","<p class=block-text>Trial 12 out of 78</p>","null","pattern_show_trial_num","","","","","","","","","","","","","","","","","","","","","","","","",""
"","","","","","image-keyboard-response","44","134364","0.0-2.0-5.0-1.11","63f795d78dc12fffa0aad1ba","A3","batch1","","1836.7000000029802","stim/no_25_1_b.png","j","pattern_response","true","j","pattern_09","1836.7000000029802","true","12","","","","","","","","","","","","","","","","","","",""
"","","","","","html-keyboard-response","45","135667","0.0-2.0-5.0-0.12","63f795d78dc12fffa0aad1ba","A3","batch1","","null","<p class=block-text>Trial 13 out of 78</p>","null","pattern_show_trial_num","","","","","","","","","","","","","","","","","","","","","","","","",""
"","","","","","image-keyboard-response","46","146380","0.0-2.0-5.0-1.12","63f795d78dc12fffa0aad1ba","A3","batch1","","10711.89999999851","stim/no_67_1.png","j","pattern_response","true","j","pattern_39","10711.89999999851","true","13","","","","","","","","","","","","","","","","","","",""
"","","","","","html-keyboard-response","47","147705","0.0-2.0-5.0-0.13","63f795d78dc12fffa0aad1ba","A3","batch1","","null","<p class=block-text>Trial 14 out of 78</p>","null","pattern_show_trial_num","","","","","","","","","","","","","","","","","","","","","","","","",""
"","","","","","image-keyboard-response","48","148604","0.0-2.0-5.0-1.13","63f795d78dc12fffa0aad1ba","A3","batch1","","897.3000000044703","stim/yes_36_ver_w1_w.png","f","pattern_response","true","f","pattern_58","897.3000000044703","true","14","","","","","","","","","","","","","","","","","","",""
"","","","","","html-keyboard-response","49","149936","0.0-2.0-5.0-0.14","63f795d78dc12fffa0aad1ba","A3","batch1","","null","<p class=block-text>Trial 15 out of 78</p>","null","pattern_show_trial_num","","","","","","","","","","","","","","","","","","","","","","","","",""
"","","","","","image-keyboard-response","50","150716","0.0-2.0-5.0-1.14","63f795d78dc12fffa0aad1ba","A3","batch1","","779.1000000014901","stim/no_12_1.png","j","pattern_response","true","j","pattern_01","779.1000000014901","true","15","","","","","","","","","","","","","","","","","","",""
"","","","","","html-keyboard-response","51","152036","0.0-2.0-5.0-0.15","63f795d78dc12fffa0aad1ba","A3","batch1","","null","<p class=block-text>Trial 16 out of 78</p>","null","pattern_show_trial_num","","","","","","","","","","","","","","","","","","","","","","","","",""
"","","","","","image-keyboard-response","52","152668","0.0-2.0-5.0-1.15","63f795d78dc12fffa0aad1ba","A3","batch1","","631","stim/yes_37_hor_w1_w.png","f","pattern_response","true","f","pattern_60","631","true","16","","","","","","","","","","","","","","","","","","",""
"","","","","","html-keyboard-response","53","153996","0.0-2.0-5.0-0.16","63f795d78dc12fffa0aad1ba","A3","batch1","","null","<p class=block-text>Trial 17 out of 78</p>","null","pattern_show_trial_num","","","","","","","","","","","","","","","","","","","","","","","","",""
"","","","","","image-keyboard-response","54","163997","0.0-2.0-5.0-1.16","63f795d78dc12fffa0aad1ba","A3","batch1","","10000.10000000149","stim/no_45_1_w.png","j","pattern_response","true","j","pattern_25","10000.10000000149","true","17","","","","","","","","","","","","","","","","","","",""
"","","","","","html-keyboard-response","55","165333","0.0-2.0-5.0-0.17","63f795d78dc12fffa0aad1ba","A3","batch1","","null","<p class=block-text>Trial 18 out of 78</p>","null","pattern_show_trial_num","","","","","","","","","","","","","","","","","","","","","","","","",""
"","","","","","image-keyboard-response","56","166940","0.0-2.0-5.0-1.17","63f795d78dc12fffa0aad1ba","A3","batch1","","1605.2000000029802","stim/no_18_1_b.png","j","pattern_response","true","j","pattern_05","1605.2000000029802","true","18","","","","","","","","","","","","","","","","","","",""
"","","","","","html-keyboard-response","57","168256","0.0-2.0-5.0-0.18","63f795d78dc12fffa0aad1ba","A3","batch1","","null","<p class=block-text>Trial 19 out of 78</p>","null","pattern_show_trial_num","","","","","","","","","","","","","","","","","","","","","","","","",""
"","","","","","image-keyboard-response","58","169724","0.0-2.0-5.0-1.18","63f795d78dc12fffa0aad1ba","A3","batch1","","1467.2000000029802","stim/yes_44_ver_w1_w.png","f","pattern_response","true","f","pattern_66","1467.2000000029802","true","19","","","","","","","","","","","","","","","","","","",""
"","","","","","html-keyboard-response","59","171052","0.0-2.0-5.0-0.19","63f795d78dc12fffa0aad1ba","A3","batch1","","null","<p class=block-text>Trial 20 out of 78</p>","null","pattern_show_trial_num","","","","","","","","","","","","","","","","","","","","","","","","",""
"","","","","","image-keyboard-response","60","174077","0.0-2.0-5.0-1.19","63f795d78dc12fffa0aad1ba","A3","batch1","","3024.10000000149","stim/yes_42_dia_w1_w.png","f","pattern_response","true","f","pattern_64","3024.10000000149","true","20","","","","","","","","","","","","","","","","","","",""
"","","","","","html-keyboard-response","61","175396","0.0-2.0-5.0-0.20","63f795d78dc12fffa0aad1ba","A3","batch1","","null","<p class=block-text>Trial 21 out of 78</p>","null","pattern_show_trial_num","","","","","","","","","","","","","","","","","","","","","","","","",""
"","","","","","image-keyboard-response","62","176220","0.0-2.0-5.0-1.20","63f795d78dc12fffa0aad1ba","A3","batch1","","822.7000000029802","stim/yes_30_ver_b1_b.png","f","pattern_response","true","f","pattern_54","822.7000000029802","true","21","","","","","","","","","","","","","","","","","","",""
"","","","","","html-keyboard-response","63","177535","0.0-2.0-5.0-0.21","63f795d78dc12fffa0aad1ba","A3","batch1","","null","<p class=block-text>Trial 22 out of 78</p>","null","pattern_show_trial_num","","","","","","","","","","","","","","","","","","","","","","","","",""
"","","","","","image-keyboard-response","64","183095","0.0-2.0-5.0-1.21","63f795d78dc12fffa0aad1ba","A3","batch1","","5563.39999999851","stim/yes_63_dia_b1.png","f","pattern_response","true","f","pattern_78","5563.39999999851","true","22","","","","","","","","","","","","","","","","","","",""
"","","","","","html-keyboard-response","65","184411","0.0-2.0-5.0-0.22","63f795d78dc12fffa0aad1ba","A3","batch1","","null","<p class=block-text>Trial 23 out of 78</p>","null","pattern_show_trial_num","","","","","","","","","","","","","","","","","","","","","","","","",""
"","","","","","image-keyboard-response","66","192792","0.0-2.0-5.0-1.22","63f795d78dc12fffa0aad1ba","A3","batch1","","8379.60000000149","stim/no_53_1_b.png","j","pattern_response","true","j","pattern_33","8379.60000000149","true","23","","","","","","","","","","","","","","","","","","",""
"","","","","","html-keyboard-response","67","194103","0.0-2.0-5.0-0.23","63f795d78dc12fffa0aad1ba","A3","batch1","","null","<p class=block-text>Trial 24 out of 78</p>","null","pattern_show_trial_num","","","","","","","","","","","","","","","","","","","","","","","","",""
"","","","","","image-keyboard-response","68","200743","0.0-2.0-5.0-1.23","63f795d78dc12fffa0aad1ba","A3","batch1","","6639","stim/no_51_1.png","j","pattern_response","true","j","pattern_31","6639","true","24","","","","","","","","","","","","","","","","","","",""
"","","","","","html-keyboard-response","69","202061","0.0-2.0-5.0-0.24","63f795d78dc12fffa0aad1ba","A3","batch1","","null","<p class=block-text>Trial 25 out of 78</p>","null","pattern_show_trial_num","","","","","","","","","","","","","","","","","","","","","","","","",""
"","","","","","image-keyboard-response","70","203576","0.0-2.0-5.0-1.24","63f795d78dc12fffa0aad1ba","A3","batch1","","1513.2999999970198","stim/yes_58_dia_w1_w.png","f","pattern_response","true","f","pattern_76","1513.2999999970198","true","25","","","","","","","","","","","","","","","","","","",""
"","","","","","html-keyboard-response","71","204901","0.0-2.0-5.0-0.25","63f795d78dc12fffa0aad1ba","A3","batch1","","null","<p class=block-text>Trial 26 out of 78</p>","null","pattern_show_trial_num","","","","","","","","","","","","","","","","","","","","","","","","",""
"","","","","","image-keyboard-response","72","205847","0.0-2.0-5.0-1.25","63f795d78dc12fffa0aad1ba","A3","batch1","","945.1000000014901","stim/yes_33_dia_w1_w.png","f","pattern_response","true","f","pattern_56","945.1000000014901","true","26","","","","","","","","","","","","","","","","","","",""
"","","","","","html-keyboard-response","73","207153","0.0-2.0-5.0-0.26","63f795d78dc12fffa0aad1ba","A3","batch1","","null","<p class=block-text>Trial 27 out of 78</p>","null","pattern_show_trial_num","","","","","","","","","","","","","","","","","","","","","","","","",""
"","","","","","image-keyboard-response","74","208823","0.0-2.0-5.0-1.26","63f795d78dc12fffa0aad1ba","A3","batch1","","1669.4000000059605","stim/no_30_1_b.png","j","pattern_response","true","j","pattern_13","1669.4000000059605","true","27","","","","","","","","","","","","","","","","","","",""
"","","","","","html-keyboard-response","75","210140","0.0-2.0-5.0-0.27","63f795d78dc12fffa0aad1ba","A3","batch1","","null","<p class=block-text>Trial 28 out of 78</p>","null","pattern_show_trial_num","","","","","","","","","","","","","","","","","","","","","","","","",""
"","","","","","image-keyboard-response","76","212279","0.0-2.0-5.0-1.27","63f795d78dc12fffa0aad1ba","A3","batch1","","2138.3000000044703","stim/no_36_1_b.png","j","pattern_response","true","j","pattern_17","2138.3000000044703","true","28","","","","","","","","","","","","","","","","","","",""
"","","","","","html-keyboard-response","77","213591","0.0-2.0-5.0-0.28","63f795d78dc12fffa0aad1ba","A3","batch1","","null","<p class=block-text>Trial 29 out of 78</p>","null","pattern_show_trial_num","","","","","","","","","","","","","","","","","","","","","","","","",""
"","","","","","image-keyboard-response","78","218088","0.0-2.0-5.0-1.28","63f795d78dc12fffa0aad1ba","A3","batch1","","4495","stim/no_43_2_b.png","j","pattern_response","true","j","pattern_23","4495","true","29","","","","","","","","","","","","","","","","","","",""
"","","","","","html-keyboard-response","79","219421","0.0-2.0-5.0-0.29","63f795d78dc12fffa0aad1ba","A3","batch1","","null","<p class=block-text>Trial 30 out of 78</p>","null","pattern_show_trial_num","","","","","","","","","","","","","","","","","","","","","","","","",""
"","","","","","image-keyboard-response","80","220888","0.0-2.0-5.0-1.29","63f795d78dc12fffa0aad1ba","A3","batch1","","1465.2000000029802","stim/yes_46_ver_b1_b.png","f","pattern_response","true","f","pattern_68","1465.2000000029802","true","30","","","","","","","","","","","","","","","","","","",""
"","","","","","html-keyboard-response","81","222211","0.0-2.0-5.0-0.30","63f795d78dc12fffa0aad1ba","A3","batch1","","null","<p class=block-text>Trial 31 out of 78</p>","null","pattern_show_trial_num","","","","","","","","","","","","","","","","","","","","","","","","",""
"","","","","","image-keyboard-response","82","225416","0.0-2.0-5.0-1.30","63f795d78dc12fffa0aad1ba","A3","batch1","","3202.89999999851","stim/no_37_2_w.png","j","pattern_response","true","j","pattern_19","3202.89999999851","true","31","","","","","","","","","","","","","","","","","","",""
"","","","","","html-keyboard-response","83","226731","0.0-2.0-5.0-0.31","63f795d78dc12fffa0aad1ba","A3","batch1","","null","<p class=block-text>Trial 32 out of 78</p>","null","pattern_show_trial_num","","","","","","","","","","","","","","","","","","","","","","","","",""
"","","","","","image-keyboard-response","84","229224","0.0-2.0-5.0-1.31","63f795d78dc12fffa0aad1ba","A3","batch1","","2491","stim/no_28_2.png","j","pattern_response","true","j","pattern_11","2491","true","32","","","","","","","","","","","","","","","","","","",""
"","","","","","html-keyboard-response","85","230532","0.0-2.0-5.0-0.32","63f795d78dc12fffa0aad1ba","A3","batch1","","null","<p class=block-text>Trial 33 out of 78</p>","null","pattern_show_trial_num","","","","","","","","","","","","","","","","","","","","","","","","",""
"","","","","","image-keyboard-response","86","233192","0.0-2.0-5.0-1.32","63f795d78dc12fffa0aad1ba","A3","batch1","","2657.89999999851","stim/no_49_2_b.png","j","pattern_response","true","j","pattern_29","2657.89999999851","true","33","","","","","","","","","","","","","","","","","","",""
"","","","","","html-keyboard-response","87","234512","0.0-2.0-5.0-0.33","63f795d78dc12fffa0aad1ba","A3","batch1","","null","<p class=block-text>Trial 34 out of 78</p>","null","pattern_show_trial_num","","","","","","","","","","","","","","","","","","","","","","","","",""
"","","","","","image-keyboard-response","88","235576","0.0-2.0-5.0-1.33","63f795d78dc12fffa0aad1ba","A3","batch1","","1062.8000000044703","stim/yes_70_ver_b1.png","f","pattern_response","true","f","pattern_80","1062.8000000044703","true","34","","","","","","","","","","","","","","","","","","",""
"","","","","","html-keyboard-response","89","236901","0.0-2.0-5.0-0.34","63f795d78dc12fffa0aad1ba","A3","batch1","","null","<p class=block-text>Trial 35 out of 78</p>","null","pattern_show_trial_num","","","","","","","","","","","","","","","","","","","","","","","","",""
"","","","","","image-keyboard-response","90","240408","0.0-2.0-5.0-1.34","63f795d78dc12fffa0aad1ba","A3","batch1","","3505.89999999851","stim/no_33_1_b.png","j","pattern_response","true","j","pattern_15","3505.89999999851","true","35","","","","","","","","","","","","","","","","","","",""
"","","","","","html-keyboard-response","91","241731","0.0-2.0-5.0-0.35","63f795d78dc12fffa0aad1ba","A3","batch1","","null","<p class=block-text>Trial 36 out of 78</p>","null","pattern_show_trial_num","","","","","","","","","","","","","","","","","","","","","","","","",""
"","","","","","image-keyboard-response","92","242600","0.0-2.0-5.0-1.35","63f795d78dc12fffa0aad1ba","A3","batch1","","866.9000000059605","stim/yes_39_hor_w1_w.png","f","pattern_response","true","f","pattern_62","866.9000000059605","true","36","","","","","","","","","","","","","","","","","","",""
"","","","","","html-keyboard-response","93","243916","0.0-2.0-5.0-0.36","63f795d78dc12fffa0aad1ba","A3","batch1","","null","<p class=block-text>Trial 37 out of 78</p>","null","pattern_show_trial_num","","","","","","","","","","","","","","","","","","","","","","","","",""
"","","","","","image-keyboard-response","94","251260","0.0-2.0-5.0-1.36","63f795d78dc12fffa0aad1ba","A3","batch1","","7343.0999999940395","stim/no_58_1_w.png","j","pattern_response","true","j","pattern_35","7343.0999999940395","true","37","","","","","","","","","","","","","","","","","","",""
"","","","","","html-keyboard-response","95","252576","0.0-2.0-5.0-0.37","63f795d78dc12fffa0aad1ba","A3","batch1","","null","<p class=block-text>Trial 38 out of 78</p>","null","pattern_show_trial_num","","","","","","","","","","","","","","","","","","","","","","","","",""
"","","","","","image-keyboard-response","96","253244","0.0-2.0-5.0-1.37","63f795d78dc12fffa0aad1ba","A3","batch1","","667.1000000014901","stim/yes_15_dia_b1u_b.png","f","pattern_response","true","f","pattern_44","667.1000000014901","true","38","","","","","","","","","","","","","","","","","","",""
"","","","","","html-keyboard-response","97","254566","0.0-2.0-5.0-0.38","63f795d78dc12fffa0aad1ba","A3","batch1","","null","<p class=block-text>Trial 39 out of 78</p>","null","pattern_show_trial_num","","","","","","","","","","","","","","","","","","","","","","","","",""
"","","","","","image-keyboard-response","98","258669","0.0-2.0-5.0-1.38","63f795d78dc12fffa0aad1ba","A3","batch1","","4101.39999999851","stim/yes_51_dia_b1.png","f","pattern_response","true","f","pattern_72","4101.39999999851","true","39","","","","","","","","","","","","","","","","","","",""
"","","","","","image-keyboard-response","99","260780","0.0-2.0-6.0","63f795d78dc12fffa0aad1ba","A3","batch1","","1603","stim/empty_board.png","j","attention_check","true","j","","","","","500","[""f"",""j""]","","","","","","","","","","","","","","","","",""
"","","","","","html-keyboard-response","100","261586","0.0-2.0-7.0-0.0","63f795d78dc12fffa0aad1ba","A3","batch1","","null","<p class=block-text>Trial 40 out of 78</p>","null","pattern_show_trial_num","","","","","","","","","","","","","","","","","","","","","","","","",""
"","","","","","image-keyboard-response","101","263500","0.0-2.0-7.0-1.0","63f795d78dc12fffa0aad1ba","A3","batch1","","1913.1999999955297","stim/yes_67_hor_b1.png","f","pattern_response","true","f","pattern_79","1913.1999999955297","true","40","","","","","","","","","","","","","","","","","","",""
"","","","","","html-keyboard-response","102","264812","0.0-2.0-7.0-0.1","63f795d78dc12fffa0aad1ba","A3","batch1","","null","<p class=block-text>Trial 41 out of 78</p>","null","pattern_show_trial_num","","","","","","","","","","","","","","","","","","","","","","","","",""
"","","","","","image-keyboard-response","103","265964","0.0-2.0-7.0-1.1","63f795d78dc12fffa0aad1ba","A3","batch1","","1150.8999999985099","stim/yes_43_ver_w1_w.png","f","pattern_response","true","f","pattern_65","1150.8999999985099","true","41","","","","","","","","","","","","","","","","","","",""
"","","","","","html-keyboard-response","104","267276","0.0-2.0-7.0-0.2","63f795d78dc12fffa0aad1ba","A3","batch1","","null","<p class=block-text>Trial 42 out of 78</p>","null","pattern_show_trial_num","","","","","","","","","","","","","","","","","","","","","","","","",""
"","","","","","image-keyboard-response","105","268524","0.0-2.0-7.0-1.2","63f795d78dc12fffa0aad1ba","A3","batch1","","1246.8999999985099","stim/no_23_1.png","j","pattern_response","true","j","pattern_08","1246.8999999985099","true","42","","","","","","","","","","","","","","","","","","",""
"","","","","","html-keyboard-response","106","269846","0.0-2.0-7.0-0.3","63f795d78dc12fffa0aad1ba","A3","batch1","","null","<p class=block-text>Trial 43 out of 78</p>","null","pattern_show_trial_num","","","","","","","","","","","","","","","","","","","","","","","","",""
"","","","","","image-keyboard-response","107","270860","0.0-2.0-7.0-1.3","63f795d78dc12fffa0aad1ba","A3","batch1","","1013","stim/yes_38_hor_b1_b.png","j","pattern_response","false","f","pattern_61","1013","false","42","","","","","","","","","","","","","","","","","","",""
"","","","","","html-keyboard-response","108","272186","0.0-2.0-7.0-0.4","63f795d78dc12fffa0aad1ba","A3","batch1","","null","<p class=block-text>Trial 44 out of 78</p>","null","pattern_show_trial_num","","","","","","","","","","","","","","","","","","","","","","","","",""
"","","","","","image-keyboard-response","109","282220","0.0-2.0-7.0-1.4","63f795d78dc12fffa0aad1ba","A3","batch1","","10032.89999999851","stim/no_62_1_w.png","j","pattern_response","true","j","pattern_36","10032.89999999851","true","43","","","","","","","","","","","","","","","","","","",""
"","","","","","html-keyboard-response","110","283536","0.0-2.0-7.0-0.5","63f795d78dc12fffa0aad1ba","A3","batch1","","null","<p class=block-text>Trial 45 out of 78</p>","null","pattern_show_trial_num","","","","","","","","","","","","","","","","","","","","","","","","",""
"","","","","","image-keyboard-response","111","285020","0.0-2.0-7.0-1.5","63f795d78dc12fffa0aad1ba","A3","batch1","","1482.6999999955297","stim/yes_52_ver_w1.png","f","pattern_response","true","f","pattern_73","1482.6999999955297","true","44","","","","","","","","","","","","","","","","","","",""
"","","","","","html-keyboard-response","112","286326","0.0-2.0-7.0-0.6","63f795d78dc12fffa0aad1ba","A3","batch1","","null","<p class=block-text>Trial 46 out of 78</p>","null","pattern_show_trial_num","","","","","","","","","","","","","","","","","","","","","","","","",""
"","","","","","image-keyboard-response","113","293117","0.0-2.0-7.0-1.6","63f795d78dc12fffa0aad1ba","A3","batch1","","6789.39999999851","stim/no_36_2_w.png","j","pattern_response","true","j","pattern_18","6789.39999999851","true","45","","","","","","","","","","","","","","","","","","",""
"","","","","","html-keyboard-response","114","294438","0.0-2.0-7.0-0.7","63f795d78dc12fffa0aad1ba","A3","batch1","","null","<p class=block-text>Trial 47 out of 78</p>","null","pattern_show_trial_num","","","","","","","","","","","","","","","","","","","","","","","","",""
"","","","","","image-keyboard-response","115","302652","0.0-2.0-7.0-1.7","63f795d78dc12fffa0aad1ba","A3","batch1","","8213","stim/no_65_1_b.png","j","pattern_response","true","j","pattern_38","8213","true","46","","","","","","","","","","","","","","","","","","",""
"","","","","","html-keyboard-response","116","303975","0.0-2.0-7.0-0.8","63f795d78dc12fffa0aad1ba","A3","batch1","","null","<p class=block-text>Trial 48 out of 78</p>","null","pattern_show_trial_num","","","","","","","","","","","","","","","","","","","","","","","","",""
"","","","","","image-keyboard-response","117","308620","0.0-2.0-7.0-1.8","63f795d78dc12fffa0aad1ba","A3","batch1","","4643.29999999702","stim/no_50_1.png","j","pattern_response","true","j","pattern_30","4643.29999999702","true","47","","","","","","","","","","","","","","","","","","",""
"","","","","","html-keyboard-response","118","309956","0.0-2.0-7.0-0.9","63f795d78dc12fffa0aad1ba","A3","batch1","","null","<p class=block-text>Trial 49 out of 78</p>","null","pattern_show_trial_num","","","","","","","","","","","","","","","","","","","","","","","","",""
"","","","","","image-keyboard-response","119","310764","0.0-2.0-7.0-1.9","63f795d78dc12fffa0aad1ba","A3","batch1","","806.7000000029802","stim/yes_28_ver_b1.png","f","pattern_response","true","f","pattern_51","806.7000000029802","true","48","","","","","","","","","","","","","","","","","","",""
"","","","","","html-keyboard-response","120","312085","0.0-2.0-7.0-0.10","63f795d78dc12fffa0aad1ba","A3","batch1","","null","<p class=block-text>Trial 50 out of 78</p>","null","pattern_show_trial_num","","","","","","","","","","","","","","","","","","","","","","","","",""
"","","","","","image-keyboard-response","121","312812","0.0-2.0-7.0-1.10","63f795d78dc12fffa0aad1ba","A3","batch1","","725.1999999955297","stim/yes_14_hor_b1_w.png","f","pattern_response","true","f","pattern_43","725.1999999955297","true","49","","","","","","","","","","","","","","","","","","",""
"","","","","","html-keyboard-response","122","314127","0.0-2.0-7.0-0.11","63f795d78dc12fffa0aad1ba","A3","batch1","","null","<p class=block-text>Trial 51 out of 78</p>","null","pattern_show_trial_num","","","","","","","","","","","","","","","","","","","","","","","","",""
"","","","","","image-keyboard-response","123","314988","0.0-2.0-7.0-1.11","63f795d78dc12fffa0aad1ba","A3","batch1","","859.8000000044703","stim/yes_60_ver_b1_b.png","f","pattern_response","true","f","pattern_77","859.8000000044703","true","50","","","","","","","","","","","","","","","","","","",""
"","","","","","html-keyboard-response","124","316315","0.0-2.0-7.0-0.12","63f795d78dc12fffa0aad1ba","A3","batch1","","null","<p class=block-text>Trial 52 out of 78</p>","null","pattern_show_trial_num","","","","","","","","","","","","","","","","","","","","","","","","",""
"","","","","","image-keyboard-response","125","318731","0.0-2.0-7.0-1.12","63f795d78dc12fffa0aad1ba","A3","batch1","","2415.2999999970198","stim/no_38_1_b.png","j","pattern_response","true","j","pattern_20","2415.2999999970198","true","51","","","","","","","","","","","","","","","","","","",""
"","","","","","html-keyboard-response","126","320045","0.0-2.0-7.0-0.13","63f795d78dc12fffa0aad1ba","A3","batch1","","null","<p class=block-text>Trial 53 out of 78</p>","null","pattern_show_trial_num","","","","","","","","","","","","","","","","","","","","","","","","",""
"","","","","","image-keyboard-response","127","323692","0.0-2.0-7.0-1.13","63f795d78dc12fffa0aad1ba","A3","batch1","","3646","stim/no_52_1.png","j","pattern_response","true","j","pattern_32","3646","true","52","","","","","","","","","","","","","","","","","","",""
"","","","","","html-keyboard-response","128","325015","0.0-2.0-7.0-0.14","63f795d78dc12fffa0aad1ba","A3","batch1","","null","<p class=block-text>Trial 54 out of 78</p>","null","pattern_show_trial_num","","","","","","","","","","","","","","","","","","","","","","","","",""
"","","","","","image-keyboard-response","129","328444","0.0-2.0-7.0-1.14","63f795d78dc12fffa0aad1ba","A3","batch1","","3426.89999999851","stim/yes_37_dia_w1.png","j","pattern_response","false","f","pattern_59","3426.89999999851","false","52","","","","","","","","","","","","","","","","","","",""
"","","","","","html-keyboard-response","130","329765","0.0-2.0-7.0-0.15","63f795d78dc12fffa0aad1ba","A3","batch1","","null","<p class=block-text>Trial 55 out of 78</p>","null","pattern_show_trial_num","","","","","","","","","","","","","","","","","","","","","","","","",""
"","","","","","image-keyboard-response","131","333356","0.0-2.0-7.0-1.15","63f795d78dc12fffa0aad1ba","A3","batch1","","3589.89999999851","stim/no_42_1_w.png","j","pattern_response","true","j","pattern_22","3589.89999999851","true","53","","","","","","","","","","","","","","","","","","",""
"","","","","","html-keyboard-response","132","334695","0.0-2.0-7.0-0.16","63f795d78dc12fffa0aad1ba","A3","batch1","","null","<p class=block-text>Trial 56 out of 78</p>","null","pattern_show_trial_num","","","","","","","","","","","","","","","","","","","","","","","","",""
"","","","","","image-keyboard-response","133","335884","0.0-2.0-7.0-1.16","63f795d78dc12fffa0aad1ba","A3","batch1","","1187","stim/yes_31_hor_b1.png","f","pattern_response","true","f","pattern_55","1187","true","54","","","","","","","","","","","","","","","","","","",""
"","","","","","html-keyboard-response","134","337215","0.0-2.0-7.0-0.17","63f795d78dc12fffa0aad1ba","A3","batch1","","null","<p class=block-text>Trial 57 out of 78</p>","null","pattern_show_trial_num","","","","","","","","","","","","","","","","","","","","","","","","",""
"","","","","","image-keyboard-response","135","337980","0.0-2.0-7.0-1.17","63f795d78dc12fffa0aad1ba","A3","batch1","","763.2999999970198","stim/no_17_1_w.png","j","pattern_response","true","j","pattern_04","763.2999999970198","true","55","","","","","","","","","","","","","","","","","","",""
"","","","","","html-keyboard-response","136","339296","0.0-2.0-7.0-0.18","63f795d78dc12fffa0aad1ba","A3","batch1","","null","<p class=block-text>Trial 58 out of 78</p>","null","pattern_show_trial_num","","","","","","","","","","","","","","","","","","","","","","","","",""
"","","","","","image-keyboard-response","137","356108","0.0-2.0-7.0-1.18","63f795d78dc12fffa0aad1ba","A3","batch1","","16811.39999999851","stim/no_32_1_w.png","j","pattern_response","true","j","pattern_14","16811.39999999851","true","56","","","","","","","","","","","","","","","","","","",""
"","","","","","html-keyboard-response","138","357435","0.0-2.0-7.0-0.19","63f795d78dc12fffa0aad1ba","A3","batch1","","null","<p class=block-text>Trial 59 out of 78</p>","null","pattern_show_trial_num","","","","","","","","","","","","","","","","","","","","","","","","",""
"","","","","","image-keyboard-response","139","363416","0.0-2.0-7.0-1.19","63f795d78dc12fffa0aad1ba","A3","batch1","","5982.79999999702","stim/no_34_1_b.png","j","pattern_response","true","j","pattern_16","5982.79999999702","true","57","","","","","","","","","","","","","","","","","","",""
"","","","","","html-keyboard-response","140","364742","0.0-2.0-7.0-0.20","63f795d78dc12fffa0aad1ba","A3","batch1","","null","<p class=block-text>Trial 60 out of 78</p>","null","pattern_show_trial_num","","","","","","","","","","","","","","","","","","","","","","","","",""
"","","","","","image-keyboard-response","141","366072","0.0-2.0-7.0-1.20","63f795d78dc12fffa0aad1ba","A3","batch1","","1328.6999999955297","stim/yes_35_dia_b1.png","f","pattern_response","true","f","pattern_57","1328.6999999955297","true","58","","","","","","","","","","","","","","","","","","",""
"","","","","","html-keyboard-response","142","367391","0.0-2.0-7.0-0.21","63f795d78dc12fffa0aad1ba","A3","batch1","","null","<p class=block-text>Trial 61 out of 78</p>","null","pattern_show_trial_num","","","","","","","","","","","","","","","","","","","","","","","","",""
"","","","","","image-keyboard-response","143","371625","0.0-2.0-7.0-1.21","63f795d78dc12fffa0aad1ba","A3","batch1","","4232.39999999851","stim/no_46_1_b.png","j","pattern_response","true","j","pattern_26","4232.39999999851","true","59","","","","","","","","","","","","","","","","","","",""
"","","","","","html-keyboard-response","144","372962","0.0-2.0-7.0-0.22","63f795d78dc12fffa0aad1ba","A3","batch1","","null","<p class=block-text>Trial 62 out of 78</p>","null","pattern_show_trial_num","","","","","","","","","","","","","","","","","","","","","","","","",""
"","","","","","image-keyboard-response","145","377096","0.0-2.0-7.0-1.22","63f795d78dc12fffa0aad1ba","A3","batch1","","4132.69999999553","stim/no_48_1_w.png","j","pattern_response","true","j","pattern_28","4132.69999999553","true","60","","","","","","","","","","","","","","","","","","",""
"","","","","","html-keyboard-response","146","378422","0.0-2.0-7.0-0.23","63f795d78dc12fffa0aad1ba","A3","batch1","","null","<p class=block-text>Trial 63 out of 78</p>","null","pattern_show_trial_num","","","","","","","","","","","","","","","","","","","","","","","","",""
"","","","","","image-keyboard-response","147","382169","0.0-2.0-7.0-1.23","63f795d78dc12fffa0aad1ba","A3","batch1","","3745.0999999940395","stim/no_44_1.png","j","pattern_response","true","j","pattern_24","3745.0999999940395","true","61","","","","","","","","","","","","","","","","","","",""
"","","","","","html-keyboard-response","148","383492","0.0-2.0-7.0-0.24","63f795d78dc12fffa0aad1ba","A3","batch1","","null","<p class=block-text>Trial 64 out of 78</p>","null","pattern_show_trial_num","","","","","","","","","","","","","","","","","","","","","","","","",""
"","","","","","image-keyboard-response","149","384920","0.0-2.0-7.0-1.24","63f795d78dc12fffa0aad1ba","A3","batch1","","1426.8000000044703","stim/no_29_1_b.png","j","pattern_response","true","j","pattern_12","1426.8000000044703","true","62","","","","","","","","","","","","","","","","","","",""
"","","","","","html-keyboard-response","150","386227","0.0-2.0-7.0-0.25","63f795d78dc12fffa0aad1ba","A3","batch1","","null","<p class=block-text>Trial 65 out of 78</p>","null","pattern_show_trial_num","","","","","","","","","","","","","","","","","","","","","","","","",""
"","","","","","image-keyboard-response","151","387528","0.0-2.0-7.0-1.25","63f795d78dc12fffa0aad1ba","A3","batch1","","1300.3999999985099","stim/yes_48_dia_w1_w.png","f","pattern_response","true","f","pattern_69","1300.3999999985099","true","63","","","","","","","","","","","","","","","","","","",""
"","","","","","html-keyboard-response","152","388847","0.0-2.0-7.0-0.26","63f795d78dc12fffa0aad1ba","A3","batch1","","null","<p class=block-text>Trial 66 out of 78</p>","null","pattern_show_trial_num","","","","","","","","","","","","","","","","","","","","","","","","",""
"","","","","","image-keyboard-response","153","389560","0.0-2.0-7.0-1.26","63f795d78dc12fffa0aad1ba","A3","batch1","","712","stim/yes_29_ver_w1.png","f","pattern_response","true","f","pattern_53","712","true","64","","","","","","","","","","","","","","","","","","",""
"","","","","","html-keyboard-response","154","390882","0.0-2.0-7.0-0.27","63f795d78dc12fffa0aad1ba","A3","batch1","","null","<p class=block-text>Trial 67 out of 78</p>","null","pattern_show_trial_num","","","","","","","","","","","","","","","","","","","","","","","","",""
"","","","","","image-keyboard-response","155","391496","0.0-2.0-7.0-1.27","63f795d78dc12fffa0aad1ba","A3","batch1","","613","stim/yes_22_ver_w1.png","f","pattern_response","true","f","pattern_47","613","true","65","","","","","","","","","","","","","","","","","","",""
"","","","","","html-keyboard-response","156","392822","0.0-2.0-7.0-0.28","63f795d78dc12fffa0aad1ba","A3","batch1","","null","<p class=block-text>Trial 68 out of 78</p>","null","pattern_show_trial_num","","","","","","","","","","","","","","","","","","","","","","","","",""
"","","","","","image-keyboard-response","157","394009","0.0-2.0-7.0-1.28","63f795d78dc12fffa0aad1ba","A3","batch1","","1185.6000000014901","stim/no_20_1_w.png","j","pattern_response","true","j","pattern_06","1185.6000000014901","true","66","","","","","","","","","","","","","","","","","","",""
"","","","","","html-keyboard-response","158","395322","0.0-2.0-7.0-0.29","63f795d78dc12fffa0aad1ba","A3","batch1","","null","<p class=block-text>Trial 69 out of 78</p>","null","pattern_show_trial_num","","","","","","","","","","","","","","","","","","","","","","","","",""
"","","","","","image-keyboard-response","159","401112","0.0-2.0-7.0-1.29","63f795d78dc12fffa0aad1ba","A3","batch1","","5789.20000000298","stim/no_70_2.png","j","pattern_response","true","j","pattern_40","5789.20000000298","true","67","","","","","","","","","","","","","","","","","","",""
"","","","","","html-keyboard-response","160","402424","0.0-2.0-7.0-0.30","63f795d78dc12fffa0aad1ba","A3","batch1","","null","<p class=block-text>Trial 70 out of 78</p>","null","pattern_show_trial_num","","","","","","","","","","","","","","","","","","","","","","","","",""
"","","","","","image-keyboard-response","161","407784","0.0-2.0-7.0-1.30","63f795d78dc12fffa0aad1ba","A3","batch1","","5359.79999999702","stim/no_55_1_w.png","j","pattern_response","true","j","pattern_34","5359.79999999702","true","68","","","","","","","","","","","","","","","","","","",""
"","","","","","html-keyboard-response","162","409102","0.0-2.0-7.0-0.31","63f795d78dc12fffa0aad1ba","A3","batch1","","null","<p class=block-text>Trial 71 out of 78</p>","null","pattern_show_trial_num","","","","","","","","","","","","","","","","","","","","","","","","",""
"","","","","","image-keyboard-response","163","412728","0.0-2.0-7.0-1.31","63f795d78dc12fffa0aad1ba","A3","batch1","","3625","stim/yes_50_dia_w1.png","f","pattern_response","true","f","pattern_71","3625","true","69","","","","","","","","","","","","","","","","","","",""
"","","","","","html-keyboard-response","164","414062","0.0-2.0-7.0-0.32","63f795d78dc12fffa0aad1ba","A3","batch1","","null","<p class=block-text>Trial 72 out of 78</p>","null","pattern_show_trial_num","","","","","","","","","","","","","","","","","","","","","","","","",""
"","","","","","image-keyboard-response","165","415064","0.0-2.0-7.0-1.32","63f795d78dc12fffa0aad1ba","A3","batch1","","1000.8999999985099","stim/no_13_2_b.png","j","pattern_response","true","j","pattern_02","1000.8999999985099","true","70","","","","","","","","","","","","","","","","","","",""
"","","","","","html-keyboard-response","166","416402","0.0-2.0-7.0-0.33","63f795d78dc12fffa0aad1ba","A3","batch1","","null","<p class=block-text>Trial 73 out of 78</p>","null","pattern_show_trial_num","","","","","","","","","","","","","","","","","","","","","","","","",""
"","","","","","image-keyboard-response","167","417368","0.0-2.0-7.0-1.33","63f795d78dc12fffa0aad1ba","A3","batch1","","965.2000000029802","stim/yes_17_dia_w1.png","f","pattern_response","true","f","pattern_45","965.2000000029802","true","71","","","","","","","","","","","","","","","","","","",""
"","","","","","html-keyboard-response","168","418673","0.0-2.0-7.0-0.34","63f795d78dc12fffa0aad1ba","A3","batch1","","null","<p class=block-text>Trial 74 out of 78</p>","null","pattern_show_trial_num","","","","","","","","","","","","","","","","","","","","","","","","",""
"","","","","","image-keyboard-response","169","419880","0.0-2.0-7.0-1.34","63f795d78dc12fffa0aad1ba","A3","batch1","","1206.2000000029802","stim/yes_45_hor_b2_b.png","f","pattern_response","true","f","pattern_67","1206.2000000029802","true","72","","","","","","","","","","","","","","","","","","",""
"","","","","","html-keyboard-response","170","421202","0.0-2.0-7.0-0.35","63f795d78dc12fffa0aad1ba","A3","batch1","","null","<p class=block-text>Trial 75 out of 78</p>","null","pattern_show_trial_num","","","","","","","","","","","","","","","","","","","","","","","","",""
"","","","","","image-keyboard-response","171","421800","0.0-2.0-7.0-1.35","63f795d78dc12fffa0aad1ba","A3","batch1","","596.7999999970198","stim/yes_25_hor_b1_b.png","f","pattern_response","true","f","pattern_49","596.7999999970198","true","73","","","","","","","","","","","","","","","","","","",""
"","","","","","html-keyboard-response","172","423122","0.0-2.0-7.0-0.36","63f795d78dc12fffa0aad1ba","A3","batch1","","null","<p class=block-text>Trial 76 out of 78</p>","null","pattern_show_trial_num","","","","","","","","","","","","","","","","","","","","","","","","",""
"","","","","","image-keyboard-response","173","425981","0.0-2.0-7.0-1.36","63f795d78dc12fffa0aad1ba","A3","batch1","","2853.2000000029802","stim/yes_40_dia_b1_b.png","j","pattern_response","false","f","pattern_63","2853.2000000029802","false","73","","","","","","","","","","","","","","","","","","",""
"","","","","","html-keyboard-response","174","427306","0.0-2.0-7.0-0.37","63f795d78dc12fffa0aad1ba","A3","batch1","","null","<p class=block-text>Trial 77 out of 78</p>","null","pattern_show_trial_num","","","","","","","","","","","","","","","","","","","","","","","","",""
"","","","","","image-keyboard-response","175","428669","0.0-2.0-7.0-1.37","63f795d78dc12fffa0aad1ba","A3","batch1","","1361.5","stim/no_26_1_w.png","j","pattern_response","true","j","pattern_10","1361.5","true","74","","","","","","","","","","","","","","","","","","",""
"","","","","","html-keyboard-response","176","429977","0.0-2.0-7.0-0.38","63f795d78dc12fffa0aad1ba","A3","batch1","","null","<p class=block-text>Trial 78 out of 78</p>","null","pattern_show_trial_num","","","","","","","","","","","","","","","","","","","","","","","","",""
"","","","","","image-keyboard-response","177","430765","0.0-2.0-7.0-1.38","63f795d78dc12fffa0aad1ba","A3","batch1","","787.5","stim/yes_55_hor_w1_w.png","f","pattern_response","true","f","pattern_75","787.5","true","75","","","","","","","","","","","","","","","","","","",""
"","","","","","html-button-response","178","436349","0.0-2.0-8.0","63f795d78dc12fffa0aad1ba","A3","batch1","","5081.5999999940395","<p class = block-text>This concludes the 4-in-a-row detection game.Thank you for your responses!<br>
            You responded correctly on 96% of the trials.<br>
            When you are ready, press ""Continue"" button to continue </p>","0","","","","","","","","","","","","","","","","","","","","","","","","","",""
"true","","","","","fullscreen","179","439056","0.0-3.0-0.0","63f795d78dc12fffa0aad1ba","A3","batch1","","","","","","","","","","","","","","","","","","","","","","","","","","","","","",""
"","","","","","instructions","180","489517","0.0-3.0-1.0-0.0-0.0","63f795d78dc12fffa0aad1ba","A3","batch1","[{""page_index"":0,""viewing_time"":11716.39999999851},{""page_index"":1,""viewing_time"":6327.89999999851},{""page_index"":2,""viewing_time"":3960},{""page_index"":3,""viewing_time"":9216.10000000149},{""page_index"":4,""viewing_time"":8143.89999999851},{""page_index"":5,""viewing_time"":7952},{""page_index"":6,""viewing_time"":3144}]","50460.70000000298","","","tol-instructions","","","","","","","","","","","","","","","","","","","","","","","","",""
"","","","","","html-button-response","181","490565","0.0-3.0-1.0-1.0-0.0","63f795d78dc12fffa0aad1ba","A3","batch1","","1047.0999999940395","<p class=block-text> Let's answer a few questions <br>","0","tol_enter_quiz","","","","","","","","","","","","","","","","","","","","","","","","",""
"","","","","","html-button-response","182","494109","0.0-3.0-1.0-1.0-1.0","63f795d78dc12fffa0aad1ba","A3","batch1","","3543.1999999955297","<p class = block-text>True or False: You can only move the ball on top of a peg. <br></p>","0","tol_quiz","true","","","","","","","","","","","","","","","","","","","","","","","",""
"","","","","","html-button-response","183","495077","0.0-3.0-1.0-1.0-2.0","63f795d78dc12fffa0aad1ba","A3","batch1","","967.2999999970198","<p class = block-text>Correct! You can only move the ball on top of a peg.</p>","0","tol_quiz_feedback","","","","","","","","","","","","","","","","","","","","","","","","",""
"","","","","","html-button-response","184","497637","0.0-3.0-1.0-1.0-3.0","63f795d78dc12fffa0aad1ba","A3","batch1","","2559.1999999955297","<p class = block-text>True or False: You should try to match your board with the target board with fewest moves possible. <br></p>","0","tol_quiz","true","","","","","","","","","","","","","","","","","","","","","","","",""
"","","","","","html-button-response","185","498173","0.0-3.0-1.0-1.0-4.0","63f795d78dc12fffa0aad1ba","A3","batch1","","535.2999999970198","<p class = block-text>Correct! </p>","0","tol_quiz_feedback","","","","","","","","","","","","","","","","","","","","","","","","",""
"","","","","","html-button-response","186","499501","0.0-3.0-2.0","63f795d78dc12fffa0aad1ba","A3","batch1","","1327.1999999955297","<p class=block-text> Now that you've understood the game, let's practice a few easier examples before we start!<br> <br>","0","","","","","","","","","","","","","","","","","","","","","","","","","",""
"","","","","","single-stim-button","187","504638","0.0-3.0-3.0-0.0","63f795d78dc12fffa0aad1ba","A3","batch1","","5137","","","tol_practice","","","","","","","","","tol_peg_2","5137","5137","0","[[1,2,0],[0,0],[0]]","1","[[1,2,0],[0,0],[3]]","practice","5137","","","","","","","",""
"","","","","","single-stim-button","188","506661","0.0-3.0-3.0-1.0","63f795d78dc12fffa0aad1ba","A3","batch1","","2021","","","tol_practice","","","","","","","","","tol_peg_3","2021","2021","0","[[1,2,0],[0,0],[3]]","1","[[1,2,0],[0,0],[3]]","practice","2021","","","","","","","",""
"","","","","","poldrack-single-stim","189","507676","0.0-3.0-4.0","63f795d78dc12fffa0aad1ba","A3","batch1","","-1","","","tol_feedback","true","","","","","","","","","1000","1000","500","","","","","","-1","none","true","","0","","",""
"","","","","","single-stim-button","190","509461","0.0-3.0-5.0-0.0","63f795d78dc12fffa0aad1ba","A3","batch1","","1785","","","tol_practice","","","","","","","","","tol_peg_1","1785","1785","0","[[1,0,0],[3,0],[0]]","2","[[0,0,0],[3,1],[2]]","practice","1785","","","","","","","",""
"","","","","","single-stim-button","191","510845","0.0-3.0-5.0-1.0","63f795d78dc12fffa0aad1ba","A3","batch1","","1384","","","tol_practice","","","","","","","","","tol_peg_3","1384","1384","0","[[1,0,0],[3,0],[2]]","2","[[0,0,0],[3,1],[2]]","practice","1384","","","","","","","",""
"","","","","","single-stim-button","192","512053","0.0-3.0-5.1-0.1","63f795d78dc12fffa0aad1ba","A3","batch1","","1208","","","tol_practice","","","","","","","","","tol_peg_1","1208","1208","0","[[0,0,0],[3,0],[2]]","3","[[0,0,0],[3,1],[2]]","practice","1208","","","","","","","",""
"","","","","","single-stim-button","193","513165","0.0-3.0-5.1-1.1","63f795d78dc12fffa0aad1ba","A3","batch1","","1112","","","tol_practice","","","","","","","","","tol_peg_2","1112","1112","0","[[0,0,0],[3,1],[2]]","3","[[0,0,0],[3,1],[2]]","practice","1112","","","","","","","",""
"","","","","","poldrack-single-stim","194","514166","0.0-3.0-6.0","63f795d78dc12fffa0aad1ba","A3","batch1","","-1","","","tol_feedback","true","","","","","","","","","1000","1000","500","","","","","","-1","none","true","","0","","",""
"","","","","","single-stim-button","195","516429","0.0-3.0-7.0-0.0","63f795d78dc12fffa0aad1ba","A3","batch1","","2262","","","tol_practice","","","","","","","","","tol_peg_2","2262","2262","0","[[1,2,0],[0,0],[0]]","4","[[1,0,0],[2,0],[3]]","practice","2262","","","","","","","",""
"","","","","","single-stim-button","196","517069","0.0-3.0-7.0-1.0","63f795d78dc12fffa0aad1ba","A3","batch1","","639","","","tol_practice","","","","","","","","","tol_peg_3","639","639","0","[[1,2,0],[0,0],[3]]","4","[[1,0,0],[2,0],[3]]","practice","639","","","","","","","",""
"","","","","","single-stim-button","197","517565","0.0-3.0-7.1-0.1","63f795d78dc12fffa0aad1ba","A3","batch1","","496","","","tol_practice","","","","","","","","","tol_peg_1","496","496","0","[[1,0,0],[0,0],[3]]","5","[[1,0,0],[2,0],[3]]","practice","496","","","","","","","",""
"","","","","","single-stim-button","198","518053","0.0-3.0-7.1-1.1","63f795d78dc12fffa0aad1ba","A3","batch1","","488","","","tol_practice","","","","","","","","","tol_peg_2","488","488","0","[[1,0,0],[2,0],[3]]","5","[[1,0,0],[2,0],[3]]","practice","488","","","","","","","",""
"","","","","","poldrack-single-stim","199","519067","0.0-3.0-8.0","63f795d78dc12fffa0aad1ba","A3","batch1","","-1","","","tol_feedback","true","","","","","","","","","1000","1000","500","","","","","","-1","none","true","","0","","",""
"","","","","","html-button-response","200","521133","0.0-3.0-9.0","63f795d78dc12fffa0aad1ba","A3","batch1","","2065.1999999955297","<div class = centerbox><p class = center-block-text>Great job! You are done with practice trials<br>You are about to start official trials.<br> <br> Problem <strong>1</strong> out of 25 problems</p></div>","0","tol_instruction","","","","","","","","","","","","","","","","","","","","","","","","",""
"","","","","","single-stim-button","201","524909","0.0-3.0-10.0-0.0","63f795d78dc12fffa0aad1ba","A3","batch1","","2762","","","tol_tohand","","","","","","","","","tol_peg_2","2762","2762","0","[[1,2,0],[0,0],[0]]","1","[[1,3,0],[2,0],[0]]","0","0","","","","","","3","",""
"","","","","","single-stim-button","202","525469","0.0-3.0-10.0-1.0","63f795d78dc12fffa0aad1ba","A3","batch1","","559","","","tol_toboard","","","","","","","","","tol_peg_3","559","559","0","[[1,2,0],[0,0],[3]]","1","[[1,3,0],[2,0],[0]]","0","0","","","","","","3","",""
"","","","","","single-stim-button","203","525925","0.0-3.0-10.1-0.1","63f795d78dc12fffa0aad1ba","A3","batch1","","456","","","tol_tohand","","","","","","","","","tol_peg_1","456","456","0","[[1,0,0],[0,0],[3]]","2","[[1,3,0],[2,0],[0]]","0","0","","","","","","3","",""
"","","","","","single-stim-button","204","526653","0.0-3.0-10.1-1.1","63f795d78dc12fffa0aad1ba","A3","batch1","","728","","","tol_toboard","","","","","","","","","tol_peg_2","728","728","0","[[1,0,0],[2,0],[3]]","2","[[1,3,0],[2,0],[0]]","0","0","","","","","","3","",""
"","","","","","single-stim-button","205","527309","0.0-3.0-10.2-0.2","63f795d78dc12fffa0aad1ba","A3","batch1","","655","","","tol_tohand","","","","","","","","","tol_peg_3","655","655","0","[[1,0,0],[2,0],[0]]","3","[[1,3,0],[2,0],[0]]","0","0","","","","","","3","",""
"","","","","","single-stim-button","206","528068","0.0-3.0-10.2-1.2","63f795d78dc12fffa0aad1ba","A3","batch1","","759","","","tol_toboard","","","","","","","","","tol_peg_1","759","759","0","[[1,3,0],[2,0],[0]]","3","[[1,3,0],[2,0],[0]]","0","0","","","","","","3","",""
"","","","","","poldrack-single-stim","207","529070","0.0-3.0-11.0","63f795d78dc12fffa0aad1ba","A3","batch1","","-1","","","tol_feedback","true","","","","","","","","","1000","1000","500","","","","","","-1","none","true","2762","3873","","",""
"","","","","","html-button-response","208","530685","0.0-3.0-12.0","63f795d78dc12fffa0aad1ba","A3","batch1","","1613.8999999985099","<div class = centerbox><p class = center-block-text>problem <strong>2</strong> out of 25 problems</p></div>","0","tol_trial_num","","","","","","","","","","","","","","","","","","","","","","","","",""
"","","","","","single-stim-button","209","532925","0.0-3.0-13.0-0.0","63f795d78dc12fffa0aad1ba","A3","batch1","","2240","","","tol_tohand","","","","","","","","","tol_peg_2","2240","2240","0","[[1,2,0],[0,0],[0]]","1","[[2,1,3],[0,0],[0]]","1","0","","","","","","5","",""
"","","","","","single-stim-button","210","533709","0.0-3.0-13.0-1.0","63f795d78dc12fffa0aad1ba","A3","batch1","","783","","","tol_toboard","","","","","","","","","tol_peg_1","783","783","0","[[1,2,3],[0,0],[0]]","1","[[2,1,3],[0,0],[0]]","1","0","","","","","","5","",""
"","","","","","single-stim-button","211","535653","0.0-3.0-13.1-0.1","63f795d78dc12fffa0aad1ba","A3","batch1","","1944","","","tol_tohand","","","","","","","","","tol_peg_1","1944","1944","0","[[1,2,0],[0,0],[0]]","2","[[2,1,3],[0,0],[0]]","1","0","","","","","","5","",""
"","","","","","single-stim-button","212","538221","0.0-3.0-13.1-1.1","63f795d78dc12fffa0aad1ba","A3","batch1","","2568","","","tol_toboard","","","","","","","","","tol_peg_2","2568","2568","0","[[1,2,0],[3,0],[0]]","2","[[2,1,3],[0,0],[0]]","1","0","","","","","","5","",""
"","","","","","single-stim-button","213","538805","0.0-3.0-13.2-0.2","63f795d78dc12fffa0aad1ba","A3","batch1","","584","","","tol_tohand","","","","","","","","","tol_peg_1","584","584","0","[[1,0,0],[3,0],[0]]","3","[[2,1,3],[0,0],[0]]","1","0","","","","","","5","",""
"","","","","","single-stim-button","214","539741","0.0-3.0-13.2-1.2","63f795d78dc12fffa0aad1ba","A3","batch1","","935","","","tol_toboard","","","","","","","","","tol_peg_3","935","935","0","[[1,0,0],[3,0],[2]]","3","[[2,1,3],[0,0],[0]]","1","0","","","","","","5","",""
"","","","","","single-stim-button","215","540253","0.0-3.0-13.3-0.3","63f795d78dc12fffa0aad1ba","A3","batch1","","511","","","tol_tohand","","","","","","","","","tol_peg_2","511","511","0","[[1,0,0],[0,0],[2]]","4","[[2,1,3],[0,0],[0]]","1","0","","","","","","5","",""
"","","","","","single-stim-button","216","542077","0.0-3.0-13.3-1.3","63f795d78dc12fffa0aad1ba","A3","batch1","","1824","","","tol_toboard","","","","","","","","","tol_peg_2","1824","1824","0","[[1,0,0],[3,0],[2]]","4","[[2,1,3],[0,0],[0]]","1","0","","","","","","5","",""
"","","","","","single-stim-button","217","543757","0.0-3.0-13.4-0.4","63f795d78dc12fffa0aad1ba","A3","batch1","","1679","","","tol_tohand","","","","","","","","","tol_peg_1","1679","1679","0","[[0,0,0],[3,0],[2]]","5","[[2,1,3],[0,0],[0]]","1","0","","","","","","5","",""
"","","","","","single-stim-button","218","544285","0.0-3.0-13.4-1.4","63f795d78dc12fffa0aad1ba","A3","batch1","","528","","","tol_toboard","","","","","","","","","tol_peg_2","528","528","0","[[0,0,0],[3,1],[2]]","5","[[2,1,3],[0,0],[0]]","1","0","","","","","","5","",""
"","","","","","single-stim-button","219","544805","0.0-3.0-13.5-0.5","63f795d78dc12fffa0aad1ba","A3","batch1","","520","","","tol_tohand","","","","","","","","","tol_peg_3","520","520","0","[[0,0,0],[3,1],[0]]","6","[[2,1,3],[0,0],[0]]","1","0","","","","","","5","",""
"","","","","","single-stim-button","220","545525","0.0-3.0-13.5-1.5","63f795d78dc12fffa0aad1ba","A3","batch1","","720","","","tol_toboard","","","","","","","","","tol_peg_1","720","720","0","[[2,0,0],[3,1],[0]]","6","[[2,1,3],[0,0],[0]]","1","0","","","","","","5","",""
"","","","","","single-stim-button","221","545997","0.0-3.0-13.6-0.6","63f795d78dc12fffa0aad1ba","A3","batch1","","472","","","tol_tohand","","","","","","","","","tol_peg_2","472","472","0","[[2,0,0],[3,0],[0]]","7","[[2,1,3],[0,0],[0]]","1","0","","","","","","5","",""
"","","","","","single-stim-button","222","546437","0.0-3.0-13.6-1.6","63f795d78dc12fffa0aad1ba","A3","batch1","","439","","","tol_toboard","","","","","","","","","tol_peg_1","439","439","0","[[2,1,0],[3,0],[0]]","7","[[2,1,3],[0,0],[0]]","1","0","","","","","","5","",""
"","","","","","single-stim-button","223","546822","0.0-3.0-13.7-0.7","63f795d78dc12fffa0aad1ba","A3","batch1","","384","","","tol_tohand","","","","","","","","","tol_peg_2","384","384","0","[[2,1,0],[0,0],[0]]","8","[[2,1,3],[0,0],[0]]","1","0","","","","","","5","",""
"","","","","","single-stim-button","224","547445","0.0-3.0-13.7-1.7","63f795d78dc12fffa0aad1ba","A3","batch1","","623","","","tol_toboard","","","","","","","","","tol_peg_1","623","623","0","[[2,1,3],[0,0],[0]]","8","[[2,1,3],[0,0],[0]]","1","0","","","","","","5","",""
"","","","","","poldrack-single-stim","225","548446","0.0-3.0-14.0","63f795d78dc12fffa0aad1ba","A3","batch1","","-1","","","tol_feedback","true","","","","","","","","","1000","1000","500","","","","","","-1","none","true","2240","8334","","",""
"","","","","","html-button-response","226","549453","0.0-3.0-15.0","63f795d78dc12fffa0aad1ba","A3","batch1","","1006","<div class = centerbox><p class = center-block-text>problem <strong>3</strong> out of 25 problems</p></div>","0","tol_trial_num","","","","","","","","","","","","","","","","","","","","","","","","",""
"","","","","","single-stim-button","227","553845","0.0-3.0-16.0-0.0","63f795d78dc12fffa0aad1ba","A3","batch1","","4392","","","tol_tohand","","","","","","","","","tol_peg_1","4392","4392","0","[[2,0,0],[0,0],[1]]","1","[[1,2,0],[3,0],[0]]","2","0","","","","","","4","",""
"","","","","","single-stim-button","228","554397","0.0-3.0-16.0-1.0","63f795d78dc12fffa0aad1ba","A3","batch1","","552","","","tol_toboard","","","","","","","","","tol_peg_2","552","552","0","[[2,0,0],[3,0],[1]]","1","[[1,2,0],[3,0],[0]]","2","0","","","","","","4","",""
"","","","","","single-stim-button","229","555437","0.0-3.0-16.1-0.1","63f795d78dc12fffa0aad1ba","A3","batch1","","1040","","","tol_tohand","","","","","","","","","tol_peg_1","1040","1040","0","[[0,0,0],[3,0],[1]]","2","[[1,2,0],[3,0],[0]]","2","0","","","","","","4","",""
"","","","","","single-stim-button","230","556061","0.0-3.0-16.1-1.1","63f795d78dc12fffa0aad1ba","A3","batch1","","624","","","tol_toboard","","","","","","","","","tol_peg_2","624","624","0","[[0,0,0],[3,2],[1]]","2","[[1,2,0],[3,0],[0]]","2","0","","","","","","4","",""
"","","","","","single-stim-button","231","556477","0.0-3.0-16.2-0.2","63f795d78dc12fffa0aad1ba","A3","batch1","","414","","","tol_tohand","","","","","","","","","tol_peg_3","414","414","0","[[0,0,0],[3,2],[0]]","3","[[1,2,0],[3,0],[0]]","2","0","","","","","","4","",""
"","","","","","single-stim-button","232","557173","0.0-3.0-16.2-1.2","63f795d78dc12fffa0aad1ba","A3","batch1","","695","","","tol_toboard","","","","","","","","","tol_peg_1","695","695","0","[[1,0,0],[3,2],[0]]","3","[[1,2,0],[3,0],[0]]","2","0","","","","","","4","",""
"","","","","","single-stim-button","233","557565","0.0-3.0-16.3-0.3","63f795d78dc12fffa0aad1ba","A3","batch1","","392","","","tol_tohand","","","","","","","","","tol_peg_2","392","392","0","[[1,0,0],[3,0],[0]]","4","[[1,2,0],[3,0],[0]]","2","0","","","","","","4","",""
"","","","","","single-stim-button","234","558165","0.0-3.0-16.3-1.3","63f795d78dc12fffa0aad1ba","A3","batch1","","599","","","tol_toboard","","","","","","","","","tol_peg_1","599","599","0","[[1,2,0],[3,0],[0]]","4","[[1,2,0],[3,0],[0]]","2","0","","","","","","4","",""
"","","","","","poldrack-single-stim","235","559166","0.0-3.0-17.0","63f795d78dc12fffa0aad1ba","A3","batch1","","-1","","","tol_feedback","true","","","","","","","","","1000","1000","500","","","","","","-1","none","true","4392","6238","","",""
"","","","","","html-button-response","236","560148","0.0-3.0-18.0","63f795d78dc12fffa0aad1ba","A3","batch1","","982","<div class = centerbox><p class = center-block-text>problem <strong>4</strong> out of 25 problems</p></div>","0","tol_trial_num","","","","","","","","","","","","","","","","","","","","","","","","",""
"","","","","","single-stim-button","237","564117","0.0-3.0-19.0-0.0","63f795d78dc12fffa0aad1ba","A3","batch1","","3968","","","tol_tohand","","","","","","","","","tol_peg_2","3968","3968","0","[[3,0,0],[2,0],[0]]","1","[[3,0,0],[1,0],[2]]","3","0","","","","","","3","",""
"","","","","","single-stim-button","238","564781","0.0-3.0-19.0-1.0","63f795d78dc12fffa0aad1ba","A3","batch1","","664","","","tol_toboard","","","","","","","","","tol_peg_1","664","664","0","[[3,1,0],[2,0],[0]]","1","[[3,0,0],[1,0],[2]]","3","0","","","","","","3","",""
"","","","","","single-stim-button","239","565181","0.0-3.0-19.1-0.1","63f795d78dc12fffa0aad1ba","A3","batch1","","400","","","tol_tohand","","","","","","","","","tol_peg_2","400","400","0","[[3,1,0],[0,0],[0]]","2","[[3,0,0],[1,0],[2]]","3","0","","","","","","3","",""
"","","","","","single-stim-button","240","565733","0.0-3.0-19.1-1.1","63f795d78dc12fffa0aad1ba","A3","batch1","","551","","","tol_toboard","","","","","","","","","tol_peg_3","551","551","0","[[3,1,0],[0,0],[2]]","2","[[3,0,0],[1,0],[2]]","3","0","","","","","","3","",""
"","","","","","single-stim-button","241","566189","0.0-3.0-19.2-0.2","63f795d78dc12fffa0aad1ba","A3","batch1","","456","","","tol_tohand","","","","","","","","","tol_peg_1","456","456","0","[[3,0,0],[0,0],[2]]","3","[[3,0,0],[1,0],[2]]","3","0","","","","","","3","",""
"","","","","","single-stim-button","242","566732","0.0-3.0-19.2-1.2","63f795d78dc12fffa0aad1ba","A3","batch1","","543","","","tol_toboard","","","","","","","","","tol_peg_2","543","543","0","[[3,0,0],[1,0],[2]]","3","[[3,0,0],[1,0],[2]]","3","0","","","","","","3","",""
"","","","","","poldrack-single-stim","243","567734","0.0-3.0-20.0","63f795d78dc12fffa0aad1ba","A3","batch1","","-1","","","tol_feedback","true","","","","","","","","","1000","1000","500","","","","","","-1","none","true","3968","4824","","",""
"","","","","","html-button-response","244","568469","0.0-3.0-21.0","63f795d78dc12fffa0aad1ba","A3","batch1","","734.4000000059605","<div class = centerbox><p class = center-block-text>problem <strong>5</strong> out of 25 problems</p></div>","0","tol_trial_num","","","","","","","","","","","","","","","","","","","","","","","","",""
"","","","","","single-stim-button","245","579156","0.0-3.0-22.0-0.0","63f795d78dc12fffa0aad1ba","A3","batch1","","10687","","","tol_tohand","","","","","","","","","tol_peg_1","10687","10687","0","[[0,0,0],[2,0],[3]]","1","[[0,0,0],[1,2],[3]]","4","0","","","","","","7","",""
"","","","","","single-stim-button","246","580645","0.0-3.0-22.0-1.0","63f795d78dc12fffa0aad1ba","A3","batch1","","1488","","","tol_toboard","","","","","","","","","tol_peg_2","1488","1488","0","[[0,0,0],[2,1],[3]]","1","[[0,0,0],[1,2],[3]]","4","0","","","","","","7","",""
"","","","","","single-stim-button","247","581077","0.0-3.0-22.1-0.1","63f795d78dc12fffa0aad1ba","A3","batch1","","432","","","tol_tohand","","","","","","","","","tol_peg_3","432","432","0","[[0,0,0],[2,1],[0]]","2","[[0,0,0],[1,2],[3]]","4","0","","","","","","7","",""
"","","","","","single-stim-button","248","581837","0.0-3.0-22.1-1.1","63f795d78dc12fffa0aad1ba","A3","batch1","","760","","","tol_toboard","","","","","","","","","tol_peg_1","760","760","0","[[3,0,0],[2,1],[0]]","2","[[0,0,0],[1,2],[3]]","4","0","","","","","","7","",""
"","","","","","single-stim-button","249","582445","0.0-3.0-22.2-0.2","63f795d78dc12fffa0aad1ba","A3","batch1","","607","","","tol_tohand","","","","","","","","","tol_peg_2","607","607","0","[[3,0,0],[2,0],[0]]","3","[[0,0,0],[1,2],[3]]","4","0","","","","","","7","",""
"","","","","","single-stim-button","250","583093","0.0-3.0-22.2-1.2","63f795d78dc12fffa0aad1ba","A3","batch1","","648","","","tol_toboard","","","","","","","","","tol_peg_3","648","648","0","[[3,0,0],[2,0],[1]]","3","[[0,0,0],[1,2],[3]]","4","0","","","","","","7","",""
"","","","","","single-stim-button","251","583741","0.0-3.0-22.3-0.3","63f795d78dc12fffa0aad1ba","A3","batch1","","648","","","tol_tohand","","","","","","","","","tol_peg_2","648","648","0","[[3,0,0],[0,0],[1]]","4","[[0,0,0],[1,2],[3]]","4","0","","","","","","7","",""
"","","","","","single-stim-button","252","584277","0.0-3.0-22.3-1.3","63f795d78dc12fffa0aad1ba","A3","batch1","","536","","","tol_toboard","","","","","","","","","tol_peg_1","536","536","0","[[3,2,0],[0,0],[1]]","4","[[0,0,0],[1,2],[3]]","4","0","","","","","","7","",""
"","","","","","single-stim-button","253","584741","0.0-3.0-22.4-0.4","63f795d78dc12fffa0aad1ba","A3","batch1","","463","","","tol_tohand","","","","","","","","","tol_peg_3","463","463","0","[[3,2,0],[0,0],[0]]","5","[[0,0,0],[1,2],[3]]","4","0","","","","","","7","",""
"","","","","","single-stim-button","254","585133","0.0-3.0-22.4-1.4","63f795d78dc12fffa0aad1ba","A3","batch1","","392","","","tol_toboard","","","","","","","","","tol_peg_2","392","392","0","[[3,2,0],[1,0],[0]]","5","[[0,0,0],[1,2],[3]]","4","0","","","","","","7","",""
"","","","","","single-stim-button","255","585701","0.0-3.0-22.5-0.5","63f795d78dc12fffa0aad1ba","A3","batch1","","568","","","tol_tohand","","","","","","","","","tol_peg_1","568","568","0","[[3,0,0],[1,0],[0]]","6","[[0,0,0],[1,2],[3]]","4","0","","","","","","7","",""
"","","","","","single-stim-button","256","586773","0.0-3.0-22.5-1.5","63f795d78dc12fffa0aad1ba","A3","batch1","","1071","","","tol_toboard","","","","","","","","","tol_peg_2","1071","1071","0","[[3,0,0],[1,2],[0]]","6","[[0,0,0],[1,2],[3]]","4","0","","","","","","7","",""
"","","","","","single-stim-button","257","587245","0.0-3.0-22.6-0.6","63f795d78dc12fffa0aad1ba","A3","batch1","","472","","","tol_tohand","","","","","","","","","tol_peg_1","472","472","0","[[0,0,0],[1,2],[0]]","7","[[0,0,0],[1,2],[3]]","4","0","","","","","","7","",""
"","","","","","single-stim-button","258","587693","0.0-3.0-22.6-1.6","63f795d78dc12fffa0aad1ba","A3","batch1","","448","","","tol_toboard","","","","","","","","","tol_peg_3","448","448","0","[[0,0,0],[1,2],[3]]","7","[[0,0,0],[1,2],[3]]","4","0","","","","","","7","",""
"","","","","","poldrack-single-stim","259","588694","0.0-3.0-23.0","63f795d78dc12fffa0aad1ba","A3","batch1","","-1","","","tol_feedback","true","","","","","","","","","1000","1000","500","","","","","","-1","none","true","10687","13877","","",""
"","","","","","html-button-response","260","589341","0.0-3.0-24.0","63f795d78dc12fffa0aad1ba","A3","batch1","","645.6999999955297","<div class = centerbox><p class = center-block-text>problem <strong>6</strong> out of 25 problems</p></div>","0","tol_trial_num","","","","","","","","","","","","","","","","","","","","","","","","",""
"","","","","","single-stim-button","261","605389","0.0-3.0-25.0-0.0","63f795d78dc12fffa0aad1ba","A3","batch1","","16048","","","tol_tohand","","","","","","","","","tol_peg_2","16048","16048","0","[[0,0,0],[1,0],[3]]","1","[[1,0,0],[2,3],[0]]","5","0","","","","","","6","",""
"","","","","","single-stim-button","262","606493","0.0-3.0-25.0-1.0","63f795d78dc12fffa0aad1ba","A3","batch1","","1104","","","tol_toboard","","","","","","","","","tol_peg_1","1104","1104","0","[[2,0,0],[1,0],[3]]","1","[[1,0,0],[2,3],[0]]","5","0","","","","","","6","",""
"","","","","","single-stim-button","263","607261","0.0-3.0-25.1-0.1","63f795d78dc12fffa0aad1ba","A3","batch1","","768","","","tol_tohand","","","","","","","","","tol_peg_3","768","768","0","[[2,0,0],[1,0],[0]]","2","[[1,0,0],[2,3],[0]]","5","0","","","","","","6","",""
"","","","","","single-stim-button","264","608093","0.0-3.0-25.1-1.1","63f795d78dc12fffa0aad1ba","A3","batch1","","832","","","tol_toboard","","","","","","","","","tol_peg_1","832","832","0","[[2,3,0],[1,0],[0]]","2","[[1,0,0],[2,3],[0]]","5","0","","","","","","6","",""
"","","","","","single-stim-button","265","608541","0.0-3.0-25.2-0.2","63f795d78dc12fffa0aad1ba","A3","batch1","","447","","","tol_tohand","","","","","","","","","tol_peg_2","447","447","0","[[2,3,0],[0,0],[0]]","3","[[1,0,0],[2,3],[0]]","5","0","","","","","","6","",""
"","","","","","single-stim-button","266","609237","0.0-3.0-25.2-1.2","63f795d78dc12fffa0aad1ba","A3","batch1","","696","","","tol_toboard","","","","","","","","","tol_peg_3","696","696","0","[[2,3,0],[0,0],[1]]","3","[[1,0,0],[2,3],[0]]","5","0","","","","","","6","",""
"","","","","","single-stim-button","267","609837","0.0-3.0-25.3-0.3","63f795d78dc12fffa0aad1ba","A3","batch1","","599","","","tol_tohand","","","","","","","","","tol_peg_1","599","599","0","[[2,0,0],[0,0],[1]]","4","[[1,0,0],[2,3],[0]]","5","0","","","","","","6","",""
"","","","","","single-stim-button","268","610445","0.0-3.0-25.3-1.3","63f795d78dc12fffa0aad1ba","A3","batch1","","607","","","tol_toboard","","","","","","","","","tol_peg_2","607","607","0","[[2,0,0],[3,0],[1]]","4","[[1,0,0],[2,3],[0]]","5","0","","","","","","6","",""
"","","","","","single-stim-button","269","612373","0.0-3.0-25.4-0.4","63f795d78dc12fffa0aad1ba","A3","batch1","","1927","","","tol_tohand","","","","","","","","","tol_peg_1","1927","1927","0","[[0,0,0],[3,0],[1]]","5","[[1,0,0],[2,3],[0]]","5","0","","","","","","6","",""
"","","","","","single-stim-button","270","612718","0.0-3.0-25.4-1.4","63f795d78dc12fffa0aad1ba","A3","batch1","","343","","","tol_toboard","","","","","","","","","tol_peg_2","343","343","0","[[0,0,0],[3,2],[1]]","5","[[1,0,0],[2,3],[0]]","5","0","","","","","","6","",""
"","","","","","single-stim-button","271","613069","0.0-3.0-25.5-0.5","63f795d78dc12fffa0aad1ba","A3","batch1","","351","","","tol_tohand","","","","","","","","","tol_peg_3","351","351","0","[[0,0,0],[3,2],[0]]","6","[[1,0,0],[2,3],[0]]","5","0","","","","","","6","",""
"","","","","","single-stim-button","272","613997","0.0-3.0-25.5-1.5","63f795d78dc12fffa0aad1ba","A3","batch1","","928","","","tol_toboard","","","","","","","","","tol_peg_1","928","928","0","[[1,0,0],[3,2],[0]]","6","[[1,0,0],[2,3],[0]]","5","0","","","","","","6","",""
"","","","","","single-stim-button","273","614845","0.0-3.0-25.6-0.6","63f795d78dc12fffa0aad1ba","A3","batch1","","848","","","tol_tohand","","","","","","","","","tol_peg_2","848","848","0","[[1,0,0],[3,0],[0]]","7","[[1,0,0],[2,3],[0]]","5","0","","","","","","6","",""
"","","","","","single-stim-button","274","615365","0.0-3.0-25.6-1.6","63f795d78dc12fffa0aad1ba","A3","batch1","","519","","","tol_toboard","","","","","","","","","tol_peg_3","519","519","0","[[1,0,0],[3,0],[2]]","7","[[1,0,0],[2,3],[0]]","5","0","","","","","","6","",""
"","","","","","single-stim-button","275","615709","0.0-3.0-25.7-0.7","63f795d78dc12fffa0aad1ba","A3","batch1","","343","","","tol_tohand","","","","","","","","","tol_peg_2","343","343","0","[[1,0,0],[0,0],[2]]","8","[[1,0,0],[2,3],[0]]","5","0","","","","","","6","",""
"","","","","","single-stim-button","276","616237","0.0-3.0-25.7-1.7","63f795d78dc12fffa0aad1ba","A3","batch1","","528","","","tol_toboard","","","","","","","","","tol_peg_1","528","528","0","[[1,3,0],[0,0],[2]]","8","[[1,0,0],[2,3],[0]]","5","0","","","","","","6","",""
"","","","","","single-stim-button","277","617077","0.0-3.0-25.8-0.8","63f795d78dc12fffa0aad1ba","A3","batch1","","839","","","tol_tohand","","","","","","","","","tol_peg_3","839","839","0","[[1,3,0],[0,0],[0]]","9","[[1,0,0],[2,3],[0]]","5","0","","","","","","6","",""
"","","","","","single-stim-button","278","617637","0.0-3.0-25.8-1.8","63f795d78dc12fffa0aad1ba","A3","batch1","","559","","","tol_toboard","","","","","","","","","tol_peg_2","559","559","0","[[1,3,0],[2,0],[0]]","9","[[1,0,0],[2,3],[0]]","5","0","","","","","","6","",""
"","","","","","single-stim-button","279","618125","0.0-3.0-25.9-0.9","63f795d78dc12fffa0aad1ba","A3","batch1","","488","","","tol_tohand","","","","","","","","","tol_peg_1","488","488","0","[[1,0,0],[2,0],[0]]","10","[[1,0,0],[2,3],[0]]","5","0","","","","","","6","",""
"","","","","","single-stim-button","280","618677","0.0-3.0-25.9-1.9","63f795d78dc12fffa0aad1ba","A3","batch1","","551","","","tol_toboard","","","","","","","","","tol_peg_2","551","551","0","[[1,0,0],[2,3],[0]]","10","[[1,0,0],[2,3],[0]]","5","0","","","","","","6","",""
"","","","","","poldrack-single-stim","281","619687","0.0-3.0-26.0","63f795d78dc12fffa0aad1ba","A3","batch1","","-1","","","tol_feedback","true","","","","","","","","","1000","1000","500","","","","","","-1","none","true","16048","22658","","",""
"","","","","","html-button-response","282","620533","0.0-3.0-27.0","63f795d78dc12fffa0aad1ba","A3","batch1","","844.8999999985099","<div class = centerbox><p class = center-block-text>problem <strong>7</strong> out of 25 problems</p></div>","0","tol_trial_num","","","","","","","","","","","","","","","","","","","","","","","","",""
"","","","","","single-stim-button","283","624085","0.0-3.0-28.0-0.0","63f795d78dc12fffa0aad1ba","A3","batch1","","3552","","","tol_tohand","","","","","","","","","tol_peg_3","3552","3552","0","[[2,1,0],[0,0],[0]]","1","[[1,2,0],[3,0],[0]]","6","0","","","","","","5","",""
"","","","","","single-stim-button","284","624621","0.0-3.0-28.0-1.0","63f795d78dc12fffa0aad1ba","A3","batch1","","535","","","tol_toboard","","","","","","","","","tol_peg_2","535","535","0","[[2,1,0],[3,0],[0]]","1","[[1,2,0],[3,0],[0]]","6","0","","","","","","5","",""
"","","","","","single-stim-button","285","625469","0.0-3.0-28.1-0.1","63f795d78dc12fffa0aad1ba","A3","batch1","","848","","","tol_tohand","","","","","","","","","tol_peg_1","848","848","0","[[2,0,0],[3,0],[0]]","2","[[1,2,0],[3,0],[0]]","6","0","","","","","","5","",""
"","","","","","single-stim-button","286","627349","0.0-3.0-28.1-1.1","63f795d78dc12fffa0aad1ba","A3","batch1","","1880","","","tol_toboard","","","","","","","","","tol_peg_3","1880","1880","0","[[2,0,0],[3,0],[1]]","2","[[1,2,0],[3,0],[0]]","6","0","","","","","","5","",""
"","","","","","single-stim-button","287","627957","0.0-3.0-28.2-0.2","63f795d78dc12fffa0aad1ba","A3","batch1","","608","","","tol_tohand","","","","","","","","","tol_peg_1","608","608","0","[[0,0,0],[3,0],[1]]","3","[[1,2,0],[3,0],[0]]","6","0","","","","","","5","",""
"","","","","","single-stim-button","288","628365","0.0-3.0-28.2-1.2","63f795d78dc12fffa0aad1ba","A3","batch1","","408","","","tol_toboard","","","","","","","","","tol_peg_2","408","408","0","[[0,0,0],[3,2],[1]]","3","[[1,2,0],[3,0],[0]]","6","0","","","","","","5","",""
"","","","","","single-stim-button","289","628741","0.0-3.0-28.3-0.3","63f795d78dc12fffa0aad1ba","A3","batch1","","376","","","tol_tohand","","","","","","","","","tol_peg_3","376","376","0","[[0,0,0],[3,2],[0]]","4","[[1,2,0],[3,0],[0]]","6","0","","","","","","5","",""
"","","","","","single-stim-button","290","629558","0.0-3.0-28.3-1.3","63f795d78dc12fffa0aad1ba","A3","batch1","","816","","","tol_toboard","","","","","","","","","tol_peg_1","816","816","0","[[1,0,0],[3,2],[0]]","4","[[1,2,0],[3,0],[0]]","6","0","","","","","","5","",""
"","","","","","single-stim-button","291","629973","0.0-3.0-28.4-0.4","63f795d78dc12fffa0aad1ba","A3","batch1","","415","","","tol_tohand","","","","","","","","","tol_peg_2","415","415","0","[[1,0,0],[3,0],[0]]","5","[[1,2,0],[3,0],[0]]","6","0","","","","","","5","",""
"","","","","","single-stim-button","292","630797","0.0-3.0-28.4-1.4","63f795d78dc12fffa0aad1ba","A3","batch1","","824","","","tol_toboard","","","","","","","","","tol_peg_1","824","824","0","[[1,2,0],[3,0],[0]]","5","[[1,2,0],[3,0],[0]]","6","0","","","","","","5","",""
"","","","","","poldrack-single-stim","293","631799","0.0-3.0-29.0","63f795d78dc12fffa0aad1ba","A3","batch1","","-1","","","tol_feedback","true","","","","","","","","","1000","1000","500","","","","","","-1","none","true","3552","5799","","",""
"","","","","","html-button-response","294","632517","0.0-3.0-30.0","63f795d78dc12fffa0aad1ba","A3","batch1","","718.1000000014901","<div class = centerbox><p class = center-block-text>problem <strong>8</strong> out of 25 problems</p></div>","0","tol_trial_num","","","","","","","","","","","","","","","","","","","","","","","","",""
"","","","","","single-stim-button","295","635829","0.0-3.0-31.0-0.0","63f795d78dc12fffa0aad1ba","A3","batch1","","3311","","","tol_tohand","","","","","","","","","tol_peg_3","3311","3311","0","[[0,0,0],[2,3],[0]]","1","[[1,2,0],[3,0],[0]]","7","0","","","","","","4","",""
"","","","","","single-stim-button","296","636685","0.0-3.0-31.0-1.0","63f795d78dc12fffa0aad1ba","A3","batch1","","855","","","tol_toboard","","","","","","","","","tol_peg_1","855","855","0","[[1,0,0],[2,3],[0]]","1","[[1,2,0],[3,0],[0]]","7","0","","","","","","4","",""
"","","","","","single-stim-button","297","638997","0.0-3.0-31.1-0.1","63f795d78dc12fffa0aad1ba","A3","batch1","","2312","","","tol_tohand","","","","","","","","","tol_peg_2","2312","2312","0","[[1,0,0],[2,0],[0]]","2","[[1,2,0],[3,0],[0]]","7","0","","","","","","4","",""
"","","","","","single-stim-button","298","639533","0.0-3.0-31.1-1.1","63f795d78dc12fffa0aad1ba","A3","batch1","","535","","","tol_toboard","","","","","","","","","tol_peg_3","535","535","0","[[1,0,0],[2,0],[3]]","2","[[1,2,0],[3,0],[0]]","7","0","","","","","","4","",""
"","","","","","single-stim-button","299","640021","0.0-3.0-31.2-0.2","63f795d78dc12fffa0aad1ba","A3","batch1","","488","","","tol_tohand","","","","","","","","","tol_peg_2","488","488","0","[[1,0,0],[0,0],[3]]","3","[[1,2,0],[3,0],[0]]","7","0","","","","","","4","",""
"","","","","","single-stim-button","300","640406","0.0-3.0-31.2-1.2","63f795d78dc12fffa0aad1ba","A3","batch1","","384","","","tol_toboard","","","","","","","","","tol_peg_1","384","384","0","[[1,2,0],[0,0],[3]]","3","[[1,2,0],[3,0],[0]]","7","0","","","","","","4","",""
"","","","","","single-stim-button","301","641077","0.0-3.0-31.3-0.3","63f795d78dc12fffa0aad1ba","A3","batch1","","671","","","tol_tohand","","","","","","","","","tol_peg_3","671","671","0","[[1,2,0],[0,0],[0]]","4","[[1,2,0],[3,0],[0]]","7","0","","","","","","4","",""
"","","","","","single-stim-button","302","641573","0.0-3.0-31.3-1.3","63f795d78dc12fffa0aad1ba","A3","batch1","","496","","","tol_toboard","","","","","","","","","tol_peg_2","496","496","0","[[1,2,0],[3,0],[0]]","4","[[1,2,0],[3,0],[0]]","7","0","","","","","","4","",""
"","","","","","poldrack-single-stim","303","642574","0.0-3.0-32.0","63f795d78dc12fffa0aad1ba","A3","batch1","","-1","","","tol_feedback","true","","","","","","","","","1000","1000","500","","","","","","-1","none","true","3311","6782","","",""
"","","","","","html-button-response","304","643221","0.0-3.0-33.0","63f795d78dc12fffa0aad1ba","A3","batch1","","646.7999999970198","<div class = centerbox><p class = center-block-text>problem <strong>9</strong> out of 25 problems</p></div>","0","tol_trial_num","","","","","","","","","","","","","","","","","","","","","","","","",""
"","","","","","single-stim-button","305","652829","0.0-3.0-34.0-0.0","63f795d78dc12fffa0aad1ba","A3","batch1","","9608","","","tol_tohand","","","","","","","","","tol_peg_1","9608","9608","0","[[3,0,0],[0,0],[1]]","1","[[2,1,0],[3,0],[0]]","8","0","","","","","","6","",""
"","","","","","single-stim-button","306","657725","0.0-3.0-34.0-1.0","63f795d78dc12fffa0aad1ba","A3","batch1","","4896","","","tol_toboard","","","","","","","","","tol_peg_2","4896","4896","0","[[3,0,0],[2,0],[1]]","1","[[2,1,0],[3,0],[0]]","8","0","","","","","","6","",""
"","","","","","single-stim-button","307","660541","0.0-3.0-34.1-0.1","63f795d78dc12fffa0aad1ba","A3","batch1","","2815","","","tol_tohand","","","","","","","","","tol_peg_3","2815","2815","0","[[3,0,0],[2,0],[0]]","2","[[2,1,0],[3,0],[0]]","8","0","","","","","","6","",""
"","","","","","single-stim-button","308","663725","0.0-3.0-34.1-1.1","63f795d78dc12fffa0aad1ba","A3","batch1","","3184","","","tol_toboard","","","","","","","","","tol_peg_2","3184","3184","0","[[3,0,0],[2,1],[0]]","2","[[2,1,0],[3,0],[0]]","8","0","","","","","","6","",""
"","","","","","single-stim-button","309","664358","0.0-3.0-34.2-0.2","63f795d78dc12fffa0aad1ba","A3","batch1","","632","","","tol_tohand","","","","","","","","","tol_peg_1","632","632","0","[[0,0,0],[2,1],[0]]","3","[[2,1,0],[3,0],[0]]","8","0","","","","","","6","",""
"","","","","","single-stim-button","310","665486","0.0-3.0-34.2-1.2","63f795d78dc12fffa0aad1ba","A3","batch1","","1127","","","tol_toboard","","","","","","","","","tol_peg_3","1127","1127","0","[[0,0,0],[2,1],[3]]","3","[[2,1,0],[3,0],[0]]","8","0","","","","","","6","",""
"","","","","","single-stim-button","311","671694","0.0-3.0-34.3-0.3","63f795d78dc12fffa0aad1ba","A3","batch1","","6207","","","tol_tohand","","","","","","","","","tol_peg_2","6207","6207","0","[[0,0,0],[2,0],[3]]","4","[[2,1,0],[3,0],[0]]","8","0","","","","","","6","",""
"","","","","","single-stim-button","312","672590","0.0-3.0-34.3-1.3","63f795d78dc12fffa0aad1ba","A3","batch1","","895","","","tol_toboard","","","","","","","","","tol_peg_1","895","895","0","[[1,0,0],[2,0],[3]]","4","[[2,1,0],[3,0],[0]]","8","0","","","","","","6","",""
"","","","","","single-stim-button","313","672982","0.0-3.0-34.4-0.4","63f795d78dc12fffa0aad1ba","A3","batch1","","392","","","tol_tohand","","","","","","","","","tol_peg_3","392","392","0","[[1,0,0],[2,0],[0]]","5","[[2,1,0],[3,0],[0]]","8","0","","","","","","6","",""
"","","","","","single-stim-button","314","673654","0.0-3.0-34.4-1.4","63f795d78dc12fffa0aad1ba","A3","batch1","","672","","","tol_toboard","","","","","","","","","tol_peg_2","672","672","0","[[1,0,0],[2,3],[0]]","5","[[2,1,0],[3,0],[0]]","8","0","","","","","","6","",""
"","","","","","single-stim-button","315","674766","0.0-3.0-34.5-0.5","63f795d78dc12fffa0aad1ba","A3","batch1","","1112","","","tol_tohand","","","","","","","","","tol_peg_1","1112","1112","0","[[0,0,0],[2,3],[0]]","6","[[2,1,0],[3,0],[0]]","8","0","","","","","","6","",""
"","","","","","single-stim-button","316","675278","0.0-3.0-34.5-1.5","63f795d78dc12fffa0aad1ba","A3","batch1","","511","","","tol_toboard","","","","","","","","","tol_peg_3","511","511","0","[[0,0,0],[2,3],[1]]","6","[[2,1,0],[3,0],[0]]","8","0","","","","","","6","",""
"","","","","","single-stim-button","317","676326","0.0-3.0-34.6-0.6","63f795d78dc12fffa0aad1ba","A3","batch1","","1048","","","tol_tohand","","","","","","","","","tol_peg_2","1048","1048","0","[[0,0,0],[2,0],[1]]","7","[[2,1,0],[3,0],[0]]","8","0","","","","","","6","",""
"","","","","","single-stim-button","318","679877","0.0-3.0-34.6-1.6","63f795d78dc12fffa0aad1ba","A3","batch1","","3551","","","tol_toboard","","","","","","","","","tol_peg_1","3551","3551","0","[[3,0,0],[2,0],[1]]","7","[[2,1,0],[3,0],[0]]","8","0","","","","","","6","",""
"","","","","","single-stim-button","319","680422","0.0-3.0-34.7-0.7","63f795d78dc12fffa0aad1ba","A3","batch1","","543","","","tol_tohand","","","","","","","","","tol_peg_2","543","543","0","[[3,0,0],[0,0],[1]]","8","[[2,1,0],[3,0],[0]]","8","0","","","","","","6","",""
"","","","","","single-stim-button","320","680990","0.0-3.0-34.7-1.7","63f795d78dc12fffa0aad1ba","A3","batch1","","568","","","tol_toboard","","","","","","","","","tol_peg_1","568","568","0","[[3,2,0],[0,0],[1]]","8","[[2,1,0],[3,0],[0]]","8","0","","","","","","6","",""
"","","","","","single-stim-button","321","681741","0.0-3.0-34.8-0.8","63f795d78dc12fffa0aad1ba","A3","batch1","","751","","","tol_tohand","","","","","","","","","tol_peg_3","751","751","0","[[3,2,0],[0,0],[0]]","9","[[2,1,0],[3,0],[0]]","8","0","","","","","","6","",""
"","","","","","single-stim-button","322","682222","0.0-3.0-34.8-1.8","63f795d78dc12fffa0aad1ba","A3","batch1","","479","","","tol_toboard","","","","","","","","","tol_peg_2","479","479","0","[[3,2,0],[1,0],[0]]","9","[[2,1,0],[3,0],[0]]","8","0","","","","","","6","",""
"","","","","","single-stim-button","323","682902","0.0-3.0-34.9-0.9","63f795d78dc12fffa0aad1ba","A3","batch1","","680","","","tol_tohand","","","","","","","","","tol_peg_1","680","680","0","[[3,0,0],[1,0],[0]]","10","[[2,1,0],[3,0],[0]]","8","0","","","","","","6","",""
"","","","","","single-stim-button","324","683342","0.0-3.0-34.9-1.9","63f795d78dc12fffa0aad1ba","A3","batch1","","439","","","tol_toboard","","","","","","","","","tol_peg_2","439","439","0","[[3,0,0],[1,2],[0]]","10","[[2,1,0],[3,0],[0]]","8","0","","","","","","6","",""
"","","","","","single-stim-button","325","684950","0.0-3.0-34.10-0.10","63f795d78dc12fffa0aad1ba","A3","batch1","","1608","","","tol_tohand","","","","","","","","","tol_peg_1","1608","1608","0","[[0,0,0],[1,2],[0]]","11","[[2,1,0],[3,0],[0]]","8","0","","","","","","6","",""
"","","","","","single-stim-button","326","685438","0.0-3.0-34.10-1.10","63f795d78dc12fffa0aad1ba","A3","batch1","","488","","","tol_toboard","","","","","","","","","tol_peg_3","488","488","0","[[0,0,0],[1,2],[3]]","11","[[2,1,0],[3,0],[0]]","8","0","","","","","","6","",""
"","","","","","single-stim-button","327","686494","0.0-3.0-34.11-0.11","63f795d78dc12fffa0aad1ba","A3","batch1","","1055","","","tol_tohand","","","","","","","","","tol_peg_2","1055","1055","0","[[0,0,0],[1,0],[3]]","12","[[2,1,0],[3,0],[0]]","8","0","","","","","","6","",""
"","","","","","single-stim-button","328","687246","0.0-3.0-34.11-1.11","63f795d78dc12fffa0aad1ba","A3","batch1","","752","","","tol_toboard","","","","","","","","","tol_peg_1","752","752","0","[[2,0,0],[1,0],[3]]","12","[[2,1,0],[3,0],[0]]","8","0","","","","","","6","",""
"","","","","","single-stim-button","329","687670","0.0-3.0-34.12-0.12","63f795d78dc12fffa0aad1ba","A3","batch1","","423","","","tol_tohand","","","","","","","","","tol_peg_2","423","423","0","[[2,0,0],[0,0],[3]]","13","[[2,1,0],[3,0],[0]]","8","0","","","","","","6","",""
"","","","","","single-stim-button","330","688134","0.0-3.0-34.12-1.12","63f795d78dc12fffa0aad1ba","A3","batch1","","464","","","tol_toboard","","","","","","","","","tol_peg_1","464","464","0","[[2,1,0],[0,0],[3]]","13","[[2,1,0],[3,0],[0]]","8","0","","","","","","6","",""
"","","","","","single-stim-button","331","689542","0.0-3.0-34.13-0.13","63f795d78dc12fffa0aad1ba","A3","batch1","","1408","","","tol_tohand","","","","","","","","","tol_peg_3","1408","1408","0","[[2,1,0],[0,0],[0]]","14","[[2,1,0],[3,0],[0]]","8","0","","","","","","6","",""
"","","","","","single-stim-button","332","690166","0.0-3.0-34.13-1.13","63f795d78dc12fffa0aad1ba","A3","batch1","","623","","","tol_toboard","","","","","","","","","tol_peg_2","623","623","0","[[2,1,0],[3,0],[0]]","14","[[2,1,0],[3,0],[0]]","8","0","","","","","","6","",""
"","","","","","poldrack-single-stim","333","691178","0.0-3.0-35.0","63f795d78dc12fffa0aad1ba","A3","batch1","","-1","","","tol_feedback","true","","","","","","","","","1000","1000","500","","","","","","-1","none","true","9608","28282","","",""
"","","","","","html-button-response","334","691982","0.0-3.0-36.0","63f795d78dc12fffa0aad1ba","A3","batch1","","803.1999999955297","<div class = centerbox><p class = center-block-text>problem <strong>10</strong> out of 25 problems</p></div>","0","tol_trial_num","","","","","","","","","","","","","","","","","","","","","","","","",""
"","","","","","single-stim-button","335","696718","0.0-3.0-37.0-0.0","63f795d78dc12fffa0aad1ba","A3","batch1","","4735","","","tol_tohand","","","","","","","","","tol_peg_2","4735","4735","0","[[3,0,0],[0,0],[2]]","1","[[3,0,0],[2,1],[0]]","9","0","","","","","","3","",""
"","","","","","single-stim-button","336","697486","0.0-3.0-37.0-1.0","63f795d78dc12fffa0aad1ba","A3","batch1","","768","","","tol_toboard","","","","","","","","","tol_peg_1","768","768","0","[[3,1,0],[0,0],[2]]","1","[[3,0,0],[2,1],[0]]","9","0","","","","","","3","",""
"","","","","","single-stim-button","337","697910","0.0-3.0-37.1-0.1","63f795d78dc12fffa0aad1ba","A3","batch1","","424","","","tol_tohand","","","","","","","","","tol_peg_3","424","424","0","[[3,1,0],[0,0],[0]]","2","[[3,0,0],[2,1],[0]]","9","0","","","","","","3","",""
"","","","","","single-stim-button","338","698470","0.0-3.0-37.1-1.1","63f795d78dc12fffa0aad1ba","A3","batch1","","560","","","tol_toboard","","","","","","","","","tol_peg_2","560","560","0","[[3,1,0],[2,0],[0]]","2","[[3,0,0],[2,1],[0]]","9","0","","","","","","3","",""
"","","","","","single-stim-button","339","698990","0.0-3.0-37.2-0.2","63f795d78dc12fffa0aad1ba","A3","batch1","","520","","","tol_tohand","","","","","","","","","tol_peg_1","520","520","0","[[3,0,0],[2,0],[0]]","3","[[3,0,0],[2,1],[0]]","9","0","","","","","","3","",""
"","","","","","single-stim-button","340","699814","0.0-3.0-37.2-1.2","63f795d78dc12fffa0aad1ba","A3","batch1","","824","","","tol_toboard","","","","","","","","","tol_peg_2","824","824","0","[[3,0,0],[2,1],[0]]","3","[[3,0,0],[2,1],[0]]","9","0","","","","","","3","",""
"","","","","","poldrack-single-stim","341","700818","0.0-3.0-38.0","63f795d78dc12fffa0aad1ba","A3","batch1","","-1","","","tol_feedback","true","","","","","","","","","1000","1000","500","","","","","","-1","none","true","4735","5679","","",""
"","","","","","html-button-response","342","702014","0.0-3.0-39.0","63f795d78dc12fffa0aad1ba","A3","batch1","","1195.2999999970198","<div class = centerbox><p class = center-block-text>problem <strong>11</strong> out of 25 problems</p></div>","0","tol_trial_num","","","","","","","","","","","","","","","","","","","","","","","","",""
"","","","","","single-stim-button","343","709214","0.0-3.0-40.0-0.0","63f795d78dc12fffa0aad1ba","A3","batch1","","7200","","","tol_tohand","","","","","","","","","tol_peg_2","7200","7200","0","[[1,2,0],[0,0],[0]]","1","[[2,0,0],[1,3],[0]]","10","0","","","","","","6","",""
"","","","","","single-stim-button","344","709702","0.0-3.0-40.0-1.0","63f795d78dc12fffa0aad1ba","A3","batch1","","487","","","tol_toboard","","","","","","","","","tol_peg_3","487","487","0","[[1,2,0],[0,0],[3]]","1","[[2,0,0],[1,3],[0]]","10","0","","","","","","6","",""
"","","","","","single-stim-button","345","713494","0.0-3.0-40.1-0.1","63f795d78dc12fffa0aad1ba","A3","batch1","","3792","","","tol_tohand","","","","","","","","","tol_peg_1","3792","3792","0","[[1,0,0],[0,0],[3]]","2","[[2,0,0],[1,3],[0]]","10","0","","","","","","6","",""
"","","","","","single-stim-button","346","716390","0.0-3.0-40.1-1.1","63f795d78dc12fffa0aad1ba","A3","batch1","","2895","","","tol_toboard","","","","","","","","","tol_peg_2","2895","2895","0","[[1,0,0],[2,0],[3]]","2","[[2,0,0],[1,3],[0]]","10","0","","","","","","6","",""
"","","","","","single-stim-button","347","717046","0.0-3.0-40.2-0.2","63f795d78dc12fffa0aad1ba","A3","batch1","","656","","","tol_tohand","","","","","","","","","tol_peg_1","656","656","0","[[0,0,0],[2,0],[3]]","3","[[2,0,0],[1,3],[0]]","10","0","","","","","","6","",""
"","","","","","single-stim-button","348","718334","0.0-3.0-40.2-1.2","63f795d78dc12fffa0aad1ba","A3","batch1","","1288","","","tol_toboard","","","","","","","","","tol_peg_2","1288","1288","0","[[0,0,0],[2,1],[3]]","3","[[2,0,0],[1,3],[0]]","10","0","","","","","","6","",""
"","","","","","single-stim-button","349","719478","0.0-3.0-40.3-0.3","63f795d78dc12fffa0aad1ba","A3","batch1","","1144","","","tol_tohand","","","","","","","","","tol_peg_3","1144","1144","0","[[0,0,0],[2,1],[0]]","4","[[2,0,0],[1,3],[0]]","10","0","","","","","","6","",""
