"success","timeout","failed_images","failed_audio","failed_video","trial_type","trial_index","time_elapsed","internal_node_id","subject_id","study_id","session_id","task","rt","stimulus","response","item","answer","correct","spm_correct","spm_rt","view_history","mouse_click","stim_duration","block_duration","timing_post_trial","current_position","tol_num_moves_made","tol_target","tol_problem_id","tol_rt","key_press","possible_responses","tol_correct","preplanning","tol_rt_per_trial","tol_min_moves","fiar_detect_rt","fiar_detect_correct","total_correct_fiar_detect","post_trial_gap","choices"
"true","false","[]","[]","[]","preload","0","26261","0.0-0.0","63f919b924be75908b13bc1b","D2","batch4","","","","","","","","","","","","","","","","","","","","","","","","","","","","","",""
"true","","","","","fullscreen","1","41067","0.0-1.0-0.0","63f919b924be75908b13bc1b","D2","batch4","","","","","","","","","","","","","","","","","","","","","","","","","","","","","",""
"true","","","","","fullscreen","2","45443","0.0-2.0-0.0","63f919b924be75908b13bc1b","D2","batch4","spm_fullscreen","","","","","","","","","","","","","","","","","","","","","","","","","","","","",""
"","","","","","html-button-response","3","64490","0.0-2.0-1.0","63f919b924be75908b13bc1b","D2","batch4","","19046.300000000745","<p class = block-text><b>Instructions</b> <br>This is a widely used intelligence test in research. <br>In this test, a figure with a missing piece will be presented.<br>Below the figure are alternative pieces to complete the figure, only one of which is correct.<br> Different figures might involve different principles for obtaining the missing piece<br>Your job is to select the most logical piece to complete the figure.</p>","0","","","","","","","","","","","","","","","","","","","","","","","","","",""
"","","","","","html-keyboard-response","4","65291","0.0-2.0-2.0-0.0","63f919b924be75908b13bc1b","D2","batch4","spm_show_trial_num","null","<p class=block-text>Trial 1 out of 60</p>","null","","","","","","","","","","","","","","","","","","","","","","","","","",""
"","","","","","image-button-response","5","72891","0.0-2.0-2.0-1.0","63f919b924be75908b13bc1b","D2","batch4","spm_respsonse","7596.600000000559","img/question_1_1.jpeg","3","mat_01","4","1","1","7596.600000000559","","","","","","","","","","","","","","","","","","","","",""
"","","","","","html-keyboard-response","6","73969","0.0-2.0-2.0-0.1","63f919b924be75908b13bc1b","D2","batch4","spm_show_trial_num","null","<p class=block-text>Trial 2 out of 60</p>","null","","","","","","","","","","","","","","","","","","","","","","","","","",""
"","","","","","image-button-response","7","76355","0.0-2.0-2.0-1.1","63f919b924be75908b13bc1b","D2","batch4","spm_respsonse","2385.2000000001863","img/question_1_2.jpeg","4","mat_02","5","1","1","2385.2000000001863","","","","","","","","","","","","","","","","","","","","",""
"","","","","","html-keyboard-response","8","77422","0.0-2.0-2.0-0.2","63f919b924be75908b13bc1b","D2","batch4","spm_show_trial_num","null","<p class=block-text>Trial 3 out of 60</p>","null","","","","","","","","","","","","","","","","","","","","","","","","","",""
"","","","","","image-button-response","9","79315","0.0-2.0-2.0-1.2","63f919b924be75908b13bc1b","D2","batch4","spm_respsonse","1890.5999999996275","img/question_1_3.jpeg","0","mat_03","1","1","1","1890.5999999996275","","","","","","","","","","","","","","","","","","","","",""
"","","","","","html-keyboard-response","10","80367","0.0-2.0-2.0-0.3","63f919b924be75908b13bc1b","D2","batch4","spm_show_trial_num","null","<p class=block-text>Trial 4 out of 60</p>","null","","","","","","","","","","","","","","","","","","","","","","","","","",""
"","","","","","image-button-response","11","83203","0.0-2.0-2.0-1.3","63f919b924be75908b13bc1b","D2","batch4","spm_respsonse","2835.0999999996275","img/question_1_4.jpeg","1","mat_04","2","1","1","2835.0999999996275","","","","","","","","","","","","","","","","","","","","",""
"","","","","","html-keyboard-response","12","84254","0.0-2.0-2.0-0.4","63f919b924be75908b13bc1b","D2","batch4","spm_show_trial_num","null","<p class=block-text>Trial 5 out of 60</p>","null","","","","","","","","","","","","","","","","","","","","","","","","","",""
"","","","","","image-button-response","13","86875","0.0-2.0-2.0-1.4","63f919b924be75908b13bc1b","D2","batch4","spm_respsonse","2619.2999999998137","img/question_1_5.jpeg","5","mat_05","6","1","1","2619.2999999998137","","","","","","","","","","","","","","","","","","","","",""
"","","","","","html-keyboard-response","14","87941","0.0-2.0-2.0-0.5","63f919b924be75908b13bc1b","D2","batch4","spm_show_trial_num","null","<p class=block-text>Trial 6 out of 60</p>","null","","","","","","","","","","","","","","","","","","","","","","","","","",""
"","","","","","image-button-response","15","91099","0.0-2.0-2.0-1.5","63f919b924be75908b13bc1b","D2","batch4","spm_respsonse","3156.7999999998137","img/question_1_6.jpeg","2","mat_06","3","1","1","3156.7999999998137","","","","","","","","","","","","","","","","","","","","",""
"","","","","","html-keyboard-response","16","92161","0.0-2.0-2.0-0.6","63f919b924be75908b13bc1b","D2","batch4","spm_show_trial_num","null","<p class=block-text>Trial 7 out of 60</p>","null","","","","","","","","","","","","","","","","","","","","","","","","","",""
"","","","","","image-button-response","17","97123","0.0-2.0-2.0-1.6","63f919b924be75908b13bc1b","D2","batch4","spm_respsonse","4960.4000000003725","img/question_1_7.jpeg","5","mat_07","6","1","1","4960.4000000003725","","","","","","","","","","","","","","","","","","","","",""
"","","","","","html-keyboard-response","18","98192","0.0-2.0-2.0-0.7","63f919b924be75908b13bc1b","D2","batch4","spm_show_trial_num","null","<p class=block-text>Trial 8 out of 60</p>","null","","","","","","","","","","","","","","","","","","","","","","","","","",""
"","","","","","image-button-response","19","103267","0.0-2.0-2.0-1.7","63f919b924be75908b13bc1b","D2","batch4","spm_respsonse","5073","img/question_1_8.jpeg","1","mat_08","2","1","1","5073","","","","","","","","","","","","","","","","","","","","",""
"","","","","","html-keyboard-response","20","104344","0.0-2.0-2.0-0.8","63f919b924be75908b13bc1b","D2","batch4","spm_show_trial_num","null","<p class=block-text>Trial 9 out of 60</p>","null","","","","","","","","","","","","","","","","","","","","","","","","","",""
"","","","","","image-button-response","21","108627","0.0-2.0-2.0-1.8","63f919b924be75908b13bc1b","D2","batch4","spm_respsonse","4280.799999999814","img/question_1_9.jpeg","0","mat_09","1","1","1","4280.799999999814","","","","","","","","","","","","","","","","","","","","",""
"","","","","","html-keyboard-response","22","109681","0.0-2.0-2.0-0.9","63f919b924be75908b13bc1b","D2","batch4","spm_show_trial_num","null","<p class=block-text>Trial 10 out of 60</p>","null","","","","","","","","","","","","","","","","","","","","","","","","","",""
"","","","","","image-button-response","23","113723","0.0-2.0-2.0-1.9","63f919b924be75908b13bc1b","D2","batch4","spm_respsonse","4040","img/question_1_10.jpeg","2","mat_10","3","1","1","4040","","","","","","","","","","","","","","","","","","","","",""
"","","","","","html-keyboard-response","24","114788","0.0-2.0-2.0-0.10","63f919b924be75908b13bc1b","D2","batch4","spm_show_trial_num","null","<p class=block-text>Trial 11 out of 60</p>","null","","","","","","","","","","","","","","","","","","","","","","","","","",""
"","","","","","image-button-response","25","123107","0.0-2.0-2.0-1.10","63f919b924be75908b13bc1b","D2","batch4","spm_respsonse","8317.200000000186","img/question_1_11.jpeg","3","mat_11","4","1","1","8317.200000000186","","","","","","","","","","","","","","","","","","","","",""
"","","","","","html-keyboard-response","26","124169","0.0-2.0-2.0-0.11","63f919b924be75908b13bc1b","D2","batch4","spm_show_trial_num","null","<p class=block-text>Trial 12 out of 60</p>","null","","","","","","","","","","","","","","","","","","","","","","","","","",""
"","","","","","image-button-response","27","132068","0.0-2.0-2.0-1.11","63f919b924be75908b13bc1b","D2","batch4","spm_respsonse","7905.299999999814","img/question_1_12.jpeg","0","mat_12","5","0","0","7905.299999999814","","","","","","","","","","","","","","","","","","","","",""
"","","","","","html-keyboard-response","28","133119","0.0-2.0-2.0-0.12","63f919b924be75908b13bc1b","D2","batch4","spm_show_trial_num","null","<p class=block-text>Trial 13 out of 60</p>","null","","","","","","","","","","","","","","","","","","","","","","","","","",""
"","","","","","image-button-response","29","136355","0.0-2.0-2.0-1.12","63f919b924be75908b13bc1b","D2","batch4","spm_respsonse","3234.5999999996275","img/question_2_1.jpeg","1","mat_13","2","1","1","3234.5999999996275","","","","","","","","","","","","","","","","","","","","",""
"","","","","","html-keyboard-response","30","137417","0.0-2.0-2.0-0.13","63f919b924be75908b13bc1b","D2","batch4","spm_show_trial_num","null","<p class=block-text>Trial 14 out of 60</p>","null","","","","","","","","","","","","","","","","","","","","","","","","","",""
"","","","","","image-button-response","31","141067","0.0-2.0-2.0-1.13","63f919b924be75908b13bc1b","D2","batch4","spm_respsonse","3648.7000000001863","img/question_2_2.jpeg","5","mat_14","6","1","1","3648.7000000001863","","","","","","","","","","","","","","","","","","","","",""
"","","","","","html-keyboard-response","32","142132","0.0-2.0-2.0-0.14","63f919b924be75908b13bc1b","D2","batch4","spm_show_trial_num","null","<p class=block-text>Trial 15 out of 60</p>","null","","","","","","","","","","","","","","","","","","","","","","","","","",""
"","","","","","image-button-response","33","145155","0.0-2.0-2.0-1.14","63f919b924be75908b13bc1b","D2","batch4","spm_respsonse","3022","img/question_2_3.jpeg","0","mat_15","1","1","1","3022","","","","","","","","","","","","","","","","","","","","",""
"","","","","","html-keyboard-response","34","146213","0.0-2.0-2.0-0.15","63f919b924be75908b13bc1b","D2","batch4","spm_show_trial_num","null","<p class=block-text>Trial 16 out of 60</p>","null","","","","","","","","","","","","","","","","","","","","","","","","","",""
"","","","","","image-button-response","35","148779","0.0-2.0-2.0-1.15","63f919b924be75908b13bc1b","D2","batch4","spm_respsonse","2564.600000000559","img/question_2_4.jpeg","1","mat_16","2","1","1","2564.600000000559","","","","","","","","","","","","","","","","","","","","",""
"","","","","","html-keyboard-response","36","149835","0.0-2.0-2.0-0.16","63f919b924be75908b13bc1b","D2","batch4","spm_show_trial_num","null","<p class=block-text>Trial 17 out of 60</p>","null","","","","","","","","","","","","","","","","","","","","","","","","","",""
"","","","","","image-button-response","37","154011","0.0-2.0-2.0-1.16","63f919b924be75908b13bc1b","D2","batch4","spm_respsonse","4174.4000000003725","img/question_2_5.jpeg","0","mat_17","1","1","1","4174.4000000003725","","","","","","","","","","","","","","","","","","","","",""
"","","","","","html-keyboard-response","38","155077","0.0-2.0-2.0-0.17","63f919b924be75908b13bc1b","D2","batch4","spm_show_trial_num","null","<p class=block-text>Trial 18 out of 60</p>","null","","","","","","","","","","","","","","","","","","","","","","","","","",""
"","","","","","image-button-response","39","158659","0.0-2.0-2.0-1.17","63f919b924be75908b13bc1b","D2","batch4","spm_respsonse","3581.0999999996275","img/question_2_6.jpeg","2","mat_18","3","1","1","3581.0999999996275","","","","","","","","","","","","","","","","","","","","",""
"","","","","","html-keyboard-response","40","159737","0.0-2.0-2.0-0.18","63f919b924be75908b13bc1b","D2","batch4","spm_show_trial_num","null","<p class=block-text>Trial 19 out of 60</p>","null","","","","","","","","","","","","","","","","","","","","","","","","","",""
"","","","","","image-button-response","41","167875","0.0-2.0-2.0-1.18","63f919b924be75908b13bc1b","D2","batch4","spm_respsonse","8137.5","img/question_2_7.jpeg","5","mat_19","5","0","0","8137.5","","","","","","","","","","","","","","","","","","","","",""
"","","","","","html-keyboard-response","42","168934","0.0-2.0-2.0-0.19","63f919b924be75908b13bc1b","D2","batch4","spm_show_trial_num","null","<p class=block-text>Trial 20 out of 60</p>","null","","","","","","","","","","","","","","","","","","","","","","","","","",""
"","","","","","image-button-response","43","175611","0.0-2.0-2.0-1.19","63f919b924be75908b13bc1b","D2","batch4","spm_respsonse","6675.899999999441","img/question_2_8.jpeg","5","mat_20","6","1","1","6675.899999999441","","","","","","","","","","","","","","","","","","","","",""
"","","","","","html-keyboard-response","44","176664","0.0-2.0-2.0-0.20","63f919b924be75908b13bc1b","D2","batch4","spm_show_trial_num","null","<p class=block-text>Trial 21 out of 60</p>","null","","","","","","","","","","","","","","","","","","","","","","","","","",""
"","","","","","image-button-response","45","181195","0.0-2.0-2.0-1.20","63f919b924be75908b13bc1b","D2","batch4","spm_respsonse","4529.299999999814","img/question_2_9.jpeg","3","mat_21","4","1","1","4529.299999999814","","","","","","","","","","","","","","","","","","","","",""
"","","","","","html-keyboard-response","46","182264","0.0-2.0-2.0-0.21","63f919b924be75908b13bc1b","D2","batch4","spm_show_trial_num","null","<p class=block-text>Trial 22 out of 60</p>","null","","","","","","","","","","","","","","","","","","","","","","","","","",""
"","","","","","image-button-response","47","191819","0.0-2.0-2.0-1.21","63f919b924be75908b13bc1b","D2","batch4","spm_respsonse","9553.600000000559","img/question_2_10.jpeg","2","mat_22","3","1","1","9553.600000000559","","","","","","","","","","","","","","","","","","","","",""
"","","","","","html-keyboard-response","48","192897","0.0-2.0-2.0-0.22","63f919b924be75908b13bc1b","D2","batch4","spm_show_trial_num","null","<p class=block-text>Trial 23 out of 60</p>","null","","","","","","","","","","","","","","","","","","","","","","","","","",""
"","","","","","image-button-response","49","199283","0.0-2.0-2.0-1.22","63f919b924be75908b13bc1b","D2","batch4","spm_respsonse","6384.700000000186","img/question_2_11.jpeg","3","mat_23","4","1","1","6384.700000000186","","","","","","","","","","","","","","","","","","","","",""
"","","","","","html-keyboard-response","50","200339","0.0-2.0-2.0-0.23","63f919b924be75908b13bc1b","D2","batch4","spm_show_trial_num","null","<p class=block-text>Trial 24 out of 60</p>","null","","","","","","","","","","","","","","","","","","","","","","","","","",""
"","","","","","image-button-response","51","209948","0.0-2.0-2.0-1.23","63f919b924be75908b13bc1b","D2","batch4","spm_respsonse","9607.400000000373","img/question_2_12.jpeg","4","mat_24","5","1","1","9607.400000000373","","","","","","","","","","","","","","","","","","","","",""
"","","","","","html-button-response","52","212155","0.0-2.0-3.0","63f919b924be75908b13bc1b","D2","batch4","attention_check","1955.6000000005588","<p class = block-text>Attention check: Please choose 1<br></p>","0","","","true","","","","","","","","","","","","","","","","","","","","","","",""
"","","","","","html-keyboard-response","53","212969","0.0-2.0-4.0-0.0","63f919b924be75908b13bc1b","D2","batch4","spm_show_trial_num","null","<p class=block-text>Trial 25 out of 60</p>","null","","","","","","","","","","","","","","","","","","","","","","","","","",""
"","","","","","image-button-response","54","221659","0.0-2.0-4.0-1.0","63f919b924be75908b13bc1b","D2","batch4","spm_respsonse","8689.099999999627","img/question_3_1.jpeg","7","mat_25","8","1","1","8689.099999999627","","","","","","","","","","","","","","","","","","","","",""
"","","","","","html-keyboard-response","55","222732","0.0-2.0-4.0-0.1","63f919b924be75908b13bc1b","D2","batch4","spm_show_trial_num","null","<p class=block-text>Trial 26 out of 60</p>","null","","","","","","","","","","","","","","","","","","","","","","","","","",""
"","","","","","image-button-response","56","229267","0.0-2.0-4.0-1.1","63f919b924be75908b13bc1b","D2","batch4","spm_respsonse","6534","img/question_3_2.jpeg","1","mat_26","2","1","1","6534","","","","","","","","","","","","","","","","","","","","",""
"","","","","","html-keyboard-response","57","230343","0.0-2.0-4.0-0.2","63f919b924be75908b13bc1b","D2","batch4","spm_show_trial_num","null","<p class=block-text>Trial 27 out of 60</p>","null","","","","","","","","","","","","","","","","","","","","","","","","","",""
"","","","","","image-button-response","58","239451","0.0-2.0-4.0-1.2","63f919b924be75908b13bc1b","D2","batch4","spm_respsonse","9107.5","img/question_3_3.jpeg","2","mat_27","3","1","1","9107.5","","","","","","","","","","","","","","","","","","","","",""
"","","","","","html-keyboard-response","59","240515","0.0-2.0-4.0-0.3","63f919b924be75908b13bc1b","D2","batch4","spm_show_trial_num","null","<p class=block-text>Trial 28 out of 60</p>","null","","","","","","","","","","","","","","","","","","","","","","","","","",""
"","","","","","image-button-response","60","251051","0.0-2.0-4.0-1.3","63f919b924be75908b13bc1b","D2","batch4","spm_respsonse","10534.799999999814","img/question_3_4.jpeg","7","mat_28","8","1","1","10534.799999999814","","","","","","","","","","","","","","","","","","","","",""
"","","","","","html-keyboard-response","61","252115","0.0-2.0-4.0-0.4","63f919b924be75908b13bc1b","D2","batch4","spm_show_trial_num","null","<p class=block-text>Trial 29 out of 60</p>","null","","","","","","","","","","","","","","","","","","","","","","","","","",""
"","","","","","image-button-response","62","268419","0.0-2.0-4.0-1.4","63f919b924be75908b13bc1b","D2","batch4","spm_respsonse","16302.399999999441","img/question_3_5.jpeg","6","mat_29","7","1","1","16302.399999999441","","","","","","","","","","","","","","","","","","","","",""
"","","","","","html-keyboard-response","63","269489","0.0-2.0-4.0-0.5","63f919b924be75908b13bc1b","D2","batch4","spm_show_trial_num","null","<p class=block-text>Trial 30 out of 60</p>","null","","","","","","","","","","","","","","","","","","","","","","","","","",""
"","","","","","image-button-response","64","275108","0.0-2.0-4.0-1.5","63f919b924be75908b13bc1b","D2","batch4","spm_respsonse","5616.700000000186","img/question_3_6.jpeg","3","mat_30","4","1","1","5616.700000000186","","","","","","","","","","","","","","","","","","","","",""
"","","","","","html-keyboard-response","65","276174","0.0-2.0-4.0-0.6","63f919b924be75908b13bc1b","D2","batch4","spm_show_trial_num","null","<p class=block-text>Trial 31 out of 60</p>","null","","","","","","","","","","","","","","","","","","","","","","","","","",""
"","","","","","image-button-response","66","281563","0.0-2.0-4.0-1.6","63f919b924be75908b13bc1b","D2","batch4","spm_respsonse","5387.799999999814","img/question_3_7.jpeg","4","mat_31","5","1","1","5387.799999999814","","","","","","","","","","","","","","","","","","","","",""
"","","","","","html-keyboard-response","67","282624","0.0-2.0-4.0-0.7","63f919b924be75908b13bc1b","D2","batch4","spm_show_trial_num","null","<p class=block-text>Trial 32 out of 60</p>","null","","","","","","","","","","","","","","","","","","","","","","","","","",""
"","","","","","image-button-response","68","287771","0.0-2.0-4.0-1.7","63f919b924be75908b13bc1b","D2","batch4","spm_respsonse","5146","img/question_3_8.jpeg","0","mat_32","1","1","1","5146","","","","","","","","","","","","","","","","","","","","",""
"","","","","","html-keyboard-response","69","288824","0.0-2.0-4.0-0.8","63f919b924be75908b13bc1b","D2","batch4","spm_show_trial_num","null","<p class=block-text>Trial 33 out of 60</p>","null","","","","","","","","","","","","","","","","","","","","","","","","","",""
"","","","","","image-button-response","70","297052","0.0-2.0-4.0-1.8","63f919b924be75908b13bc1b","D2","batch4","spm_respsonse","8226.400000000373","img/question_3_9.jpeg","6","mat_33","7","1","1","8226.400000000373","","","","","","","","","","","","","","","","","","","","",""
"","","","","","html-keyboard-response","71","298117","0.0-2.0-4.0-0.9","63f919b924be75908b13bc1b","D2","batch4","spm_show_trial_num","null","<p class=block-text>Trial 34 out of 60</p>","null","","","","","","","","","","","","","","","","","","","","","","","","","",""
"","","","","","image-button-response","72","317812","0.0-2.0-4.0-1.9","63f919b924be75908b13bc1b","D2","batch4","spm_respsonse","19693.5","img/question_3_10.jpeg","5","mat_34","6","1","1","19693.5","","","","","","","","","","","","","","","","","","","","",""
"","","","","","html-keyboard-response","73","318875","0.0-2.0-4.0-0.10","63f919b924be75908b13bc1b","D2","batch4","spm_show_trial_num","null","<p class=block-text>Trial 35 out of 60</p>","null","","","","","","","","","","","","","","","","","","","","","","","","","",""
"","","","","","image-button-response","74","333564","0.0-2.0-4.0-1.10","63f919b924be75908b13bc1b","D2","batch4","spm_respsonse","14687.900000000373","img/question_3_11.jpeg","4","mat_35","1","0","0","14687.900000000373","","","","","","","","","","","","","","","","","","","","",""
"","","","","","html-keyboard-response","75","334616","0.0-2.0-4.0-0.11","63f919b924be75908b13bc1b","D2","batch4","spm_show_trial_num","null","<p class=block-text>Trial 36 out of 60</p>","null","","","","","","","","","","","","","","","","","","","","","","","","","",""
"","","","","","image-button-response","76","388700","0.0-2.0-4.0-1.11","63f919b924be75908b13bc1b","D2","batch4","spm_respsonse","54082.89999999944","img/question_3_12.jpeg","3","mat_36","2","0","0","54082.89999999944","","","","","","","","","","","","","","","","","","","","",""
"","","","","","html-keyboard-response","77","389759","0.0-2.0-4.0-0.12","63f919b924be75908b13bc1b","D2","batch4","spm_show_trial_num","null","<p class=block-text>Trial 37 out of 60</p>","null","","","","","","","","","","","","","","","","","","","","","","","","","",""
"","","","","","image-button-response","78","394324","0.0-2.0-4.0-1.12","63f919b924be75908b13bc1b","D2","batch4","spm_respsonse","4564","img/question_4_1.jpeg","2","mat_37","3","1","1","4564","","","","","","","","","","","","","","","","","","","","",""
"","","","","","html-keyboard-response","79","395376","0.0-2.0-4.0-0.13","63f919b924be75908b13bc1b","D2","batch4","spm_show_trial_num","null","<p class=block-text>Trial 38 out of 60</p>","null","","","","","","","","","","","","","","","","","","","","","","","","","",""
"","","","","","image-button-response","80","407812","0.0-2.0-4.0-1.13","63f919b924be75908b13bc1b","D2","batch4","spm_respsonse","12434.599999999627","img/question_4_2.jpeg","3","mat_38","4","1","1","12434.599999999627","","","","","","","","","","","","","","","","","","","","",""
"","","","","","html-keyboard-response","81","408899","0.0-2.0-4.0-0.14","63f919b924be75908b13bc1b","D2","batch4","spm_show_trial_num","null","<p class=block-text>Trial 39 out of 60</p>","null","","","","","","","","","","","","","","","","","","","","","","","","","",""
"","","","","","image-button-response","82","417596","0.0-2.0-4.0-1.14","63f919b924be75908b13bc1b","D2","batch4","spm_respsonse","8695.5","img/question_4_3.jpeg","2","mat_39","3","1","1","8695.5","","","","","","","","","","","","","","","","","","","","",""
"","","","","","html-keyboard-response","83","418648","0.0-2.0-4.0-0.15","63f919b924be75908b13bc1b","D2","batch4","spm_show_trial_num","null","<p class=block-text>Trial 40 out of 60</p>","null","","","","","","","","","","","","","","","","","","","","","","","","","",""
"","","","","","image-button-response","84","431316","0.0-2.0-4.0-1.15","63f919b924be75908b13bc1b","D2","batch4","spm_respsonse","12667","img/question_4_4.jpeg","6","mat_40","7","1","1","12667","","","","","","","","","","","","","","","","","","","","",""
"","","","","","html-keyboard-response","85","432390","0.0-2.0-4.0-0.16","63f919b924be75908b13bc1b","D2","batch4","spm_show_trial_num","null","<p class=block-text>Trial 41 out of 60</p>","null","","","","","","","","","","","","","","","","","","","","","","","","","",""
"","","","","","image-button-response","86","439836","0.0-2.0-4.0-1.16","63f919b924be75908b13bc1b","D2","batch4","spm_respsonse","7444.5999999996275","img/question_4_5.jpeg","7","mat_41","8","1","1","7444.5999999996275","","","","","","","","","","","","","","","","","","","","",""
"","","","","","html-keyboard-response","87","440900","0.0-2.0-4.0-0.17","63f919b924be75908b13bc1b","D2","batch4","spm_show_trial_num","null","<p class=block-text>Trial 42 out of 60</p>","null","","","","","","","","","","","","","","","","","","","","","","","","","",""
"","","","","","image-button-response","88","455741","0.0-2.0-4.0-1.17","63f919b924be75908b13bc1b","D2","batch4","spm_respsonse","14839.399999999441","img/question_4_6.jpeg","5","mat_42","6","1","1","14839.399999999441","","","","","","","","","","","","","","","","","","","","",""
"","","","","","html-keyboard-response","89","456813","0.0-2.0-4.0-0.18","63f919b924be75908b13bc1b","D2","batch4","spm_show_trial_num","null","<p class=block-text>Trial 43 out of 60</p>","null","","","","","","","","","","","","","","","","","","","","","","","","","",""
"","","","","","image-button-response","90","473103","0.0-2.0-4.0-1.18","63f919b924be75908b13bc1b","D2","batch4","spm_respsonse","16288.200000000186","img/question_4_7.jpeg","4","mat_43","5","1","1","16288.200000000186","","","","","","","","","","","","","","","","","","","","",""
"","","","","","html-keyboard-response","91","474154","0.0-2.0-4.0-0.19","63f919b924be75908b13bc1b","D2","batch4","spm_show_trial_num","null","<p class=block-text>Trial 44 out of 60</p>","null","","","","","","","","","","","","","","","","","","","","","","","","","",""
"","","","","","image-button-response","92","482172","0.0-2.0-4.0-1.19","63f919b924be75908b13bc1b","D2","batch4","spm_respsonse","8016.300000000745","img/question_4_8.jpeg","0","mat_44","4","0","0","8016.300000000745","","","","","","","","","","","","","","","","","","","","",""
"","","","","","html-keyboard-response","93","483241","0.0-2.0-4.0-0.20","63f919b924be75908b13bc1b","D2","batch4","spm_show_trial_num","null","<p class=block-text>Trial 45 out of 60</p>","null","","","","","","","","","","","","","","","","","","","","","","","","","",""
"","","","","","image-button-response","94","512364","0.0-2.0-4.0-1.20","63f919b924be75908b13bc1b","D2","batch4","spm_respsonse","29122","img/question_4_9.jpeg","5","mat_45","1","0","0","29122","","","","","","","","","","","","","","","","","","","","",""
"","","","","","html-keyboard-response","95","513417","0.0-2.0-4.0-0.21","63f919b924be75908b13bc1b","D2","batch4","spm_show_trial_num","null","<p class=block-text>Trial 46 out of 60</p>","null","","","","","","","","","","","","","","","","","","","","","","","","","",""
"","","","","","image-button-response","96","539069","0.0-2.0-4.0-1.21","63f919b924be75908b13bc1b","D2","batch4","spm_respsonse","25650.39999999944","img/question_4_10.jpeg","1","mat_46","2","1","1","25650.39999999944","","","","","","","","","","","","","","","","","","","","",""
"","","","","","html-keyboard-response","97","540124","0.0-2.0-4.0-0.22","63f919b924be75908b13bc1b","D2","batch4","spm_show_trial_num","null","<p class=block-text>Trial 47 out of 60</p>","null","","","","","","","","","","","","","","","","","","","","","","","","","",""
"","","","","","image-button-response","98","584588","0.0-2.0-4.0-1.22","63f919b924be75908b13bc1b","D2","batch4","spm_respsonse","44462.699999999255","img/question_4_11.jpeg","6","mat_47","5","0","0","44462.699999999255","","","","","","","","","","","","","","","","","","","","",""
"","","","","","html-keyboard-response","99","585661","0.0-2.0-4.0-0.23","63f919b924be75908b13bc1b","D2","batch4","spm_show_trial_num","null","<p class=block-text>Trial 48 out of 60</p>","null","","","","","","","","","","","","","","","","","","","","","","","","","",""
"","","","","","image-button-response","100","600796","0.0-2.0-4.0-1.23","63f919b924be75908b13bc1b","D2","batch4","spm_respsonse","15133.899999999441","img/question_4_12.jpeg","6","mat_48","6","0","0","15133.899999999441","","","","","","","","","","","","","","","","","","","","",""
"","","","","","html-keyboard-response","101","601851","0.0-2.0-4.0-0.24","63f919b924be75908b13bc1b","D2","batch4","spm_show_trial_num","null","<p class=block-text>Trial 49 out of 60</p>","null","","","","","","","","","","","","","","","","","","","","","","","","","",""
"","","","","","image-button-response","102","609381","0.0-2.0-4.0-1.24","63f919b924be75908b13bc1b","D2","batch4","spm_respsonse","7528.5","img/question_5_1.jpeg","6","mat_49","7","1","1","7528.5","","","","","","","","","","","","","","","","","","","","",""
"","","","","","html-keyboard-response","103","610451","0.0-2.0-4.0-0.25","63f919b924be75908b13bc1b","D2","batch4","spm_show_trial_num","null","<p class=block-text>Trial 50 out of 60</p>","null","","","","","","","","","","","","","","","","","","","","","","","","","",""
"","","","","","image-button-response","104","619749","0.0-2.0-4.0-1.25","63f919b924be75908b13bc1b","D2","batch4","spm_respsonse","9296.199999999255","img/question_5_2.jpeg","5","mat_50","6","1","1","9296.199999999255","","","","","","","","","","","","","","","","","","","","",""
"","","","","","html-keyboard-response","105","620818","0.0-2.0-4.0-0.26","63f919b924be75908b13bc1b","D2","batch4","spm_show_trial_num","null","<p class=block-text>Trial 51 out of 60</p>","null","","","","","","","","","","","","","","","","","","","","","","","","","",""
"","","","","","image-button-response","106","631916","0.0-2.0-4.0-1.26","63f919b924be75908b13bc1b","D2","batch4","spm_respsonse","11096.900000000373","img/question_5_3.jpeg","7","mat_51","8","1","1","11096.900000000373","","","","","","","","","","","","","","","","","","","","",""
"","","","","","html-keyboard-response","107","632969","0.0-2.0-4.0-0.27","63f919b924be75908b13bc1b","D2","batch4","spm_show_trial_num","null","<p class=block-text>Trial 52 out of 60</p>","null","","","","","","","","","","","","","","","","","","","","","","","","","",""
"","","","","","image-button-response","108","646909","0.0-2.0-4.0-1.27","63f919b924be75908b13bc1b","D2","batch4","spm_respsonse","13938.299999999814","img/question_5_4.jpeg","2","mat_52","2","0","0","13938.299999999814","","","","","","","","","","","","","","","","","","","","",""
"","","","","","html-keyboard-response","109","647966","0.0-2.0-4.0-0.28","63f919b924be75908b13bc1b","D2","batch4","spm_show_trial_num","null","<p class=block-text>Trial 53 out of 60</p>","null","","","","","","","","","","","","","","","","","","","","","","","","","",""
"","","","","","image-button-response","110","660101","0.0-2.0-4.0-1.28","63f919b924be75908b13bc1b","D2","batch4","spm_respsonse","12133.199999999255","img/question_5_5.jpeg","0","mat_53","1","1","1","12133.199999999255","","","","","","","","","","","","","","","","","","","","",""
"","","","","","html-keyboard-response","111","661153","0.0-2.0-4.0-0.29","63f919b924be75908b13bc1b","D2","batch4","spm_show_trial_num","null","<p class=block-text>Trial 54 out of 60</p>","null","","","","","","","","","","","","","","","","","","","","","","","","","",""
"","","","","","image-button-response","112","674909","0.0-2.0-4.0-1.29","63f919b924be75908b13bc1b","D2","batch4","spm_respsonse","13754.899999999441","img/question_5_6.jpeg","4","mat_54","5","1","1","13754.899999999441","","","","","","","","","","","","","","","","","","","","",""
"","","","","","html-keyboard-response","113","675985","0.0-2.0-4.0-0.30","63f919b924be75908b13bc1b","D2","batch4","spm_show_trial_num","null","<p class=block-text>Trial 55 out of 60</p>","null","","","","","","","","","","","","","","","","","","","","","","","","","",""
"","","","","","image-button-response","114","702661","0.0-2.0-4.0-1.30","63f919b924be75908b13bc1b","D2","batch4","spm_respsonse","26673.89999999944","img/question_5_7.jpeg","6","mat_55","1","0","0","26673.89999999944","","","","","","","","","","","","","","","","","","","","",""
"","","","","","html-keyboard-response","115","703712","0.0-2.0-4.0-0.31","63f919b924be75908b13bc1b","D2","batch4","spm_show_trial_num","null","<p class=block-text>Trial 56 out of 60</p>","null","","","","","","","","","","","","","","","","","","","","","","","","","",""
"","","","","","image-button-response","116","714261","0.0-2.0-4.0-1.31","63f919b924be75908b13bc1b","D2","batch4","spm_respsonse","10547.900000000373","img/question_5_8.jpeg","1","mat_56","6","0","0","10547.900000000373","","","","","","","","","","","","","","","","","","","","",""
"","","","","","html-keyboard-response","117","715315","0.0-2.0-4.0-0.32","63f919b924be75908b13bc1b","D2","batch4","spm_show_trial_num","null","<p class=block-text>Trial 57 out of 60</p>","null","","","","","","","","","","","","","","","","","","","","","","","","","",""
"","","","","","image-button-response","118","731925","0.0-2.0-4.0-1.32","63f919b924be75908b13bc1b","D2","batch4","spm_respsonse","16607.700000000186","img/question_5_9.jpeg","2","mat_57","3","1","1","16607.700000000186","","","","","","","","","","","","","","","","","","","","",""
"","","","","","html-keyboard-response","119","732993","0.0-2.0-4.0-0.33","63f919b924be75908b13bc1b","D2","batch4","spm_show_trial_num","null","<p class=block-text>Trial 58 out of 60</p>","null","","","","","","","","","","","","","","","","","","","","","","","","","",""
"","","","","","image-button-response","120","748053","0.0-2.0-4.0-1.33","63f919b924be75908b13bc1b","D2","batch4","spm_respsonse","15058.799999999814","img/question_5_10.jpeg","3","mat_58","2","0","0","15058.799999999814","","","","","","","","","","","","","","","","","","","","",""
"","","","","","html-keyboard-response","121","749123","0.0-2.0-4.0-0.34","63f919b924be75908b13bc1b","D2","batch4","spm_show_trial_num","null","<p class=block-text>Trial 59 out of 60</p>","null","","","","","","","","","","","","","","","","","","","","","","","","","",""
"","","","","","image-button-response","122","777956","0.0-2.0-4.0-1.34","63f919b924be75908b13bc1b","D2","batch4","spm_respsonse","28831.700000000186","img/question_5_11.jpeg","2","mat_59","4","0","0","28831.700000000186","","","","","","","","","","","","","","","","","","","","",""
"","","","","","html-keyboard-response","123","779025","0.0-2.0-4.0-0.35","63f919b924be75908b13bc1b","D2","batch4","spm_show_trial_num","null","<p class=block-text>Trial 60 out of 60</p>","null","","","","","","","","","","","","","","","","","","","","","","","","","",""
"","","","","","image-button-response","124","798957","0.0-2.0-4.0-1.35","63f919b924be75908b13bc1b","D2","batch4","spm_respsonse","19930.599999999627","img/question_5_12.jpeg","2","mat_60","5","0","0","19930.599999999627","","","","","","","","","","","","","","","","","","","","",""
"","","","","","html-button-response","125","801189","0.0-2.0-5.0","63f919b924be75908b13bc1b","D2","batch4","spm_goodbye","1980.7000000001863","<p class= block-text>This concludes the Standard Progressive Matrix game. Thank you for your responses!<br> When you are ready, click the button continue</p>","0","","","","","","","","","","","","","","","","","","","","","","","","","",""
"true","","","","","fullscreen","126","803969","0.0-3.0-0.0","63f919b924be75908b13bc1b","D2","batch4","","","","","","","","","","","","","","","","","","","","","","","","","","","","","",""
"","","","","","instructions","127","839471","0.0-3.0-1.0-0.0-0.0","63f919b924be75908b13bc1b","D2","batch4","tol-instructions","35507.299999999814","","","","","","","","[{""page_index"":0,""viewing_time"":11763.5},{""page_index"":1,""viewing_time"":4320.299999999814},{""page_index"":2,""viewing_time"":2031.5},{""page_index"":3,""viewing_time"":6440},{""page_index"":4,""viewing_time"":4872},{""page_index"":5,""viewing_time"":2944},{""page_index"":6,""viewing_time"":3135.9000000003725}]","","","","","","","","","","","","","","","","","","","",""
"","","","","","html-button-response","128","840511","0.0-3.0-1.0-1.0-0.0","63f919b924be75908b13bc1b","D2","batch4","tol_enter_quiz","1038.9000000003725","<p class=block-text> Let's answer a few questions <br>","0","","","","","","","","","","","","","","","","","","","","","","","","","",""
"","","","","","html-button-response","129","844208","0.0-3.0-1.0-1.0-1.0","63f919b924be75908b13bc1b","D2","batch4","tol_quiz","3696.2999999998137","<p class = block-text>True or False: You can only move the ball on top of a peg. <br></p>","0","","","true","","","","","","","","","","","","","","","","","","","","","","",""
"","","","","","html-button-response","130","845407","0.0-3.0-1.0-1.0-2.0","63f919b924be75908b13bc1b","D2","batch4","tol_quiz_feedback","1198.4000000003725","<p class = block-text>Correct! You can only move the ball on top of a peg.</p>","0","","","","","","","","","","","","","","","","","","","","","","","","","",""
"","","","","","html-button-response","131","848559","0.0-3.0-1.0-1.0-3.0","63f919b924be75908b13bc1b","D2","batch4","tol_quiz","3151.9000000003725","<p class = block-text>True or False: You should try to match your board with the target board with fewest moves possible. <br></p>","0","","","true","","","","","","","","","","","","","","","","","","","","","","",""
"","","","","","html-button-response","132","849199","0.0-3.0-1.0-1.0-4.0","63f919b924be75908b13bc1b","D2","batch4","tol_quiz_feedback","639.2999999998137","<p class = block-text>Correct! </p>","0","","","","","","","","","","","","","","","","","","","","","","","","","",""
"","","","","","html-button-response","133","850879","0.0-3.0-2.0","63f919b924be75908b13bc1b","D2","batch4","","1678.7000000001863","<p class=block-text> Now that you've understood the game, let's practice a few easier examples before we start!<br> <br>","0","","","","","","","","","","","","","","","","","","","","","","","","","",""
"","","","","","single-stim-button","134","864929","0.0-3.0-3.0-0.0","63f919b924be75908b13bc1b","D2","batch4","tol_practice","14048","","","","","","","","","tol_peg_2","14048","14048","0","[[1,2,0],[0,0],[0]]","1","[[1,2,0],[0,0],[3]]","practice","14048","","","","","","","","","","",""
"","","","","","single-stim-button","135","865767","0.0-3.0-3.0-1.0","63f919b924be75908b13bc1b","D2","batch4","tol_practice","838","","","","","","","","","tol_peg_3","838","838","0","[[1,2,0],[0,0],[3]]","1","[[1,2,0],[0,0],[3]]","practice","838","","","","","","","","","","",""
"","","","","","poldrack-single-stim","136","866769","0.0-3.0-4.0","63f919b924be75908b13bc1b","D2","batch4","tol_feedback","-1","","","","","true","","","","","1000","1000","500","","","","","","-1","none","true","","0","","","","","",""
"","","","","","single-stim-button","137","873728","0.0-3.0-5.0-0.0","63f919b924be75908b13bc1b","D2","batch4","tol_practice","6957","","","","","","","","","tol_peg_1","6957","6957","0","[[1,0,0],[3,0],[0]]","2","[[0,0,0],[3,1],[2]]","practice","6957","","","","","","","","","","",""
"","","","","","single-stim-button","138","874599","0.0-3.0-5.0-1.0","63f919b924be75908b13bc1b","D2","batch4","tol_practice","871","","","","","","","","","tol_peg_3","871","871","0","[[1,0,0],[3,0],[2]]","2","[[0,0,0],[3,1],[2]]","practice","871","","","","","","","","","","",""
"","","","","","single-stim-button","139","875279","0.0-3.0-5.1-0.1","63f919b924be75908b13bc1b","D2","batch4","tol_practice","679","","","","","","","","","tol_peg_1","679","679","0","[[0,0,0],[3,0],[2]]","3","[[0,0,0],[3,1],[2]]","practice","679","","","","","","","","","","",""
"","","","","","single-stim-button","140","875847","0.0-3.0-5.1-1.1","63f919b924be75908b13bc1b","D2","batch4","tol_practice","568","","","","","","","","","tol_peg_2","568","568","0","[[0,0,0],[3,1],[2]]","3","[[0,0,0],[3,1],[2]]","practice","568","","","","","","","","","","",""
"","","","","","poldrack-single-stim","141","876866","0.0-3.0-6.0","63f919b924be75908b13bc1b","D2","batch4","tol_feedback","-1","","","","","true","","","","","1000","1000","500","","","","","","-1","none","true","","0","","","","","",""
"","","","","","single-stim-button","142","879136","0.0-3.0-7.0-0.0","63f919b924be75908b13bc1b","D2","batch4","tol_practice","2269","","","","","","","","","tol_peg_2","2269","2269","0","[[1,2,0],[0,0],[0]]","4","[[1,0,0],[2,0],[3]]","practice","2269","","","","","","","","","","",""
"","","","","","single-stim-button","143","879711","0.0-3.0-7.0-1.0","63f919b924be75908b13bc1b","D2","batch4","tol_practice","575","","","","","","","","","tol_peg_3","575","575","0","[[1,2,0],[0,0],[3]]","4","[[1,0,0],[2,0],[3]]","practice","575","","","","","","","","","","",""
"","","","","","single-stim-button","144","880464","0.0-3.0-7.1-0.1","63f919b924be75908b13bc1b","D2","batch4","tol_practice","752","","","","","","","","","tol_peg_1","752","752","0","[[1,0,0],[0,0],[3]]","5","[[1,0,0],[2,0],[3]]","practice","752","","","","","","","","","","",""
"","","","","","single-stim-button","145","881135","0.0-3.0-7.1-1.1","63f919b924be75908b13bc1b","D2","batch4","tol_practice","671","","","","","","","","","tol_peg_2","671","671","0","[[1,0,0],[2,0],[3]]","5","[[1,0,0],[2,0],[3]]","practice","671","","","","","","","","","","",""
"","","","","","poldrack-single-stim","146","882142","0.0-3.0-8.0","63f919b924be75908b13bc1b","D2","batch4","tol_feedback","-1","","","","","true","","","","","1000","1000","500","","","","","","-1","none","true","","0","","","","","",""
"","","","","","html-button-response","147","885880","0.0-3.0-9.0","63f919b924be75908b13bc1b","D2","batch4","tol_instruction","3737.0999999996275","<div class = centerbox><p class = center-block-text>Great job! You are done with practice trials<br>You are about to start official trials.<br> <br> Problem <strong>1</strong> out of 25 problems</p></div>","0","","","","","","","","","","","","","","","","","","","","","","","","","",""
"","","","","","single-stim-button","148","890668","0.0-3.0-10.0-0.0","63f919b924be75908b13bc1b","D2","batch4","tol_tohand","3786","","","","","","","","","tol_peg_1","3786","3786","0","[[1,0,0],[3,0],[0]]","1","[[1,3,0],[2,0],[0]]","0","0","","","","","","3","","","","",""
"","","","","","single-stim-button","149","891740","0.0-3.0-10.0-1.0","63f919b924be75908b13bc1b","D2","batch4","tol_toboard","1072","","","","","","","","","tol_peg_3","1072","1072","0","[[1,0,0],[3,0],[2]]","1","[[1,3,0],[2,0],[0]]","0","0","","","","","","3","","","","",""
"","","","","","single-stim-button","150","892483","0.0-3.0-10.1-0.1","63f919b924be75908b13bc1b","D2","batch4","tol_tohand","743","","","","","","","","","tol_peg_2","743","743","0","[[1,0,0],[0,0],[2]]","2","[[1,3,0],[2,0],[0]]","0","0","","","","","","3","","","","",""
"","","","","","single-stim-button","151","893075","0.0-3.0-10.1-1.1","63f919b924be75908b13bc1b","D2","batch4","tol_toboard","592","","","","","","","","","tol_peg_1","592","592","0","[[1,3,0],[0,0],[2]]","2","[[1,3,0],[2,0],[0]]","0","0","","","","","","3","","","","",""
"","","","","","single-stim-button","152","893635","0.0-3.0-10.2-0.2","63f919b924be75908b13bc1b","D2","batch4","tol_tohand","560","","","","","","","","","tol_peg_3","560","560","0","[[1,3,0],[0,0],[0]]","3","[[1,3,0],[2,0],[0]]","0","0","","","","","","3","","","","",""
"","","","","","single-stim-button","153","894244","0.0-3.0-10.2-1.2","63f919b924be75908b13bc1b","D2","batch4","tol_toboard","608","","","","","","","","","tol_peg_2","608","608","0","[[1,3,0],[2,0],[0]]","3","[[1,3,0],[2,0],[0]]","0","0","","","","","","3","","","","",""
"","","","","","poldrack-single-stim","154","895256","0.0-3.0-11.0","63f919b924be75908b13bc1b","D2","batch4","tol_feedback","-1","","","","","true","","","","","1000","1000","500","","","","","","-1","none","true","3786","5089","","","","","",""
"","","","","","html-button-response","155","896660","0.0-3.0-12.0","63f919b924be75908b13bc1b","D2","batch4","tol_trial_num","1402.7000000001863","<div class = centerbox><p class = center-block-text>problem <strong>2</strong> out of 25 problems</p></div>","0","","","","","","","","","","","","","","","","","","","","","","","","","",""
"","","","","","single-stim-button","156","900859","0.0-3.0-13.0-0.0","63f919b924be75908b13bc1b","D2","batch4","tol_tohand","4199","","","","","","","","","tol_peg_1","4199","4199","0","[[1,0,0],[3,0],[0]]","1","[[2,1,3],[0,0],[0]]","1","0","","","","","","5","","","","",""
"","","","","","single-stim-button","157","902356","0.0-3.0-13.0-1.0","63f919b924be75908b13bc1b","D2","batch4","tol_toboard","1496","","","","","","","","","tol_peg_2","1496","1496","0","[[1,0,0],[3,2],[0]]","1","[[2,1,3],[0,0],[0]]","1","0","","","","","","5","","","","",""
"","","","","","single-stim-button","158","903059","0.0-3.0-13.1-0.1","63f919b924be75908b13bc1b","D2","batch4","tol_tohand","703","","","","","","","","","tol_peg_1","703","703","0","[[0,0,0],[3,2],[0]]","2","[[2,1,3],[0,0],[0]]","1","0","","","","","","5","","","","",""
"","","","","","single-stim-button","159","904532","0.0-3.0-13.1-1.1","63f919b924be75908b13bc1b","D2","batch4","tol_toboard","1473","","","","","","","","","tol_peg_3","1473","1473","0","[[0,0,0],[3,2],[1]]","2","[[2,1,3],[0,0],[0]]","1","0","","","","","","5","","","","",""
"","","","","","single-stim-button","160","905132","0.0-3.0-13.2-0.2","63f919b924be75908b13bc1b","D2","batch4","tol_tohand","600","","","","","","","","","tol_peg_2","600","600","0","[[0,0,0],[3,0],[1]]","3","[[2,1,3],[0,0],[0]]","1","0","","","","","","5","","","","",""
"","","","","","single-stim-button","161","905807","0.0-3.0-13.2-1.2","63f919b924be75908b13bc1b","D2","batch4","tol_toboard","675","","","","","","","","","tol_peg_1","675","675","0","[[2,0,0],[3,0],[1]]","3","[[2,1,3],[0,0],[0]]","1","0","","","","","","5","","","","",""
"","","","","","single-stim-button","162","906588","0.0-3.0-13.3-0.3","63f919b924be75908b13bc1b","D2","batch4","tol_tohand","781","","","","","","","","","tol_peg_3","781","781","0","[[2,0,0],[3,0],[0]]","4","[[2,1,3],[0,0],[0]]","1","0","","","","","","5","","","","",""
"","","","","","single-stim-button","163","907180","0.0-3.0-13.3-1.3","63f919b924be75908b13bc1b","D2","batch4","tol_toboard","591","","","","","","","","","tol_peg_1","591","591","0","[[2,1,0],[3,0],[0]]","4","[[2,1,3],[0,0],[0]]","1","0","","","","","","5","","","","",""
"","","","","","single-stim-button","164","907795","0.0-3.0-13.4-0.4","63f919b924be75908b13bc1b","D2","batch4","tol_tohand","615","","","","","","","","","tol_peg_2","615","615","0","[[2,1,0],[0,0],[0]]","5","[[2,1,3],[0,0],[0]]","1","0","","","","","","5","","","","",""
"","","","","","single-stim-button","165","908211","0.0-3.0-13.4-1.4","63f919b924be75908b13bc1b","D2","batch4","tol_toboard","416","","","","","","","","","tol_peg_1","416","416","0","[[2,1,3],[0,0],[0]]","5","[[2,1,3],[0,0],[0]]","1","0","","","","","","5","","","","",""
"","","","","","poldrack-single-stim","166","909213","0.0-3.0-14.0","63f919b924be75908b13bc1b","D2","batch4","tol_feedback","-1","","","","","true","","","","","1000","1000","500","","","","","","-1","none","true","4199","6898","","","","","",""
"","","","","","html-button-response","167","910859","0.0-3.0-15.0","63f919b924be75908b13bc1b","D2","batch4","tol_trial_num","1645.8999999994412","<div class = centerbox><p class = center-block-text>problem <strong>3</strong> out of 25 problems</p></div>","0","","","","","","","","","","","","","","","","","","","","","","","","","",""
"","","","","","single-stim-button","168","913195","0.0-3.0-16.0-0.0","63f919b924be75908b13bc1b","D2","batch4","tol_tohand","2336","","","","","","","","","tol_peg_1","2336","2336","0","[[2,0,0],[0,0],[1]]","1","[[1,2,0],[3,0],[0]]","2","0","","","","","","4","","","","",""
"","","","","","single-stim-button","169","914028","0.0-3.0-16.0-1.0","63f919b924be75908b13bc1b","D2","batch4","tol_toboard","833","","","","","","","","","tol_peg_2","833","833","0","[[2,0,0],[3,0],[1]]","1","[[1,2,0],[3,0],[0]]","2","0","","","","","","4","","","","",""
"","","","","","single-stim-button","170","915718","0.0-3.0-16.1-0.1","63f919b924be75908b13bc1b","D2","batch4","tol_tohand","1690","","","","","","","","","tol_peg_1","1690","1690","0","[[0,0,0],[3,0],[1]]","2","[[1,2,0],[3,0],[0]]","2","0","","","","","","4","","","","",""
"","","","","","single-stim-button","171","916172","0.0-3.0-16.1-1.1","63f919b924be75908b13bc1b","D2","batch4","tol_toboard","454","","","","","","","","","tol_peg_2","454","454","0","[[0,0,0],[3,2],[1]]","2","[[1,2,0],[3,0],[0]]","2","0","","","","","","4","","","","",""
"","","","","","single-stim-button","172","917412","0.0-3.0-16.2-0.2","63f919b924be75908b13bc1b","D2","batch4","tol_tohand","1240","","","","","","","","","tol_peg_3","1240","1240","0","[[0,0,0],[3,2],[0]]","3","[[1,2,0],[3,0],[0]]","2","0","","","","","","4","","","","",""
"","","","","","single-stim-button","173","918308","0.0-3.0-16.2-1.2","63f919b924be75908b13bc1b","D2","batch4","tol_toboard","896","","","","","","","","","tol_peg_1","896","896","0","[[1,0,0],[3,2],[0]]","3","[[1,2,0],[3,0],[0]]","2","0","","","","","","4","","","","",""
"","","","","","single-stim-button","174","918860","0.0-3.0-16.3-0.3","63f919b924be75908b13bc1b","D2","batch4","tol_tohand","551","","","","","","","","","tol_peg_2","551","551","0","[[1,0,0],[3,0],[0]]","4","[[1,2,0],[3,0],[0]]","2","0","","","","","","4","","","","",""
"","","","","","single-stim-button","175","919276","0.0-3.0-16.3-1.3","63f919b924be75908b13bc1b","D2","batch4","tol_toboard","415","","","","","","","","","tol_peg_1","415","415","0","[[1,2,0],[3,0],[0]]","4","[[1,2,0],[3,0],[0]]","2","0","","","","","","4","","","","",""
"","","","","","poldrack-single-stim","176","920291","0.0-3.0-17.0","63f919b924be75908b13bc1b","D2","batch4","tol_feedback","-1","","","","","true","","","","","1000","1000","500","","","","","","-1","none","true","2336","5817","","","","","",""
"","","","","","html-button-response","177","921284","0.0-3.0-18.0","63f919b924be75908b13bc1b","D2","batch4","tol_trial_num","992.4000000003725","<div class = centerbox><p class = center-block-text>problem <strong>4</strong> out of 25 problems</p></div>","0","","","","","","","","","","","","","","","","","","","","","","","","","",""
"","","","","","single-stim-button","178","926548","0.0-3.0-19.0-0.0","63f919b924be75908b13bc1b","D2","batch4","tol_tohand","5264","","","","","","","","","tol_peg_2","5264","5264","0","[[3,0,0],[2,0],[0]]","1","[[3,0,0],[1,0],[2]]","3","0","","","","","","3","","","","",""
"","","","","","single-stim-button","179","927180","0.0-3.0-19.0-1.0","63f919b924be75908b13bc1b","D2","batch4","tol_toboard","631","","","","","","","","","tol_peg_1","631","631","0","[[3,1,0],[2,0],[0]]","1","[[3,0,0],[1,0],[2]]","3","0","","","","","","3","","","","",""
"","","","","","single-stim-button","180","928020","0.0-3.0-19.1-0.1","63f919b924be75908b13bc1b","D2","batch4","tol_tohand","839","","","","","","","","","tol_peg_2","839","839","0","[[3,1,0],[0,0],[0]]","2","[[3,0,0],[1,0],[2]]","3","0","","","","","","3","","","","",""
"","","","","","single-stim-button","181","928628","0.0-3.0-19.1-1.1","63f919b924be75908b13bc1b","D2","batch4","tol_toboard","607","","","","","","","","","tol_peg_3","607","607","0","[[3,1,0],[0,0],[2]]","2","[[3,0,0],[1,0],[2]]","3","0","","","","","","3","","","","",""
"","","","","","single-stim-button","182","929179","0.0-3.0-19.2-0.2","63f919b924be75908b13bc1b","D2","batch4","tol_tohand","551","","","","","","","","","tol_peg_1","551","551","0","[[3,0,0],[0,0],[2]]","3","[[3,0,0],[1,0],[2]]","3","0","","","","","","3","","","","",""
"","","","","","single-stim-button","183","929732","0.0-3.0-19.2-1.2","63f919b924be75908b13bc1b","D2","batch4","tol_toboard","552","","","","","","","","","tol_peg_2","552","552","0","[[3,0,0],[1,0],[2]]","3","[[3,0,0],[1,0],[2]]","3","0","","","","","","3","","","","",""
"","","","","","poldrack-single-stim","184","930749","0.0-3.0-20.0","63f919b924be75908b13bc1b","D2","batch4","tol_feedback","-1","","","","","true","","","","","1000","1000","500","","","","","","-1","none","true","5264","6654","","","","","",""
"","","","","","html-button-response","185","931859","0.0-3.0-21.0","63f919b924be75908b13bc1b","D2","batch4","tol_trial_num","1109.7000000001863","<div class = centerbox><p class = center-block-text>problem <strong>5</strong> out of 25 problems</p></div>","0","","","","","","","","","","","","","","","","","","","","","","","","","",""
"","","","","","single-stim-button","186","941275","0.0-3.0-22.0-0.0","63f919b924be75908b13bc1b","D2","batch4","tol_tohand","9416","","","","","","","","","tol_peg_1","9416","9416","0","[[0,0,0],[2,0],[3]]","1","[[0,0,0],[1,2],[3]]","4","0","","","","","","7","","","","",""
"","","","","","single-stim-button","187","943419","0.0-3.0-22.0-1.0","63f919b924be75908b13bc1b","D2","batch4","tol_toboard","2143","","","","","","","","","tol_peg_1","2143","2143","0","[[1,0,0],[2,0],[3]]","1","[[0,0,0],[1,2],[3]]","4","0","","","","","","7","","","","",""
"","","","","","single-stim-button","188","944499","0.0-3.0-22.1-0.1","63f919b924be75908b13bc1b","D2","batch4","tol_tohand","1080","","","","","","","","","tol_peg_3","1080","1080","0","[[1,0,0],[2,0],[0]]","2","[[0,0,0],[1,2],[3]]","4","0","","","","","","7","","","","",""
"","","","","","single-stim-button","189","946523","0.0-3.0-22.1-1.1","63f919b924be75908b13bc1b","D2","batch4","tol_toboard","2024","","","","","","","","","tol_peg_1","2024","2024","0","[[1,3,0],[2,0],[0]]","2","[[0,0,0],[1,2],[3]]","4","0","","","","","","7","","","","",""
"","","","","","single-stim-button","190","946972","0.0-3.0-22.2-0.2","63f919b924be75908b13bc1b","D2","batch4","tol_tohand","447","","","","","","","","","tol_peg_2","447","447","0","[[1,3,0],[0,0],[0]]","3","[[0,0,0],[1,2],[3]]","4","0","","","","","","7","","","","",""
"","","","","","single-stim-button","191","947692","0.0-3.0-22.2-1.2","63f919b924be75908b13bc1b","D2","batch4","tol_toboard","720","","","","","","","","","tol_peg_3","720","720","0","[[1,3,0],[0,0],[2]]","3","[[0,0,0],[1,2],[3]]","4","0","","","","","","7","","","","",""
"","","","","","single-stim-button","192","949787","0.0-3.0-22.3-0.3","63f919b924be75908b13bc1b","D2","batch4","tol_tohand","2094","","","","","","","","","tol_peg_1","2094","2094","0","[[1,0,0],[0,0],[2]]","4","[[0,0,0],[1,2],[3]]","4","0","","","","","","7","","","","",""
"","","","","","single-stim-button","193","952211","0.0-3.0-22.3-1.3","63f919b924be75908b13bc1b","D2","batch4","tol_toboard","2424","","","","","","","","","tol_peg_2","2424","2424","0","[[1,0,0],[3,0],[2]]","4","[[0,0,0],[1,2],[3]]","4","0","","","","","","7","","","","",""
"","","","","","single-stim-button","194","957811","0.0-3.0-22.4-0.4","63f919b924be75908b13bc1b","D2","batch4","tol_tohand","5600","","","","","","","","","tol_peg_1","5600","5600","0","[[0,0,0],[3,0],[2]]","5","[[0,0,0],[1,2],[3]]","4","0","","","","","","7","","","","",""
"","","","","","single-stim-button","195","958539","0.0-3.0-22.4-1.4","63f919b924be75908b13bc1b","D2","batch4","tol_toboard","727","","","","","","","","","tol_peg_2","727","727","0","[[0,0,0],[3,1],[2]]","5","[[0,0,0],[1,2],[3]]","4","0","","","","","","7","","","","",""
"","","","","","single-stim-button","196","959091","0.0-3.0-22.5-0.5","63f919b924be75908b13bc1b","D2","batch4","tol_tohand","551","","","","","","","","","tol_peg_3","551","551","0","[[0,0,0],[3,1],[0]]","6","[[0,0,0],[1,2],[3]]","4","0","","","","","","7","","","","",""
"","","","","","single-stim-button","197","959963","0.0-3.0-22.5-1.5","63f919b924be75908b13bc1b","D2","batch4","tol_toboard","871","","","","","","","","","tol_peg_1","871","871","0","[[2,0,0],[3,1],[0]]","6","[[0,0,0],[1,2],[3]]","4","0","","","","","","7","","","","",""
"","","","","","single-stim-button","198","960587","0.0-3.0-22.6-0.6","63f919b924be75908b13bc1b","D2","batch4","tol_tohand","623","","","","","","","","","tol_peg_2","623","623","0","[[2,0,0],[3,0],[0]]","7","[[0,0,0],[1,2],[3]]","4","0","","","","","","7","","","","",""
"","","","","","single-stim-button","199","961099","0.0-3.0-22.6-1.6","63f919b924be75908b13bc1b","D2","batch4","tol_toboard","512","","","","","","","","","tol_peg_1","512","512","0","[[2,1,0],[3,0],[0]]","7","[[0,0,0],[1,2],[3]]","4","0","","","","","","7","","","","",""
"","","","","","single-stim-button","200","961971","0.0-3.0-22.7-0.7","63f919b924be75908b13bc1b","D2","batch4","tol_tohand","871","","","","","","","","","tol_peg_2","871","871","0","[[2,1,0],[0,0],[0]]","8","[[0,0,0],[1,2],[3]]","4","0","","","","","","7","","","","",""
"","","","","","single-stim-button","201","962531","0.0-3.0-22.7-1.7","63f919b924be75908b13bc1b","D2","batch4","tol_toboard","560","","","","","","","","","tol_peg_3","560","560","0","[[2,1,0],[0,0],[3]]","8","[[0,0,0],[1,2],[3]]","4","0","","","","","","7","","","","",""
"","","","","","single-stim-button","202","965619","0.0-3.0-22.8-0.8","63f919b924be75908b13bc1b","D2","batch4","tol_tohand","3088","","","","","","","","","tol_peg_1","3088","3088","0","[[2,0,0],[0,0],[3]]","9","[[0,0,0],[1,2],[3]]","4","0","","","","","","7","","","","",""
"","","","","","single-stim-button","203","966251","0.0-3.0-22.8-1.8","63f919b924be75908b13bc1b","D2","batch4","tol_toboard","631","","","","","","","","","tol_peg_2","631","631","0","[[2,0,0],[1,0],[3]]","9","[[0,0,0],[1,2],[3]]","4","0","","","","","","7","","","","",""
"","","","","","single-stim-button","204","966739","0.0-3.0-22.9-0.9","63f919b924be75908b13bc1b","D2","batch4","tol_tohand","488","","","","","","","","","tol_peg_1","488","488","0","[[0,0,0],[1,0],[3]]","10","[[0,0,0],[1,2],[3]]","4","0","","","","","","7","","","","",""
"","","","","","single-stim-button","205","967147","0.0-3.0-22.9-1.9","63f919b924be75908b13bc1b","D2","batch4","tol_toboard","408","","","","","","","","","tol_peg_2","408","408","0","[[0,0,0],[1,2],[3]]","10","[[0,0,0],[1,2],[3]]","4","0","","","","","","7","","","","",""
"","","","","","poldrack-single-stim","206","968159","0.0-3.0-23.0","63f919b924be75908b13bc1b","D2","batch4","tol_feedback","-1","","","","","true","","","","","1000","1000","500","","","","","","-1","none","true","9416","24258","","","","","",""
"","","","","","html-button-response","207","969227","0.0-3.0-24.0","63f919b924be75908b13bc1b","D2","batch4","tol_trial_num","1067.2999999998137","<div class = centerbox><p class = center-block-text>problem <strong>6</strong> out of 25 problems</p></div>","0","","","","","","","","","","","","","","","","","","","","","","","","","",""
"","","","","","single-stim-button","208","978147","0.0-3.0-25.0-0.0","63f919b924be75908b13bc1b","D2","batch4","tol_tohand","8919","","","","","","","","","tol_peg_2","8919","8919","0","[[0,0,0],[1,0],[3]]","1","[[1,0,0],[2,3],[0]]","5","0","","","","","","6","","","","",""
"","","","","","single-stim-button","209","978691","0.0-3.0-25.0-1.0","63f919b924be75908b13bc1b","D2","batch4","tol_toboard","543","","","","","","","","","tol_peg_1","543","543","0","[[2,0,0],[1,0],[3]]","1","[[1,0,0],[2,3],[0]]","5","0","","","","","","6","","","","",""
"","","","","","single-stim-button","210","981899","0.0-3.0-25.1-0.1","63f919b924be75908b13bc1b","D2","batch4","tol_tohand","3208","","","","","","","","","tol_peg_2","3208","3208","0","[[2,0,0],[0,0],[3]]","2","[[1,0,0],[2,3],[0]]","5","0","","","","","","6","","","","",""
"","","","","","single-stim-button","211","982555","0.0-3.0-25.1-1.1","63f919b924be75908b13bc1b","D2","batch4","tol_toboard","656","","","","","","","","","tol_peg_1","656","656","0","[[2,1,0],[0,0],[3]]","2","[[1,0,0],[2,3],[0]]","5","0","","","","","","6","","","","",""
"","","","","","single-stim-button","212","983227","0.0-3.0-25.2-0.2","63f919b924be75908b13bc1b","D2","batch4","tol_tohand","671","","","","","","","","","tol_peg_3","671","671","0","[[2,1,0],[0,0],[0]]","3","[[1,0,0],[2,3],[0]]","5","0","","","","","","6","","","","",""
"","","","","","single-stim-button","213","983779","0.0-3.0-25.2-1.2","63f919b924be75908b13bc1b","D2","batch4","tol_toboard","551","","","","","","","","","tol_peg_2","551","551","0","[[2,1,0],[3,0],[0]]","3","[[1,0,0],[2,3],[0]]","5","0","","","","","","6","","","","",""
"","","","","","single-stim-button","214","984843","0.0-3.0-25.3-0.3","63f919b924be75908b13bc1b","D2","batch4","tol_tohand","1064","","","","","","","","","tol_peg_1","1064","1064","0","[[2,0,0],[3,0],[0]]","4","[[1,0,0],[2,3],[0]]","5","0","","","","","","6","","","","",""
"","","","","","single-stim-button","215","985459","0.0-3.0-25.3-1.3","63f919b924be75908b13bc1b","D2","batch4","tol_toboard","615","","","","","","","","","tol_peg_3","615","615","0","[[2,0,0],[3,0],[1]]","4","[[1,0,0],[2,3],[0]]","5","0","","","","","","6","","","","",""
"","","","","","single-stim-button","216","986211","0.0-3.0-25.4-0.4","63f919b924be75908b13bc1b","D2","batch4","tol_tohand","752","","","","","","","","","tol_peg_1","752","752","0","[[0,0,0],[3,0],[1]]","5","[[1,0,0],[2,3],[0]]","5","0","","","","","","6","","","","",""
"","","","","","single-stim-button","217","986707","0.0-3.0-25.4-1.4","63f919b924be75908b13bc1b","D2","batch4","tol_toboard","495","","","","","","","","","tol_peg_2","495","495","0","[[0,0,0],[3,2],[1]]","5","[[1,0,0],[2,3],[0]]","5","0","","","","","","6","","","","",""
"","","","","","single-stim-button","218","987227","0.0-3.0-25.5-0.5","63f919b924be75908b13bc1b","D2","batch4","tol_tohand","519","","","","","","","","","tol_peg_3","519","519","0","[[0,0,0],[3,2],[0]]","6","[[1,0,0],[2,3],[0]]","5","0","","","","","","6","","","","",""
"","","","","","single-stim-button","219","988011","0.0-3.0-25.5-1.5","63f919b924be75908b13bc1b","D2","batch4","tol_toboard","783","","","","","","","","","tol_peg_1","783","783","0","[[1,0,0],[3,2],[0]]","6","[[1,0,0],[2,3],[0]]","5","0","","","","","","6","","","","",""
"","","","","","single-stim-button","220","990131","0.0-3.0-25.6-0.6","63f919b924be75908b13bc1b","D2","batch4","tol_tohand","2120","","","","","","","","","tol_peg_2","2120","2120","0","[[1,0,0],[3,0],[0]]","7","[[1,0,0],[2,3],[0]]","5","0","","","","","","6","","","","",""
"","","","","","single-stim-button","221","993027","0.0-3.0-25.6-1.6","63f919b924be75908b13bc1b","D2","batch4","tol_toboard","2896","","","","","","","","","tol_peg_1","2896","2896","0","[[1,2,0],[3,0],[0]]","7","[[1,0,0],[2,3],[0]]","5","0","","","","","","6","","","","",""
"","","","","","single-stim-button","222","993515","0.0-3.0-25.7-0.7","63f919b924be75908b13bc1b","D2","batch4","tol_tohand","487","","","","","","","","","tol_peg_2","487","487","0","[[1,2,0],[0,0],[0]]","8","[[1,0,0],[2,3],[0]]","5","0","","","","","","6","","","","",""
"","","","","","single-stim-button","223","994123","0.0-3.0-25.7-1.7","63f919b924be75908b13bc1b","D2","batch4","tol_toboard","607","","","","","","","","","tol_peg_3","607","607","0","[[1,2,0],[0,0],[3]]","8","[[1,0,0],[2,3],[0]]","5","0","","","","","","6","","","","",""
"","","","","","single-stim-button","224","994612","0.0-3.0-25.8-0.8","63f919b924be75908b13bc1b","D2","batch4","tol_tohand","489","","","","","","","","","tol_peg_1","489","489","0","[[1,0,0],[0,0],[3]]","9","[[1,0,0],[2,3],[0]]","5","0","","","","","","6","","","","",""
"","","","","","single-stim-button","225","995251","0.0-3.0-25.8-1.8","63f919b924be75908b13bc1b","D2","batch4","tol_toboard","639","","","","","","","","","tol_peg_2","639","639","0","[[1,0,0],[2,0],[3]]","9","[[1,0,0],[2,3],[0]]","5","0","","","","","","6","","","","",""
"","","","","","single-stim-button","226","995675","0.0-3.0-25.9-0.9","63f919b924be75908b13bc1b","D2","batch4","tol_tohand","423","","","","","","","","","tol_peg_3","423","423","0","[[1,0,0],[2,0],[0]]","10","[[1,0,0],[2,3],[0]]","5","0","","","","","","6","","","","",""
"","","","","","single-stim-button","227","996347","0.0-3.0-25.9-1.9","63f919b924be75908b13bc1b","D2","batch4","tol_toboard","671","","","","","","","","","tol_peg_2","671","671","0","[[1,0,0],[2,3],[0]]","10","[[1,0,0],[2,3],[0]]","5","0","","","","","","6","","","","",""
"","","","","","poldrack-single-stim","228","997358","0.0-3.0-26.0","63f919b924be75908b13bc1b","D2","batch4","tol_feedback","-1","","","","","true","","","","","1000","1000","500","","","","","","-1","none","true","8919","18652","","","","","",""
"","","","","","html-button-response","229","998707","0.0-3.0-27.0","63f919b924be75908b13bc1b","D2","batch4","tol_trial_num","1348.7000000001863","<div class = centerbox><p class = center-block-text>problem <strong>7</strong> out of 25 problems</p></div>","0","","","","","","","","","","","","","","","","","","","","","","","","","",""
"","","","","","single-stim-button","230","1002331","0.0-3.0-28.0-0.0","63f919b924be75908b13bc1b","D2","batch4","tol_tohand","3624","","","","","","","","","tol_peg_1","3624","3624","0","[[2,0,0],[0,0],[3]]","1","[[1,2,0],[3,0],[0]]","6","0","","","","","","5","","","","",""
"","","","","","single-stim-button","231","1006859","0.0-3.0-28.0-1.0","63f919b924be75908b13bc1b","D2","batch4","tol_toboard","4527","","","","","","","","","tol_peg_2","4527","4527","0","[[2,0,0],[1,0],[3]]","1","[[1,2,0],[3,0],[0]]","6","0","","","","","","5","","","","",""
"","","","","","single-stim-button","232","1007483","0.0-3.0-28.1-0.1","63f919b924be75908b13bc1b","D2","batch4","tol_tohand","622","","","","","","","","","tol_peg_1","622","622","0","[[0,0,0],[1,0],[3]]","2","[[1,2,0],[3,0],[0]]","6","0","","","","","","5","","","","",""
"","","","","","single-stim-button","233","1008634","0.0-3.0-28.1-1.1","63f919b924be75908b13bc1b","D2","batch4","tol_toboard","1151","","","","","","","","","tol_peg_2","1151","1151","0","[[0,0,0],[1,2],[3]]","2","[[1,2,0],[3,0],[0]]","6","0","","","","","","5","","","","",""
"","","","","","single-stim-button","234","1010794","0.0-3.0-28.2-0.2","63f919b924be75908b13bc1b","D2","batch4","tol_tohand","2159","","","","","","","","","tol_peg_3","2159","2159","0","[[0,0,0],[1,2],[0]]","3","[[1,2,0],[3,0],[0]]","6","0","","","","","","5","","","","",""
"","","","","","single-stim-button","235","1011578","0.0-3.0-28.2-1.2","63f919b924be75908b13bc1b","D2","batch4","tol_toboard","784","","","","","","","","","tol_peg_1","784","784","0","[[3,0,0],[1,2],[0]]","3","[[1,2,0],[3,0],[0]]","6","0","","","","","","5","","","","",""
"","","","","","single-stim-button","236","1012658","0.0-3.0-28.3-0.3","63f919b924be75908b13bc1b","D2","batch4","tol_tohand","1080","","","","","","","","","tol_peg_2","1080","1080","0","[[3,0,0],[1,0],[0]]","4","[[1,2,0],[3,0],[0]]","6","0","","","","","","5","","","","",""
"","","","","","single-stim-button","237","1013170","0.0-3.0-28.3-1.3","63f919b924be75908b13bc1b","D2","batch4","tol_toboard","512","","","","","","","","","tol_peg_3","512","512","0","[[3,0,0],[1,0],[2]]","4","[[1,2,0],[3,0],[0]]","6","0","","","","","","5","","","","",""
"","","","","","single-stim-button","238","1016818","0.0-3.0-28.4-0.4","63f919b924be75908b13bc1b","D2","batch4","tol_tohand","3648","","","","","","","","","tol_peg_1","3648","3648","0","[[0,0,0],[1,0],[2]]","5","[[1,2,0],[3,0],[0]]","6","0","","","","","","5","","","","",""
"","","","","","single-stim-button","239","1017282","0.0-3.0-28.4-1.4","63f919b924be75908b13bc1b","D2","batch4","tol_toboard","463","","","","","","","","","tol_peg_2","463","463","0","[[0,0,0],[1,3],[2]]","5","[[1,2,0],[3,0],[0]]","6","0","","","","","","5","","","","",""
"","","","","","single-stim-button","240","1020186","0.0-3.0-28.5-0.5","63f919b924be75908b13bc1b","D2","batch4","tol_tohand","2903","","","","","","","","","tol_peg_3","2903","2903","0","[[0,0,0],[1,3],[0]]","6","[[1,2,0],[3,0],[0]]","6","0","","","","","","5","","","","",""
"","","","","","single-stim-button","241","1020906","0.0-3.0-28.5-1.5","63f919b924be75908b13bc1b","D2","batch4","tol_toboard","720","","","","","","","","","tol_peg_1","720","720","0","[[2,0,0],[1,3],[0]]","6","[[1,2,0],[3,0],[0]]","6","0","","","","","","5","","","","",""
"","","","","","single-stim-button","242","1021674","0.0-3.0-28.6-0.6","63f919b924be75908b13bc1b","D2","batch4","tol_tohand","768","","","","","","","","","tol_peg_2","768","768","0","[[2,0,0],[1,0],[0]]","7","[[1,2,0],[3,0],[0]]","6","0","","","","","","5","","","","",""
"","","","","","single-stim-button","243","1022530","0.0-3.0-28.6-1.6","63f919b924be75908b13bc1b","D2","batch4","tol_toboard","856","","","","","","","","","tol_peg_3","856","856","0","[[2,0,0],[1,0],[3]]","7","[[1,2,0],[3,0],[0]]","6","0","","","","","","5","","","","",""
"","","","","","single-stim-button","244","1024570","0.0-3.0-28.7-0.7","63f919b924be75908b13bc1b","D2","batch4","tol_tohand","2039","","","","","","","","","tol_peg_1","2039","2039","0","[[0,0,0],[1,0],[3]]","8","[[1,2,0],[3,0],[0]]","6","0","","","","","","5","","","","",""
"","","","","","single-stim-button","245","1025122","0.0-3.0-28.7-1.7","63f919b924be75908b13bc1b","D2","batch4","tol_toboard","552","","","","","","","","","tol_peg_2","552","552","0","[[0,0,0],[1,2],[3]]","8","[[1,2,0],[3,0],[0]]","6","0","","","","","","5","","","","",""
"","","","","","single-stim-button","246","1029626","0.0-3.0-28.8-0.8","63f919b924be75908b13bc1b","D2","batch4","tol_tohand","4504","","","","","","","","","tol_peg_2","4504","4504","0","[[0,0,0],[1,0],[3]]","9","[[1,2,0],[3,0],[0]]","6","0","","","","","","5","","","","",""
"","","","","","single-stim-button","247","1031035","0.0-3.0-28.8-1.8","63f919b924be75908b13bc1b","D2","batch4","tol_toboard","1408","","","","","","","","","tol_peg_1","1408","1408","0","[[2,0,0],[1,0],[3]]","9","[[1,2,0],[3,0],[0]]","6","0","","","","","","5","","","","",""
"","","","","","single-stim-button","248","1031746","0.0-3.0-28.9-0.9","63f919b924be75908b13bc1b","D2","batch4","tol_tohand","711","","","","","","","","","tol_peg_2","711","711","0","[[2,0,0],[0,0],[3]]","10","[[1,2,0],[3,0],[0]]","6","0","","","","","","5","","","","",""
"","","","","","single-stim-button","249","1032274","0.0-3.0-28.9-1.9","63f919b924be75908b13bc1b","D2","batch4","tol_toboard","528","","","","","","","","","tol_peg_1","528","528","0","[[2,1,0],[0,0],[3]]","10","[[1,2,0],[3,0],[0]]","6","0","","","","","","5","","","","",""
"","","","","","single-stim-button","250","1033562","0.0-3.0-28.10-0.10","63f919b924be75908b13bc1b","D2","batch4","tol_tohand","1288","","","","","","","","","tol_peg_3","1288","1288","0","[[2,1,0],[0,0],[0]]","11","[[1,2,0],[3,0],[0]]","6","0","","","","","","5","","","","",""
"","","","","","single-stim-button","251","1034058","0.0-3.0-28.10-1.10","63f919b924be75908b13bc1b","D2","batch4","tol_toboard","496","","","","","","","","","tol_peg_2","496","496","0","[[2,1,0],[3,0],[0]]","11","[[1,2,0],[3,0],[0]]","6","0","","","","","","5","","","","",""
"","","","","","single-stim-button","252","1034890","0.0-3.0-28.11-0.11","63f919b924be75908b13bc1b","D2","batch4","tol_tohand","832","","","","","","","","","tol_peg_1","832","832","0","[[2,0,0],[3,0],[0]]","12","[[1,2,0],[3,0],[0]]","6","0","","","","","","5","","","","",""
"","","","","","single-stim-button","253","1035898","0.0-3.0-28.11-1.11","63f919b924be75908b13bc1b","D2","batch4","tol_toboard","1008","","","","","","","","","tol_peg_3","1008","1008","0","[[2,0,0],[3,0],[1]]","12","[[1,2,0],[3,0],[0]]","6","0","","","","","","5","","","","",""
"","","","","","single-stim-button","254","1036523","0.0-3.0-28.12-0.12","63f919b924be75908b13bc1b","D2","batch4","tol_tohand","623","","","","","","","","","tol_peg_1","623","623","0","[[0,0,0],[3,0],[1]]","13","[[1,2,0],[3,0],[0]]","6","0","","","","","","5","","","","",""
"","","","","","single-stim-button","255","1036954","0.0-3.0-28.12-1.12","63f919b924be75908b13bc1b","D2","batch4","tol_toboard","431","","","","","","","","","tol_peg_2","431","431","0","[[0,0,0],[3,2],[1]]","13","[[1,2,0],[3,0],[0]]","6","0","","","","","","5","","","","",""
"","","","","","single-stim-button","256","1038610","0.0-3.0-28.13-0.13","63f919b924be75908b13bc1b","D2","batch4","tol_tohand","1656","","","","","","","","","tol_peg_3","1656","1656","0","[[0,0,0],[3,2],[0]]","14","[[1,2,0],[3,0],[0]]","6","0","","","","","","5","","","","",""
"","","","","","single-stim-button","257","1039314","0.0-3.0-28.13-1.13","63f919b924be75908b13bc1b","D2","batch4","tol_toboard","704","","","","","","","","","tol_peg_1","704","704","0","[[1,0,0],[3,2],[0]]","14","[[1,2,0],[3,0],[0]]","6","0","","","","","","5","","","","",""
"","","","","","single-stim-button","258","1039826","0.0-3.0-28.14-0.14","63f919b924be75908b13bc1b","D2","batch4","tol_tohand","511","","","","","","","","","tol_peg_2","511","511","0","[[1,0,0],[3,0],[0]]","15","[[1,2,0],[3,0],[0]]","6","0","","","","","","5","","","","",""
"","","","","","single-stim-button","259","1040290","0.0-3.0-28.14-1.14","63f919b924be75908b13bc1b","D2","batch4","tol_toboard","464","","","","","","","","","tol_peg_1","464","464","0","[[1,2,0],[3,0],[0]]","15","[[1,2,0],[3,0],[0]]","6","0","","","","","","5","","","","",""
"","","","","","poldrack-single-stim","260","1041297","0.0-3.0-29.0","63f919b924be75908b13bc1b","D2","batch4","tol_feedback","-1","","","","","true","","","","","1000","1000","500","","","","","","-1","none","true","3624","26968","","","","","",""
"","","","","","html-button-response","261","1042314","0.0-3.0-30.0","63f919b924be75908b13bc1b","D2","batch4","tol_trial_num","1016.7000000001863","<div class = centerbox><p class = center-block-text>problem <strong>8</strong> out of 25 problems</p></div>","0","","","","","","","","","","","","","","","","","","","","","","","","","",""
"","","","","","single-stim-button","262","1045570","0.0-3.0-31.0-0.0","63f919b924be75908b13bc1b","D2","batch4","tol_tohand","3255","","","","","","","","","tol_peg_3","3255","3255","0","[[0,0,0],[2,3],[0]]","1","[[1,2,0],[3,0],[0]]","7","0","","","","","","4","","","","",""
"","","","","","single-stim-button","263","1046282","0.0-3.0-31.0-1.0","63f919b924be75908b13bc1b","D2","batch4","tol_toboard","711","","","","","","","","","tol_peg_1","711","711","0","[[1,0,0],[2,3],[0]]","1","[[1,2,0],[3,0],[0]]","7","0","","","","","","4","","","","",""
"","","","","","single-stim-button","264","1046835","0.0-3.0-31.1-0.1","63f919b924be75908b13bc1b","D2","batch4","tol_tohand","551","","","","","","","","","tol_peg_2","551","551","0","[[1,0,0],[2,0],[0]]","2","[[1,2,0],[3,0],[0]]","7","0","","","","","","4","","","","",""
"","","","","","single-stim-button","265","1047354","0.0-3.0-31.1-1.1","63f919b924be75908b13bc1b","D2","batch4","tol_toboard","519","","","","","","","","","tol_peg_3","519","519","0","[[1,0,0],[2,0],[3]]","2","[[1,2,0],[3,0],[0]]","7","0","","","","","","4","","","","",""
"","","","","","single-stim-button","266","1047866","0.0-3.0-31.2-0.2","63f919b924be75908b13bc1b","D2","batch4","tol_tohand","512","","","","","","","","","tol_peg_2","512","512","0","[[1,0,0],[0,0],[3]]","3","[[1,2,0],[3,0],[0]]","7","0","","","","","","4","","","","",""
"","","","","","single-stim-button","267","1048274","0.0-3.0-31.2-1.2","63f919b924be75908b13bc1b","D2","batch4","tol_toboard","408","","","","","","","","","tol_peg_1","408","408","0","[[1,2,0],[0,0],[3]]","3","[[1,2,0],[3,0],[0]]","7","0","","","","","","4","","","","",""
"","","","","","single-stim-button","268","1048944","0.0-3.0-31.3-0.3","63f919b924be75908b13bc1b","D2","batch4","tol_tohand","669","","","","","","","","","tol_peg_3","669","669","0","[[1,2,0],[0,0],[0]]","4","[[1,2,0],[3,0],[0]]","7","0","","","","","","4","","","","",""
"","","","","","single-stim-button","269","1049242","0.0-3.0-31.3-1.3","63f919b924be75908b13bc1b","D2","batch4","tol_toboard","298","","","","","","","","","tol_peg_2","298","298","0","[[1,2,0],[3,0],[0]]","4","[[1,2,0],[3,0],[0]]","7","0","","","","","","4","","","","",""
"","","","","","poldrack-single-stim","270","1050244","0.0-3.0-32.0","63f919b924be75908b13bc1b","D2","batch4","tol_feedback","-1","","","","","true","","","","","1000","1000","500","","","","","","-1","none","true","3255","4987","","","","","",""
"","","","","","html-button-response","271","1059858","0.0-3.0-33.0","63f919b924be75908b13bc1b","D2","batch4","tol_trial_num","9613.200000000186","<div class = centerbox><p class = center-block-text>problem <strong>9</strong> out of 25 problems</p></div>","0","","","","","","","","","","","","","","","","","","","","","","","","","",""
"","","","","","single-stim-button","272","1066554","0.0-3.0-34.0-0.0","63f919b924be75908b13bc1b","D2","batch4","tol_tohand","6696","","","","","","","","","tol_peg_3","6696","6696","0","[[3,2,0],[0,0],[0]]","1","[[2,1,0],[3,0],[0]]","8","0","","","","","","6","","","","",""
"","","","","","single-stim-button","273","1067226","0.0-3.0-34.0-1.0","63f919b924be75908b13bc1b","D2","batch4","tol_toboard","672","","","","","","","","","tol_peg_2","672","672","0","[[3,2,0],[1,0],[0]]","1","[[2,1,0],[3,0],[0]]","8","0","","","","","","6","","","","",""
"","","","","","single-stim-button","274","1067778","0.0-3.0-34.1-0.1","63f919b924be75908b13bc1b","D2","batch4","tol_tohand","551","","","","","","","","","tol_peg_1","551","551","0","[[3,0,0],[1,0],[0]]","2","[[2,1,0],[3,0],[0]]","8","0","","","","","","6","","","","",""
"","","","","","single-stim-button","275","1068442","0.0-3.0-34.1-1.1","63f919b924be75908b13bc1b","D2","batch4","tol_toboard","663","","","","","","","","","tol_peg_2","663","663","0","[[3,0,0],[1,2],[0]]","2","[[2,1,0],[3,0],[0]]","8","0","","","","","","6","","","","",""
"","","","","","single-stim-button","276","1068929","0.0-3.0-34.2-0.2","63f919b924be75908b13bc1b","D2","batch4","tol_tohand","487","","","","","","","","","tol_peg_1","487","487","0","[[0,0,0],[1,2],[0]]","3","[[2,1,0],[3,0],[0]]","8","0","","","","","","6","","","","",""
"","","","","","single-stim-button","277","1069601","0.0-3.0-34.2-1.2","63f919b924be75908b13bc1b","D2","batch4","tol_toboard","672","","","","","","","","","tol_peg_3","672","672","0","[[0,0,0],[1,2],[3]]","3","[[2,1,0],[3,0],[0]]","8","0","","","","","","6","","","","",""
"","","","","","single-stim-button","278","1070050","0.0-3.0-34.3-0.3","63f919b924be75908b13bc1b","D2","batch4","tol_tohand","449","","","","","","","","","tol_peg_2","449","449","0","[[0,0,0],[1,0],[3]]","4","[[2,1,0],[3,0],[0]]","8","0","","","","","","6","","","","",""
"","","","","","single-stim-button","279","1070529","0.0-3.0-34.3-1.3","63f919b924be75908b13bc1b","D2","batch4","tol_toboard","479","","","","","","","","","tol_peg_1","479","479","0","[[2,0,0],[1,0],[3]]","4","[[2,1,0],[3,0],[0]]","8","0","","","","","","6","","","","",""
"","","","","","single-stim-button","280","1071025","0.0-3.0-34.4-0.4","63f919b924be75908b13bc1b","D2","batch4","tol_tohand","496","","","","","","","","","tol_peg_2","496","496","0","[[2,0,0],[0,0],[3]]","5","[[2,1,0],[3,0],[0]]","8","0","","","","","","6","","","","",""
"","","","","","single-stim-button","281","1071593","0.0-3.0-34.4-1.4","63f919b924be75908b13bc1b","D2","batch4","tol_toboard","568","","","","","","","","","tol_peg_1","568","568","0","[[2,1,0],[0,0],[3]]","5","[[2,1,0],[3,0],[0]]","8","0","","","","","","6","","","","",""
"","","","","","single-stim-button","282","1072057","0.0-3.0-34.5-0.5","63f919b924be75908b13bc1b","D2","batch4","tol_tohand","464","","","","","","","","","tol_peg_3","464","464","0","[[2,1,0],[0,0],[0]]","6","[[2,1,0],[3,0],[0]]","8","0","","","","","","6","","","","",""
"","","","","","single-stim-button","283","1072393","0.0-3.0-34.5-1.5","63f919b924be75908b13bc1b","D2","batch4","tol_toboard","336","","","","","","","","","tol_peg_2","336","336","0","[[2,1,0],[3,0],[0]]","6","[[2,1,0],[3,0],[0]]","8","0","","","","","","6","","","","",""
"","","","","","poldrack-single-stim","284","1073404","0.0-3.0-35.0","63f919b924be75908b13bc1b","D2","batch4","tol_feedback","-1","","","","","true","","","","","1000","1000","500","","","","","","-1","none","true","6696","9143","","","","","",""
"","","","","","html-button-response","285","1074497","0.0-3.0-36.0","63f919b924be75908b13bc1b","D2","batch4","tol_trial_num","1092.300000000745","<div class = centerbox><p class = center-block-text>problem <strong>10</strong> out of 25 problems</p></div>","0","","","","","","","","","","","","","","","","","","","","","","","","","",""
"","","","","","single-stim-button","286","1078225","0.0-3.0-37.0-0.0","63f919b924be75908b13bc1b","D2","batch4","tol_tohand","3728","","","","","","","","","tol_peg_2","3728","3728","0","[[3,0,0],[0,0],[2]]","1","[[3,0,0],[2,1],[0]]","9","0","","","","","","3","","","","",""
"","","","","","single-stim-button","287","1078825","0.0-3.0-37.0-1.0","63f919b924be75908b13bc1b","D2","batch4","tol_toboard","600","","","","","","","","","tol_peg_1","600","600","0","[[3,1,0],[0,0],[2]]","1","[[3,0,0],[2,1],[0]]","9","0","","","","","","3","","","","",""
"","","","","","single-stim-button","288","1079338","0.0-3.0-37.1-0.1","63f919b924be75908b13bc1b","D2","batch4","tol_tohand","512","","","","","","","","","tol_peg_3","512","512","0","[[3,1,0],[0,0],[0]]","2","[[3,0,0],[2,1],[0]]","9","0","","","","","","3","","","","",""
"","","","","","single-stim-button","289","1080153","0.0-3.0-37.1-1.1","63f919b924be75908b13bc1b","D2","batch4","tol_toboard","815","","","","","","","","","tol_peg_2","815","815","0","[[3,1,0],[2,0],[0]]","2","[[3,0,0],[2,1],[0]]","9","0","","","","","","3","","","","",""
"","","","","","single-stim-button","290","1080626","0.0-3.0-37.2-0.2","63f919b924be75908b13bc1b","D2","batch4","tol_tohand","472","","","","","","","","","tol_peg_1","472","472","0","[[3,0,0],[2,0],[0]]","3","[[3,0,0],[2,1],[0]]","9","0","","","","","","3","","","","",""
"","","","","","single-stim-button","291","1081050","0.0-3.0-37.2-1.2","63f919b924be75908b13bc1b","D2","batch4","tol_toboard","424","","","","","","","","","tol_peg_2","424","424","0","[[3,0,0],[2,1],[0]]","3","[[3,0,0],[2,1],[0]]","9","0","","","","","","3","","","","",""
"","","","","","poldrack-single-stim","292","1082062","0.0-3.0-38.0","63f919b924be75908b13bc1b","D2","batch4","tol_feedback","-1","","","","","true","","","","","1000","1000","500","","","","","","-1","none","true","3728","4712","","","","","",""
"","","","","","html-button-response","293","1082985","0.0-3.0-39.0","63f919b924be75908b13bc1b","D2","batch4","tol_trial_num","922.7999999998137","<div class = centerbox><p class = center-block-text>problem <strong>11</strong> out of 25 problems</p></div>","0","","","","","","","","","","","","","","","","","","","","","","","","","",""
"","","","","","single-stim-button","294","1087297","0.0-3.0-40.0-0.0","63f919b924be75908b13bc1b","D2","batch4","tol_tohand","4311","","","","","","","","","tol_peg_1","4311","4311","0","[[1,0,0],[3,0],[0]]","1","[[2,0,0],[1,3],[0]]","10","0","","","","","","6","","","","",""
"","","","","","single-stim-button","295","1090873","0.0-3.0-40.0-1.0","63f919b924be75908b13bc1b","D2","batch4","tol_toboard","3575","","","","","","","","","tol_peg_3","3575","3575","0","[[1,0,0],[3,0],[2]]","1","[[2,0,0],[1,3],[0]]","10","0","","","","","","6","","","","",""
"","","","","","single-stim-button","296","1092193","0.0-3.0-40.1-0.1","63f919b924be75908b13bc1b","D2","batch4","tol_tohand","1319","","","","","","","","","tol_peg_1","1319","1319","0","[[0,0,0],[3,0],[2]]","2","[[2,0,0],[1,3],[0]]","10","0","","","","","","6","","","","",""
"","","","","","single-stim-button","297","1092690","0.0-3.0-40.1-1.1","63f919b924be75908b13bc1b","D2","batch4","tol_toboard","497","","","","","","","","","tol_peg_2","497","497","0","[[0,0,0],[3,1],[2]]","2","[[2,0,0],[1,3],[0]]","10","0","","","","","","6","","","","",""
"","","","","","single-stim-button","298","1093379","0.0-3.0-40.2-0.2","63f919b924be75908b13bc1b","D2","batch4","tol_tohand","689","","","","","","","","","tol_peg_3","689","689","0","[[0,0,0],[3,1],[0]]","3","[[2,0,0],[1,3],[0]]","10","0","","","","","","6","","","","",""
"","","","","","single-stim-button","299","1094050","0.0-3.0-40.2-1.2","63f919b924be75908b13bc1b","D2","batch4","tol_toboard","670","","","","","","","","","tol_peg_1","670","670","0","[[2,0,0],[3,1],[0]]","3","[[2,0,0],[1,3],[0]]","10","0","","","","","","6","","","","",""
"","","","","","single-stim-button","300","1095082","0.0-3.0-40.3-0.3","63f919b924be75908b13bc1b","D2","batch4","tol_tohand","1032","","","","","","","","","tol_peg_2","1032","1032","0","[[2,0,0],[3,0],[0]]","4","[[2,0,0],[1,3],[0]]","10","0","","","","","","6","","","","",""
"","","","","","single-stim-button","301","1096394","0.0-3.0-40.3-1.3","63f919b924be75908b13bc1b","D2","batch4","tol_toboard","1311","","","","","","","","","tol_peg_3","1311","1311","0","[[2,0,0],[3,0],[1]]","4","[[2,0,0],[1,3],[0]]","10","0","","","","","","6","","","","",""
"","","","","","single-stim-button","302","1096825","0.0-3.0-40.4-0.4","63f919b924be75908b13bc1b","D2","batch4","tol_tohand","431","","","","","","","","","tol_peg_2","431","431","0","[[2,0,0],[0,0],[1]]","5","[[2,0,0],[1,3],[0]]","10","0","","","","","","6","","","","",""
"","","","","","single-stim-button","303","1097209","0.0-3.0-40.4-1.4","63f919b924be75908b13bc1b","D2","batch4","tol_toboard","383","","","","","","","","","tol_peg_1","383","383","0","[[2,3,0],[0,0],[1]]","5","[[2,0,0],[1,3],[0]]","10","0","","","","","","6","","","","",""
"","","","","","single-stim-button","304","1097713","0.0-3.0-40.5-0.5","63f919b924be75908b13bc1b","D2","batch4","tol_tohand","504","","","","","","","","","tol_peg_3","504","504","0","[[2,3,0],[0,0],[0]]","6","[[2,0,0],[1,3],[0]]","10","0","","","","","","6","","","","",""
"","","","","","single-stim-button","305","1098202","0.0-3.0-40.5-1.5","63f919b924be75908b13bc1b","D2","batch4","tol_toboard","487","","","","","","","","","tol_peg_2","487","487","0","[[2,3,0],[1,0],[0]]","6","[[2,0,0],[1,3],[0]]","10","0","","","","","","6","","","","",""
"","","","","","single-stim-button","306","1098561","0.0-3.0-40.6-0.6","63f919b924be75908b13bc1b","D2","batch4","tol_tohand","359","","","","","","","","","tol_peg_1","359","359","0","[[2,0,0],[1,0],[0]]","7","[[2,0,0],[1,3],[0]]","10","0","","","","","","6","","","","",""
"","","","","","single-stim-button","307","1098953","0.0-3.0-40.6-1.6","63f919b924be75908b13bc1b","D2","batch4","tol_toboard","391","","","","","","","","","tol_peg_2","391","391","0","[[2,0,0],[1,3],[0]]","7","[[2,0,0],[1,3],[0]]","10","0","","","","","","6","","","","",""
"","","","","","poldrack-single-stim","308","1099954","0.0-3.0-41.0","63f919b924be75908b13bc1b","D2","batch4","tol_feedback","-1","","","","","true","","","","","1000","1000","500","","","","","","-1","none","true","4311","8645","","","","","",""
"","","","","","html-button-response","309","1100881","0.0-3.0-42.0","63f919b924be75908b13bc1b","D2","batch4","tol_trial_num","927","<div class = centerbox><p class = center-block-text>problem <strong>12</strong> out of 25 problems</p></div>","0","","","","","","","","","","","","","","","","","","","","","","","","","",""
"","","","","","single-stim-button","310","1106618","0.0-3.0-43.0-0.0","63f919b924be75908b13bc1b","D2","batch4","tol_tohand","5735","","","","","","","","","tol_peg_1","5735","5735","0","[[1,0,0],[3,0],[0]]","1","[[2,3,0],[0,0],[1]]","11","0","","","","","","4","","","","",""
"","","","","","single-stim-button","311","1107081","0.0-3.0-43.0-1.0","63f919b924be75908b13bc1b","D2","batch4","tol_toboard","463","","","","","","","","","tol_peg_2","463","463","0","[[1,0,0],[3,2],[0]]","1","[[2,3,0],[0,0],[1]]","11","0","","","","","","4","","","","",""
"","","","","","single-stim-button","312","1107618","0.0-3.0-43.1-0.1","63f919b924be75908b13bc1b","D2","batch4","tol_tohand","536","","","","","","","","","tol_peg_1","536","536","0","[[0,0,0],[3,2],[0]]","2","[[2,3,0],[0,0],[1]]","11","0","","","","","","4","","","","",""
"","","","","","single-stim-button","313","1108129","0.0-3.0-43.1-1.1","63f919b924be75908b13bc1b","D2","batch4","tol_toboard","511","","","","","","","","","tol_peg_3","511","511","0","[[0,0,0],[3,2],[1]]","2","[[2,3,0],[0,0],[1]]","11","0","","","","","","4","","","","",""
"","","","","","single-stim-button","314","1108761","0.0-3.0-43.2-0.2","63f919b924be75908b13bc1b","D2","batch4","tol_tohand","631","","","","","","","","","tol_peg_2","631","631","0","[[0,0,0],[3,0],[1]]","3","[[2,3,0],[0,0],[1]]","11","0","","","","","","4","","","","",""
"","","","","","single-stim-button","315","1109225","0.0-3.0-43.2-1.2","63f919b924be75908b13bc1b","D2","batch4","tol_toboard","464","","","","","","","","","tol_peg_1","464","464","0","[[2,0,0],[3,0],[1]]","3","[[2,3,0],[0,0],[1]]","11","0","","","","","","4","","","","",""
"","","","","","single-stim-button","316","1109706","0.0-3.0-43.3-0.3","63f919b924be75908b13bc1b","D2","batch4","tol_tohand","480","","","","","","","","","tol_peg_2","480","480","0","[[2,0,0],[0,0],[1]]","4","[[2,3,0],[0,0],[1]]","11","0","","","","","","4","","","","",""
"","","","","","single-stim-button","317","1110049","0.0-3.0-43.3-1.3","63f919b924be75908b13bc1b","D2","batch4","tol_toboard","343","","","","","","","","","tol_peg_1","343","343","0","[[2,3,0],[0,0],[1]]","4","[[2,3,0],[0,0],[1]]","11","0","","","","","","4","","","","",""
"","","","","","poldrack-single-stim","318","1111060","0.0-3.0-44.0","63f919b924be75908b13bc1b","D2","batch4","tol_feedback","-1","","","","","true","","","","","1000","1000","500","","","","","","-1","none","true","5735","7382","","","","","",""
"","","","","","html-button-response","319","1112961","0.0-3.0-45.0","63f919b924be75908b13bc1b","D2","batch4","tol_trial_num","1900.5","<div class = centerbox><p class = center-block-text>problem <strong>13</strong> out of 25 problems</p></div>","0","","","","","","","","","","","","","","","","","","","","","","","","","",""
"","","","","","single-stim-button","320","1116641","0.0-3.0-46.0-0.0","63f919b924be75908b13bc1b","D2","batch4","tol_tohand","3679","","","","","","","","","tol_peg_1","3679","3679","0","[[1,0,0],[3,0],[0]]","1","[[0,0,0],[2,3],[1]]","12","0","","","","","","4","","","","",""
"","","","","","single-stim-button","321","1117354","0.0-3.0-46.0-1.0","63f919b924be75908b13bc1b","D2","batch4","tol_toboard","712","","","","","","","","","tol_peg_2","712","712","0","[[1,0,0],[3,2],[0]]","1","[[0,0,0],[2,3],[1]]","12","0","","","","","","4","","","","",""
"","","","","","single-stim-button","322","1117842","0.0-3.0-46.1-0.1","63f919b924be75908b13bc1b","D2","batch4","tol_tohand","488","","","","","","","","","tol_peg_1","488","488","0","[[0,0,0],[3,2],[0]]","2","[[0,0,0],[2,3],[1]]","12","0","","","","","","4","","","","",""
"","","","","","single-stim-button","323","1118450","0.0-3.0-46.1-1.1","63f919b924be75908b13bc1b","D2","batch4","tol_toboard","608","","","","","","","","","tol_peg_3","608","608","0","[[0,0,0],[3,2],[1]]","2","[[0,0,0],[2,3],[1]]","12","0","","","","","","4","","","","",""
"","","","","","single-stim-button","324","1120154","0.0-3.0-46.2-0.2","63f919b924be75908b13bc1b","D2","batch4","tol_tohand","1702","","","","","","","","","tol_peg_2","1702","1702","0","[[0,0,0],[3,0],[1]]","3","[[0,0,0],[2,3],[1]]","12","0","","","","","","4","","","","",""
"","","","","","single-stim-button","325","1122330","0.0-3.0-46.2-1.2","63f919b924be75908b13bc1b","D2","batch4","tol_toboard","2176","","","","","","","","","tol_peg_1","2176","2176","0","[[2,0,0],[3,0],[1]]","3","[[0,0,0],[2,3],[1]]","12","0","","","","","","4","","","","",""
"","","","","","single-stim-button","326","1123338","0.0-3.0-46.3-0.3","63f919b924be75908b13bc1b","D2","batch4","tol_tohand","1008","","","","","","","","","tol_peg_2","1008","1008","0","[[2,0,0],[0,0],[1]]","4","[[0,0,0],[2,3],[1]]","12","0","","","","","","4","","","","",""
"","","","","","single-stim-button","327","1123905","0.0-3.0-46.3-1.3","63f919b924be75908b13bc1b","D2","batch4","tol_toboard","567","","","","","","","","","tol_peg_1","567","567","0","[[2,3,0],[0,0],[1]]","4","[[0,0,0],[2,3],[1]]","12","0","","","","","","4","","","","",""
"","","","","","single-stim-button","328","1128441","0.0-3.0-46.4-0.4","63f919b924be75908b13bc1b","D2","batch4","tol_tohand","4535","","","","","","","","","tol_peg_3","4535","4535","0","[[2,3,0],[0,0],[0]]","5","[[0,0,0],[2,3],[1]]","12","0","","","","","","4","","","","",""
"","","","","","single-stim-button","329","1129105","0.0-3.0-46.4-1.4","63f919b924be75908b13bc1b","D2","batch4","tol_toboard","663","","","","","","","","","tol_peg_2","663","663","0","[[2,3,0],[1,0],[0]]","5","[[0,0,0],[2,3],[1]]","12","0","","","","","","4","","","","",""
"","","","","","single-stim-button","330","1129905","0.0-3.0-46.5-0.5","63f919b924be75908b13bc1b","D2","batch4","tol_tohand","800","","","","","","","","","tol_peg_1","800","800","0","[[2,0,0],[1,0],[0]]","6","[[0,0,0],[2,3],[1]]","12","0","","","","","","4","","","","",""
"","","","","","single-stim-button","331","1131841","0.0-3.0-46.5-1.5","63f919b924be75908b13bc1b","D2","batch4","tol_toboard","1936","","","","","","","","","tol_peg_2","1936","1936","0","[[2,0,0],[1,3],[0]]","6","[[0,0,0],[2,3],[1]]","12","0","","","","","","4","","","","",""
"","","","","","single-stim-button","332","1132353","0.0-3.0-46.6-0.6","63f919b924be75908b13bc1b","D2","batch4","tol_tohand","512","","","","","","","","","tol_peg_1","512","512","0","[[0,0,0],[1,3],[0]]","7","[[0,0,0],[2,3],[1]]","12","0","","","","","","4","","","","",""
"","","","","","single-stim-button","333","1133289","0.0-3.0-46.6-1.6","63f919b924be75908b13bc1b","D2","batch4","tol_toboard","936","","","","","","","","","tol_peg_3","936","936","0","[[0,0,0],[1,3],[2]]","7","[[0,0,0],[2,3],[1]]","12","0","","","","","","4","","","","",""
"","","","","","single-stim-button","334","1133809","0.0-3.0-46.7-0.7","63f919b924be75908b13bc1b","D2","batch4","tol_tohand","520","","","","","","","","","tol_peg_2","520","520","0","[[0,0,0],[1,0],[2]]","8","[[0,0,0],[2,3],[1]]","12","0","","","","","","4","","","","",""
"","","","","","single-stim-button","335","1134617","0.0-3.0-46.7-1.7","63f919b924be75908b13bc1b","D2","batch4","tol_toboard","807","","","","","","","","","tol_peg_1","807","807","0","[[3,0,0],[1,0],[2]]","8","[[0,0,0],[2,3],[1]]","12","0","","","","","","4","","","","",""
"","","","","","single-stim-button","336","1135987","0.0-3.0-46.8-0.8","63f919b924be75908b13bc1b","D2","batch4","tol_tohand","1370","","","","","","","","","tol_peg_2","1370","1370","0","[[3,0,0],[0,0],[2]]","9","[[0,0,0],[2,3],[1]]","12","0","","","","","","4","","","","",""
"","","","","","single-stim-button","337","1136609","0.0-3.0-46.8-1.8","63f919b924be75908b13bc1b","D2","batch4","tol_toboard","621","","","","","","","","","tol_peg_1","621","621","0","[[3,1,0],[0,0],[2]]","9","[[0,0,0],[2,3],[1]]","12","0","","","","","","4","","","","",""
"","","","","","single-stim-button","338","1137569","0.0-3.0-46.9-0.9","63f919b924be75908b13bc1b","D2","batch4","tol_tohand","960","","","","","","","","","tol_peg_3","960","960","0","[[3,1,0],[0,0],[0]]","10","[[0,0,0],[2,3],[1]]","12","0","","","","","","4","","","","",""
"","","","","","single-stim-button","339","1138201","0.0-3.0-46.9-1.9","63f919b924be75908b13bc1b","D2","batch4","tol_toboard","631","","","","","","","","","tol_peg_2","631","631","0","[[3,1,0],[2,0],[0]]","10","[[0,0,0],[2,3],[1]]","12","0","","","","","","4","","","","",""
"","","","","","single-stim-button","340","1139305","0.0-3.0-46.10-0.10","63f919b924be75908b13bc1b","D2","batch4","tol_tohand","1103","","","","","","","","","tol_peg_1","1103","1103","0","[[3,0,0],[2,0],[0]]","11","[[0,0,0],[2,3],[1]]","12","0","","","","","","4","","","","",""
"","","","","","single-stim-button","341","1140041","0.0-3.0-46.10-1.10","63f919b924be75908b13bc1b","D2","batch4","tol_toboard","736","","","","","","","","","tol_peg_3","736","736","0","[[3,0,0],[2,0],[1]]","11","[[0,0,0],[2,3],[1]]","12","0","","","","","","4","","","","",""
"","","","","","single-stim-button","342","1140665","0.0-3.0-46.11-0.11","63f919b924be75908b13bc1b","D2","batch4","tol_tohand","624","","","","","","","","","tol_peg_1","624","624","0","[[0,0,0],[2,0],[1]]","12","[[0,0,0],[2,3],[1]]","12","0","","","","","","4","","","","",""
"","","","","","single-stim-button","343","1141241","0.0-3.0-46.11-1.11","63f919b924be75908b13bc1b","D2","batch4","tol_toboard","576","","","","","","","","","tol_peg_2","576","576","0","[[0,0,0],[2,3],[1]]","12","[[0,0,0],[2,3],[1]]","12","0","","","","","","4","","","","",""
"","","","","","poldrack-single-stim","344","1142248","0.0-3.0-47.0","63f919b924be75908b13bc1b","D2","batch4","tol_feedback","-1","","","","","true","","","","","1000","1000","500","","","","","","-1","none","true","3679","17301","","","","","",""
"","","","","","html-button-response","345","1151185","0.0-3.0-48.0","63f919b924be75908b13bc1b","D2","batch4","attention_check","8935.799999999814","<p class = block-text>How many balls are in your board<br></p>","1","","","true","","","","","","","","","","","","","","","","","","","","","","",""
"","","","","","html-button-response","346","1152409","0.0-3.0-49.0","63f919b924be75908b13bc1b","D2","batch4","tol_trial_num","1223.2000000001863","<div class = centerbox><p class = center-block-text>problem <strong>14</strong> out of 25 problems</p></div>","0","","","","","","","","","","","","","","","","","","","","","","","","","",""
"","","","","","single-stim-button","347","1156641","0.0-3.0-50.0-0.0","63f919b924be75908b13bc1b","D2","batch4","tol_tohand","4232","","","","","","","","","tol_peg_1","4232","4232","0","[[2,0,0],[3,0],[0]]","1","[[1,2,0],[3,0],[0]]","13","0","","","","","","4","","","","",""
"","","","","","single-stim-button","348","1157409","0.0-3.0-50.0-1.0","63f919b924be75908b13bc1b","D2","batch4","tol_toboard","768","","","","","","","","","tol_peg_3","768","768","0","[[2,0,0],[3,0],[1]]","1","[[1,2,0],[3,0],[0]]","13","0","","","","","","4","","","","",""
"","","","","","single-stim-button","349","1158073","0.0-3.0-50.1-0.1","63f919b924be75908b13bc1b","D2","batch4","tol_tohand","664","","","","","","","","","tol_peg_1","664","664","0","[[0,0,0],[3,0],[1]]","2","[[1,2,0],[3,0],[0]]","13","0","","","","","","4","","","","",""
"","","","","","single-stim-button","350","1158841","0.0-3.0-50.1-1.1","63f919b924be75908b13bc1b","D2","batch4","tol_toboard","768","","","","","","","","","tol_peg_2","768","768","0","[[0,0,0],[3,2],[1]]","2","[[1,2,0],[3,0],[0]]","13","0","","","","","","4","","","","",""
"","","","","","single-stim-button","351","1159409","0.0-3.0-50.2-0.2","63f919b924be75908b13bc1b","D2","batch4","tol_tohand","568","","","","","","","","","tol_peg_3","568","568","0","[[0,0,0],[3,2],[0]]","3","[[1,2,0],[3,0],[0]]","13","0","","","","","","4","","","","",""
"","","","","","single-stim-button","352","1160073","0.0-3.0-50.2-1.2","63f919b924be75908b13bc1b","D2","batch4","tol_toboard","664","","","","","","","","","tol_peg_1","664","664","0","[[1,0,0],[3,2],[0]]","3","[[1,2,0],[3,0],[0]]","13","0","","","","","","4","","","","",""
"","","","","","single-stim-button","353","1160449","0.0-3.0-50.3-0.3","63f919b924be75908b13bc1b","D2","batch4","tol_tohand","376","","","","","","","","","tol_peg_2","376","376","0","[[1,0,0],[3,0],[0]]","4","[[1,2,0],[3,0],[0]]","13","0","","","","","","4","","","","",""
"","","","","","single-stim-button","354","1160825","0.0-3.0-50.3-1.3","63f919b924be75908b13bc1b","D2","batch4","tol_toboard","376","","","","","","","","","tol_peg_1","376","376","0","[[1,2,0],[3,0],[0]]","4","[[1,2,0],[3,0],[0]]","13","0","","","","","","4","","","","",""
"","","","","","poldrack-single-stim","355","1161827","0.0-3.0-51.0","63f919b924be75908b13bc1b","D2","batch4","tol_feedback","-1","","","","","true","","","","","1000","1000","500","","","","","","-1","none","true","4232","5840","","","","","",""
