"success","timeout","failed_images","failed_audio","failed_video","trial_type","trial_index","time_elapsed","internal_node_id","subject_id","study_id","session_id","view_history","rt","stimulus","response","task","correct","answer","item","fiar_detect_rt","fiar_detect_correct","total_correct_fiar_detect","post_trial_gap","choices","spm_correct","spm_rt","mouse_click","stim_duration","block_duration","timing_post_trial","current_position","tol_num_moves_made","tol_target","tol_problem_id","tol_rt","key_press","possible_responses","tol_correct","preplanning","tol_rt_per_trial","tol_min_moves"
"true","false","[]","[]","[]","preload","0","3454","0.0-0.0","63fba157c9ebcb0ba6397872","A3","batch1","","","","","","","","","","","","","","","","","","","","","","","","","","","","","",""
"true","","","","","fullscreen","1","41879","0.0-1.0-0.0","63fba157c9ebcb0ba6397872","A3","batch1","","","","","","","","","","","","","","","","","","","","","","","","","","","","","",""
"true","","","","","fullscreen","2","45385","0.0-2.0-0.0","63fba157c9ebcb0ba6397872","A3","batch1","","","","","","","","","","","","","","","","","","","","","","","","","","","","","",""
"","","","","","instructions","3","59259","0.0-2.0-1.0-0.0","63fba157c9ebcb0ba6397872","A3","batch1","[{""page_index"":0,""viewing_time"":9602.100000023842},{""page_index"":1,""viewing_time"":4269.899999976158}]","13872.300000011921","","","","","","","","","","","","","","","","","","","","","","","","","","","",""
"","","","","","html-button-response","4","60928","0.0-2.0-1.0-1.0-0.0","63fba157c9ebcb0ba6397872","A3","batch1","","1668.0999999642372","<p class=block-text> Let's answer a few questions <br>","0","pattern_enter_quiz","","","","","","","","","","","","","","","","","","","","","","","","",""
"","","","","","html-button-response","5","63111","0.0-2.0-1.0-1.0-1.0","63fba157c9ebcb0ba6397872","A3","batch1","","2181.199999988079","<p class = block-text>True or False: You will have as much time as you want to make each choice. <br></p>","1","pattern_quiz","true","","","","","","","","","","","","","","","","","","","","","","","",""
"","","","","","html-button-response","6","64216","0.0-2.0-1.0-1.0-2.0","63fba157c9ebcb0ba6397872","A3","batch1","","1103.9000000357628","<p class = block-text>Correct! You should make your choice <strong> as fast as you can</strong>.</p>","0","pattern_quiz_feedback","","","","","","","","","","","","","","","","","","","","","","","","",""
"","","","","","html-button-response","7","66888","0.0-2.0-1.0-1.0-3.0","63fba157c9ebcb0ba6397872","A3","batch1","","2671.800000011921","<p class = block-text>True or False: You will look for 4 pieces in black or white color connected in a row either horizontally, vertically or diagonally. <br></p>","0","pattern_quiz","true","","","","","","","","","","","","","","","","","","","","","","","",""
"","","","","","html-button-response","8","67811","0.0-2.0-1.0-1.0-4.0","63fba157c9ebcb0ba6397872","A3","batch1","","921.8999999761581","<p class = block-text>Correct! </p>","0","pattern_quiz_feedback","","","","","","","","","","","","","","","","","","","","","","","","",""
"","","","","","html-button-response","9","69453","0.0-2.0-2.0","63fba157c9ebcb0ba6397872","A3","batch1","","1640.699999988079","<p class=block-text> Now that you've understood the game, let's do a few practice trials before we start!<br> <br>","0","pattern_enter_practice","","","","","","","","","","","","","","","","","","","","","","","","",""
"","","","","","image-keyboard-response","10","70261","0.0-2.0-3.0-0.0","63fba157c9ebcb0ba6397872","A3","batch1","","805","stim/prac_yes_18_hor_w1.png","f","pattern_practice","true","f","","","","","","","","","","","","","","","","","","","","","","",""
"","","","","","html-keyboard-response","11","71277","0.0-2.0-3.0-1.0","63fba157c9ebcb0ba6397872","A3","batch1","","null","<p style=""font-size:30px;color:green;"">Correct!</p>","null","pattern_feedback","","","","","","","","","","","","","","","","","","","","","","","","",""
"","","","","","image-keyboard-response","12","72313","0.0-2.0-3.0-0.1","63fba157c9ebcb0ba6397872","A3","batch1","","1034.8999999761581","stim/prac_no_18_1.png","j","pattern_practice","true","j","","","","","","","","","","","","","","","","","","","","","","",""
"","","","","","html-keyboard-response","13","73335","0.0-2.0-3.0-1.1","63fba157c9ebcb0ba6397872","A3","batch1","","null","<p style=""font-size:30px;color:green;"">Correct!</p>","null","pattern_feedback","","","","","","","","","","","","","","","","","","","","","","","","",""
"","","","","","image-keyboard-response","14","75159","0.0-2.0-3.0-0.2","63fba157c9ebcb0ba6397872","A3","batch1","","1822.300000011921","stim/prac_no_16_1.png","j","pattern_practice","true","j","","","","","","","","","","","","","","","","","","","","","","",""
"","","","","","html-keyboard-response","15","76163","0.0-2.0-3.0-1.2","63fba157c9ebcb0ba6397872","A3","batch1","","null","<p style=""font-size:30px;color:green;"">Correct!</p>","null","pattern_feedback","","","","","","","","","","","","","","","","","","","","","","","","",""
"","","","","","image-keyboard-response","16","76774","0.0-2.0-3.0-0.3","63fba157c9ebcb0ba6397872","A3","batch1","","610.3000000119209","stim/prac_yes_16_ver_w1.png","f","pattern_practice","true","f","","","","","","","","","","","","","","","","","","","","","","",""
"","","","","","html-keyboard-response","17","77804","0.0-2.0-3.0-1.3","63fba157c9ebcb0ba6397872","A3","batch1","","null","<p style=""font-size:30px;color:green;"">Correct!</p>","null","pattern_feedback","","","","","","","","","","","","","","","","","","","","","","","","",""
"","","","","","image-keyboard-response","18","79192","0.0-2.0-3.0-0.4","63fba157c9ebcb0ba6397872","A3","batch1","","1386.8999999761581","stim/prac_yes_20_dia_b1.png","f","pattern_practice","true","f","","","","","","","","","","","","","","","","","","","","","","",""
"","","","","","html-keyboard-response","19","80220","0.0-2.0-3.0-1.4","63fba157c9ebcb0ba6397872","A3","batch1","","null","<p style=""font-size:30px;color:green;"">Correct!</p>","null","pattern_feedback","","","","","","","","","","","","","","","","","","","","","","","","",""
"","","","","","html-button-response","20","82377","0.0-2.0-4.0","63fba157c9ebcb0ba6397872","A3","batch1","","2156.5","<p class=block-text> Good job! You are done with practice trials!<br>
        You responded correctly on 100% of the trials.<br>
        Press the button below to start official trials. Now you won't see any feedback about your response</p>","0","pattern_enter_official_trials","","","","","","","","","","","","","","","","","","","","","","","","",""
"","","","","","html-keyboard-response","21","83186","0.0-2.0-5.0-0.0","63fba157c9ebcb0ba6397872","A3","batch1","","null","<p class=block-text>Trial 1 out of 78</p>","null","pattern_show_trial_num","","","","","","","","","","","","","","","","","","","","","","","","",""
"","","","","","image-keyboard-response","22","84333","0.0-2.0-5.0-1.0","63fba157c9ebcb0ba6397872","A3","batch1","","1144.8999999761581","stim/yes_23_ver_b1.png","f","pattern_response","true","f","pattern_48","1144.8999999761581","true","1","","","","","","","","","","","","","","","","","","",""
"","","","","","html-keyboard-response","23","85641","0.0-2.0-5.0-0.1","63fba157c9ebcb0ba6397872","A3","batch1","","null","<p class=block-text>Trial 2 out of 78</p>","null","pattern_show_trial_num","","","","","","","","","","","","","","","","","","","","","","","","",""
"","","","","","image-keyboard-response","24","86384","0.0-2.0-5.0-1.1","63fba157c9ebcb0ba6397872","A3","batch1","","742.3000000119209","stim/yes_30_ver_b1_b.png","f","pattern_response","true","f","pattern_54","742.3000000119209","true","2","","","","","","","","","","","","","","","","","","",""
"","","","","","html-keyboard-response","25","87703","0.0-2.0-5.0-0.2","63fba157c9ebcb0ba6397872","A3","batch1","","null","<p class=block-text>Trial 3 out of 78</p>","null","pattern_show_trial_num","","","","","","","","","","","","","","","","","","","","","","","","",""
"","","","","","image-keyboard-response","26","88994","0.0-2.0-5.0-1.2","63fba157c9ebcb0ba6397872","A3","batch1","","1290.2999999523163","stim/yes_49_hor_w1_b.png","f","pattern_response","true","f","pattern_70","1290.2999999523163","true","3","","","","","","","","","","","","","","","","","","",""
"","","","","","html-keyboard-response","27","90302","0.0-2.0-5.0-0.3","63fba157c9ebcb0ba6397872","A3","batch1","","null","<p class=block-text>Trial 4 out of 78</p>","null","pattern_show_trial_num","","","","","","","","","","","","","","","","","","","","","","","","",""
"","","","","","image-keyboard-response","28","91238","0.0-2.0-5.0-1.3","63fba157c9ebcb0ba6397872","A3","batch1","","934.5999999642372","stim/no_22_1_b.png","j","pattern_response","true","j","pattern_07","934.5999999642372","true","4","","","","","","","","","","","","","","","","","","",""
"","","","","","html-keyboard-response","29","92552","0.0-2.0-5.0-0.4","63fba157c9ebcb0ba6397872","A3","batch1","","null","<p class=block-text>Trial 5 out of 78</p>","null","pattern_show_trial_num","","","","","","","","","","","","","","","","","","","","","","","","",""
"","","","","","image-keyboard-response","30","93925","0.0-2.0-5.0-1.4","63fba157c9ebcb0ba6397872","A3","batch1","","1371.3999999761581","stim/no_15_1_w.png","j","pattern_response","true","j","pattern_03","1371.3999999761581","true","5","","","","","","","","","","","","","","","","","","",""
"","","","","","html-keyboard-response","31","95253","0.0-2.0-5.0-0.5","63fba157c9ebcb0ba6397872","A3","batch1","","null","<p class=block-text>Trial 6 out of 78</p>","null","pattern_show_trial_num","","","","","","","","","","","","","","","","","","","","","","","","",""
"","","","","","image-keyboard-response","32","102289","0.0-2.0-5.0-1.5","63fba157c9ebcb0ba6397872","A3","batch1","","7035","stim/no_53_1_b.png","j","pattern_response","true","j","pattern_33","7035","true","6","","","","","","","","","","","","","","","","","","",""
"","","","","","html-keyboard-response","33","103602","0.0-2.0-5.0-0.6","63fba157c9ebcb0ba6397872","A3","batch1","","null","<p class=block-text>Trial 7 out of 78</p>","null","pattern_show_trial_num","","","","","","","","","","","","","","","","","","","","","","","","",""
"","","","","","image-keyboard-response","34","107782","0.0-2.0-5.0-1.6","63fba157c9ebcb0ba6397872","A3","batch1","","4177.900000035763","stim/no_37_2_w.png","j","pattern_response","true","j","pattern_19","4177.900000035763","true","7","","","","","","","","","","","","","","","","","","",""
"","","","","","html-keyboard-response","35","109112","0.0-2.0-5.0-0.7","63fba157c9ebcb0ba6397872","A3","batch1","","null","<p class=block-text>Trial 8 out of 78</p>","null","pattern_show_trial_num","","","","","","","","","","","","","","","","","","","","","","","","",""
"","","","","","image-keyboard-response","36","110470","0.0-2.0-5.0-1.7","63fba157c9ebcb0ba6397872","A3","batch1","","1356","stim/no_18_1_b.png","j","pattern_response","true","j","pattern_05","1356","true","8","","","","","","","","","","","","","","","","","","",""
"","","","","","html-keyboard-response","37","111788","0.0-2.0-5.0-0.8","63fba157c9ebcb0ba6397872","A3","batch1","","null","<p class=block-text>Trial 9 out of 78</p>","null","pattern_show_trial_num","","","","","","","","","","","","","","","","","","","","","","","","",""
"","","","","","image-keyboard-response","38","115797","0.0-2.0-5.0-1.8","63fba157c9ebcb0ba6397872","A3","batch1","","4007.199999988079","stim/no_49_2_b.png","j","pattern_response","true","j","pattern_29","4007.199999988079","true","9","","","","","","","","","","","","","","","","","","",""
"","","","","","html-keyboard-response","39","117112","0.0-2.0-5.0-0.9","63fba157c9ebcb0ba6397872","A3","batch1","","null","<p class=block-text>Trial 10 out of 78</p>","null","pattern_show_trial_num","","","","","","","","","","","","","","","","","","","","","","","","",""
"","","","","","image-keyboard-response","40","117962","0.0-2.0-5.0-1.9","63fba157c9ebcb0ba6397872","A3","batch1","","847.7000000476837","stim/yes_36_ver_w1_w.png","f","pattern_response","true","f","pattern_58","847.7000000476837","true","10","","","","","","","","","","","","","","","","","","",""
"","","","","","html-keyboard-response","41","119284","0.0-2.0-5.0-0.10","63fba157c9ebcb0ba6397872","A3","batch1","","null","<p class=block-text>Trial 11 out of 78</p>","null","pattern_show_trial_num","","","","","","","","","","","","","","","","","","","","","","","","",""
"","","","","","image-keyboard-response","42","120067","0.0-2.0-5.0-1.10","63fba157c9ebcb0ba6397872","A3","batch1","","781.3999999761581","stim/yes_46_ver_b1_b.png","f","pattern_response","true","f","pattern_68","781.3999999761581","true","11","","","","","","","","","","","","","","","","","","",""
"","","","","","html-keyboard-response","43","121386","0.0-2.0-5.0-0.11","63fba157c9ebcb0ba6397872","A3","batch1","","null","<p class=block-text>Trial 12 out of 78</p>","null","pattern_show_trial_num","","","","","","","","","","","","","","","","","","","","","","","","",""
"","","","","","image-keyboard-response","44","124538","0.0-2.0-5.0-1.11","63fba157c9ebcb0ba6397872","A3","batch1","","3151","stim/no_28_2.png","j","pattern_response","true","j","pattern_11","3151","true","12","","","","","","","","","","","","","","","","","","",""
"","","","","","html-keyboard-response","45","125854","0.0-2.0-5.0-0.12","63fba157c9ebcb0ba6397872","A3","batch1","","null","<p class=block-text>Trial 13 out of 78</p>","null","pattern_show_trial_num","","","","","","","","","","","","","","","","","","","","","","","","",""
"","","","","","image-keyboard-response","46","130769","0.0-2.0-5.0-1.12","63fba157c9ebcb0ba6397872","A3","batch1","","4925.299999952316","stim/yes_58_dia_w1_w.png","f","pattern_response","true","f","pattern_76","4925.299999952316","true","13","","","","","","","","","","","","","","","","","","",""
"","","","","","html-keyboard-response","47","132092","0.0-2.0-5.0-0.13","63fba157c9ebcb0ba6397872","A3","batch1","","null","<p class=block-text>Trial 14 out of 78</p>","null","pattern_show_trial_num","","","","","","","","","","","","","","","","","","","","","","","","",""
"","","","","","image-keyboard-response","48","134894","0.0-2.0-5.0-1.13","63fba157c9ebcb0ba6397872","A3","batch1","","2800.100000023842","stim/yes_63_dia_b1.png","f","pattern_response","true","f","pattern_78","2800.100000023842","true","14","","","","","","","","","","","","","","","","","","",""
"","","","","","html-keyboard-response","49","136225","0.0-2.0-5.0-0.14","63fba157c9ebcb0ba6397872","A3","batch1","","null","<p class=block-text>Trial 15 out of 78</p>","null","pattern_show_trial_num","","","","","","","","","","","","","","","","","","","","","","","","",""
"","","","","","image-keyboard-response","50","137613","0.0-2.0-5.0-1.14","63fba157c9ebcb0ba6397872","A3","batch1","","1386.8999999761581","stim/no_12_1.png","j","pattern_response","true","j","pattern_01","1386.8999999761581","true","15","","","","","","","","","","","","","","","","","","",""
"","","","","","html-keyboard-response","51","138928","0.0-2.0-5.0-0.15","63fba157c9ebcb0ba6397872","A3","batch1","","null","<p class=block-text>Trial 16 out of 78</p>","null","pattern_show_trial_num","","","","","","","","","","","","","","","","","","","","","","","","",""
"","","","","","image-keyboard-response","52","143287","0.0-2.0-5.0-1.15","63fba157c9ebcb0ba6397872","A3","batch1","","4357.899999976158","stim/no_47_1_b.png","j","pattern_response","true","j","pattern_27","4357.899999976158","true","16","","","","","","","","","","","","","","","","","","",""
"","","","","","html-keyboard-response","53","144601","0.0-2.0-5.0-0.16","63fba157c9ebcb0ba6397872","A3","batch1","","null","<p class=block-text>Trial 17 out of 78</p>","null","pattern_show_trial_num","","","","","","","","","","","","","","","","","","","","","","","","",""
"","","","","","image-keyboard-response","54","145569","0.0-2.0-5.0-1.16","63fba157c9ebcb0ba6397872","A3","batch1","","966.8999999761581","stim/yes_70_ver_b1.png","f","pattern_response","true","f","pattern_80","966.8999999761581","true","17","","","","","","","","","","","","","","","","","","",""
"","","","","","html-keyboard-response","55","146883","0.0-2.0-5.0-0.17","63fba157c9ebcb0ba6397872","A3","batch1","","null","<p class=block-text>Trial 18 out of 78</p>","null","pattern_show_trial_num","","","","","","","","","","","","","","","","","","","","","","","","",""
"","","","","","image-keyboard-response","56","147680","0.0-2.0-5.0-1.17","63fba157c9ebcb0ba6397872","A3","batch1","","796","stim/yes_53_ver_b1_b.png","f","pattern_response","true","f","pattern_74","796","true","18","","","","","","","","","","","","","","","","","","",""
"","","","","","html-keyboard-response","57","149002","0.0-2.0-5.0-0.18","63fba157c9ebcb0ba6397872","A3","batch1","","null","<p class=block-text>Trial 19 out of 78</p>","null","pattern_show_trial_num","","","","","","","","","","","","","","","","","","","","","","","","",""
"","","","","","image-keyboard-response","58","152525","0.0-2.0-5.0-1.18","63fba157c9ebcb0ba6397872","A3","batch1","","3521.900000035763","stim/no_43_2_b.png","j","pattern_response","true","j","pattern_23","3521.900000035763","true","19","","","","","","","","","","","","","","","","","","",""
"","","","","","html-keyboard-response","59","153836","0.0-2.0-5.0-0.19","63fba157c9ebcb0ba6397872","A3","batch1","","null","<p class=block-text>Trial 20 out of 78</p>","null","pattern_show_trial_num","","","","","","","","","","","","","","","","","","","","","","","","",""
"","","","","","image-keyboard-response","60","155132","0.0-2.0-5.0-1.19","63fba157c9ebcb0ba6397872","A3","batch1","","1295.199999988079","stim/yes_15_dia_b1u_b.png","f","pattern_response","true","f","pattern_44","1295.199999988079","true","20","","","","","","","","","","","","","","","","","","",""
"","","","","","html-keyboard-response","61","156450","0.0-2.0-5.0-0.20","63fba157c9ebcb0ba6397872","A3","batch1","","null","<p class=block-text>Trial 21 out of 78</p>","null","pattern_show_trial_num","","","","","","","","","","","","","","","","","","","","","","","","",""
"","","","","","image-keyboard-response","62","159023","0.0-2.0-5.0-1.20","63fba157c9ebcb0ba6397872","A3","batch1","","2571.800000011921","stim/no_25_1_b.png","j","pattern_response","true","j","pattern_09","2571.800000011921","true","21","","","","","","","","","","","","","","","","","","",""
"","","","","","html-keyboard-response","63","160340","0.0-2.0-5.0-0.21","63fba157c9ebcb0ba6397872","A3","batch1","","null","<p class=block-text>Trial 22 out of 78</p>","null","pattern_show_trial_num","","","","","","","","","","","","","","","","","","","","","","","","",""
"","","","","","image-keyboard-response","64","161487","0.0-2.0-5.0-1.21","63fba157c9ebcb0ba6397872","A3","batch1","","1146.5","stim/yes_37_hor_w1_w.png","f","pattern_response","true","f","pattern_60","1146.5","true","22","","","","","","","","","","","","","","","","","","",""
"","","","","","html-keyboard-response","65","162798","0.0-2.0-5.0-0.22","63fba157c9ebcb0ba6397872","A3","batch1","","null","<p class=block-text>Trial 23 out of 78</p>","null","pattern_show_trial_num","","","","","","","","","","","","","","","","","","","","","","","","",""
"","","","","","image-keyboard-response","66","166819","0.0-2.0-5.0-1.22","63fba157c9ebcb0ba6397872","A3","batch1","","4019.100000023842","stim/no_39_1_w.png","j","pattern_response","true","j","pattern_21","4019.100000023842","true","23","","","","","","","","","","","","","","","","","","",""
"","","","","","html-keyboard-response","67","168124","0.0-2.0-5.0-0.23","63fba157c9ebcb0ba6397872","A3","batch1","","null","<p class=block-text>Trial 24 out of 78</p>","null","pattern_show_trial_num","","","","","","","","","","","","","","","","","","","","","","","","",""
"","","","","","image-keyboard-response","68","170609","0.0-2.0-5.0-1.23","63fba157c9ebcb0ba6397872","A3","batch1","","2484.199999988079","stim/no_36_1_b.png","j","pattern_response","true","j","pattern_17","2484.199999988079","true","24","","","","","","","","","","","","","","","","","","",""
"","","","","","html-keyboard-response","69","171933","0.0-2.0-5.0-0.24","63fba157c9ebcb0ba6397872","A3","batch1","","null","<p class=block-text>Trial 25 out of 78</p>","null","pattern_show_trial_num","","","","","","","","","","","","","","","","","","","","","","","","",""
"","","","","","image-keyboard-response","70","172565","0.0-2.0-5.0-1.24","63fba157c9ebcb0ba6397872","A3","batch1","","630.7000000476837","stim/yes_12_hor_w1_w.png","f","pattern_response","true","f","pattern_42","630.7000000476837","true","25","","","","","","","","","","","","","","","","","","",""
"","","","","","html-keyboard-response","71","173884","0.0-2.0-5.0-0.25","63fba157c9ebcb0ba6397872","A3","batch1","","null","<p class=block-text>Trial 26 out of 78</p>","null","pattern_show_trial_num","","","","","","","","","","","","","","","","","","","","","","","","",""
"","","","","","image-keyboard-response","72","180794","0.0-2.0-5.0-1.25","63fba157c9ebcb0ba6397872","A3","batch1","","6908.900000035763","stim/no_58_1_w.png","j","pattern_response","true","j","pattern_35","6908.900000035763","true","26","","","","","","","","","","","","","","","","","","",""
"","","","","","html-keyboard-response","73","182121","0.0-2.0-5.0-0.26","63fba157c9ebcb0ba6397872","A3","batch1","","null","<p class=block-text>Trial 27 out of 78</p>","null","pattern_show_trial_num","","","","","","","","","","","","","","","","","","","","","","","","",""
"","","","","","image-keyboard-response","74","186145","0.0-2.0-5.0-1.26","63fba157c9ebcb0ba6397872","A3","batch1","","4022.399999976158","stim/no_45_1_w.png","j","pattern_response","true","j","pattern_25","4022.399999976158","true","27","","","","","","","","","","","","","","","","","","",""
"","","","","","html-keyboard-response","75","187469","0.0-2.0-5.0-0.27","63fba157c9ebcb0ba6397872","A3","batch1","","null","<p class=block-text>Trial 28 out of 78</p>","null","pattern_show_trial_num","","","","","","","","","","","","","","","","","","","","","","","","",""
"","","","","","image-keyboard-response","76","188100","0.0-2.0-5.0-1.27","63fba157c9ebcb0ba6397872","A3","batch1","","629.1999999880791","stim/yes_39_hor_w1_w.png","f","pattern_response","true","f","pattern_62","629.1999999880791","true","28","","","","","","","","","","","","","","","","","","",""
"","","","","","html-keyboard-response","77","189412","0.0-2.0-5.0-0.28","63fba157c9ebcb0ba6397872","A3","batch1","","null","<p class=block-text>Trial 29 out of 78</p>","null","pattern_show_trial_num","","","","","","","","","","","","","","","","","","","","","","","","",""
"","","","","","image-keyboard-response","78","192533","0.0-2.0-5.0-1.28","63fba157c9ebcb0ba6397872","A3","batch1","","3107","stim/no_30_1_b.png","j","pattern_response","true","j","pattern_13","3107","true","29","","","","","","","","","","","","","","","","","","",""
"","","","","","html-keyboard-response","79","193851","0.0-2.0-5.0-0.29","63fba157c9ebcb0ba6397872","A3","batch1","","null","<p class=block-text>Trial 30 out of 78</p>","null","pattern_show_trial_num","","","","","","","","","","","","","","","","","","","","","","","","",""
"","","","","","image-keyboard-response","80","194467","0.0-2.0-5.0-1.29","63fba157c9ebcb0ba6397872","A3","batch1","","614.3000000119209","stim/yes_29_hor_b1_b.png","f","pattern_response","true","f","pattern_52","614.3000000119209","true","30","","","","","","","","","","","","","","","","","","",""
"","","","","","html-keyboard-response","81","195788","0.0-2.0-5.0-0.30","63fba157c9ebcb0ba6397872","A3","batch1","","null","<p class=block-text>Trial 31 out of 78</p>","null","pattern_show_trial_num","","","","","","","","","","","","","","","","","","","","","","","","",""
"","","","","","image-keyboard-response","82","203007","0.0-2.0-5.0-1.30","63fba157c9ebcb0ba6397872","A3","batch1","","7217.199999988079","stim/no_67_1.png","j","pattern_response","true","j","pattern_39","7217.199999988079","true","31","","","","","","","","","","","","","","","","","","",""
"","","","","","html-keyboard-response","83","204336","0.0-2.0-5.0-0.31","63fba157c9ebcb0ba6397872","A3","batch1","","null","<p class=block-text>Trial 32 out of 78</p>","null","pattern_show_trial_num","","","","","","","","","","","","","","","","","","","","","","","","",""
"","","","","","image-keyboard-response","84","209104","0.0-2.0-5.0-1.31","63fba157c9ebcb0ba6397872","A3","batch1","","4766","stim/no_51_1.png","j","pattern_response","true","j","pattern_31","4766","true","32","","","","","","","","","","","","","","","","","","",""
"","","","","","html-keyboard-response","85","210417","0.0-2.0-5.0-0.32","63fba157c9ebcb0ba6397872","A3","batch1","","null","<p class=block-text>Trial 33 out of 78</p>","null","pattern_show_trial_num","","","","","","","","","","","","","","","","","","","","","","","","",""
"","","","","","image-keyboard-response","86","214720","0.0-2.0-5.0-1.32","63fba157c9ebcb0ba6397872","A3","batch1","","4301.299999952316","stim/yes_26_dia_w2_w.png","f","pattern_response","true","f","pattern_50","4301.299999952316","true","33","","","","","","","","","","","","","","","","","","",""
"","","","","","html-keyboard-response","87","216034","0.0-2.0-5.0-0.33","63fba157c9ebcb0ba6397872","A3","batch1","","null","<p class=block-text>Trial 34 out of 78</p>","null","pattern_show_trial_num","","","","","","","","","","","","","","","","","","","","","","","","",""
"","","","","","image-keyboard-response","88","216759","0.0-2.0-5.0-1.33","63fba157c9ebcb0ba6397872","A3","batch1","","722.8999999761581","stim/yes_17_ver_b1_b.png","f","pattern_response","true","f","pattern_46","722.8999999761581","true","34","","","","","","","","","","","","","","","","","","",""
"","","","","","html-keyboard-response","89","218084","0.0-2.0-5.0-0.34","63fba157c9ebcb0ba6397872","A3","batch1","","null","<p class=block-text>Trial 35 out of 78</p>","null","pattern_show_trial_num","","","","","","","","","","","","","","","","","","","","","","","","",""
"","","","","","image-keyboard-response","90","222354","0.0-2.0-5.0-1.34","63fba157c9ebcb0ba6397872","A3","batch1","","4267.900000035763","stim/yes_51_dia_b1.png","j","pattern_response","false","f","pattern_72","4267.900000035763","false","34","","","","","","","","","","","","","","","","","","",""
"","","","","","html-keyboard-response","91","223667","0.0-2.0-5.0-0.35","63fba157c9ebcb0ba6397872","A3","batch1","","null","<p class=block-text>Trial 36 out of 78</p>","null","pattern_show_trial_num","","","","","","","","","","","","","","","","","","","","","","","","",""
"","","","","","image-keyboard-response","92","224732","0.0-2.0-5.0-1.35","63fba157c9ebcb0ba6397872","A3","batch1","","1062.4000000357628","stim/yes_33_dia_w1_w.png","f","pattern_response","true","f","pattern_56","1062.4000000357628","true","35","","","","","","","","","","","","","","","","","","",""
"","","","","","html-keyboard-response","93","226037","0.0-2.0-5.0-0.36","63fba157c9ebcb0ba6397872","A3","batch1","","null","<p class=block-text>Trial 37 out of 78</p>","null","pattern_show_trial_num","","","","","","","","","","","","","","","","","","","","","","","","",""
"","","","","","image-keyboard-response","94","230703","0.0-2.0-5.0-1.36","63fba157c9ebcb0ba6397872","A3","batch1","","4664.300000011921","stim/yes_44_ver_w1_w.png","j","pattern_response","false","f","pattern_66","4664.300000011921","false","35","","","","","","","","","","","","","","","","","","",""
"","","","","","html-keyboard-response","95","232019","0.0-2.0-5.0-0.37","63fba157c9ebcb0ba6397872","A3","batch1","","null","<p class=block-text>Trial 38 out of 78</p>","null","pattern_show_trial_num","","","","","","","","","","","","","","","","","","","","","","","","",""
"","","","","","image-keyboard-response","96","235406","0.0-2.0-5.0-1.37","63fba157c9ebcb0ba6397872","A3","batch1","","3384.5","stim/no_33_1_b.png","j","pattern_response","true","j","pattern_15","3384.5","true","36","","","","","","","","","","","","","","","","","","",""
"","","","","","html-keyboard-response","97","236734","0.0-2.0-5.0-0.38","63fba157c9ebcb0ba6397872","A3","batch1","","null","<p class=block-text>Trial 39 out of 78</p>","null","pattern_show_trial_num","","","","","","","","","","","","","","","","","","","","","","","","",""
"","","","","","image-keyboard-response","98","240169","0.0-2.0-5.0-1.38","63fba157c9ebcb0ba6397872","A3","batch1","","3432.099999964237","stim/yes_42_dia_w1_w.png","f","pattern_response","true","f","pattern_64","3432.099999964237","true","37","","","","","","","","","","","","","","","","","","",""
"","","","","","image-keyboard-response","99","242291","0.0-2.0-6.0","63fba157c9ebcb0ba6397872","A3","batch1","","1616.699999988079","stim/empty_board.png","j","attention_check","true","j","","","","","500","[""f"",""j""]","","","","","","","","","","","","","","","","",""
"","","","","","html-keyboard-response","100","243101","0.0-2.0-7.0-0.0","63fba157c9ebcb0ba6397872","A3","batch1","","null","<p class=block-text>Trial 40 out of 78</p>","null","pattern_show_trial_num","","","","","","","","","","","","","","","","","","","","","","","","",""
"","","","","","image-keyboard-response","101","246485","0.0-2.0-7.0-1.0","63fba157c9ebcb0ba6397872","A3","batch1","","3382.899999976158","stim/yes_37_dia_w1.png","f","pattern_response","true","f","pattern_59","3382.899999976158","true","38","","","","","","","","","","","","","","","","","","",""
"","","","","","html-keyboard-response","102","247801","0.0-2.0-7.0-0.1","63fba157c9ebcb0ba6397872","A3","batch1","","null","<p class=block-text>Trial 41 out of 78</p>","null","pattern_show_trial_num","","","","","","","","","","","","","","","","","","","","","","","","",""
"","","","","","image-keyboard-response","103","248903","0.0-2.0-7.0-1.1","63fba157c9ebcb0ba6397872","A3","batch1","","1100","stim/yes_38_hor_b1_b.png","f","pattern_response","true","f","pattern_61","1100","true","39","","","","","","","","","","","","","","","","","","",""
"","","","","","html-keyboard-response","104","250213","0.0-2.0-7.0-0.2","63fba157c9ebcb0ba6397872","A3","batch1","","null","<p class=block-text>Trial 42 out of 78</p>","null","pattern_show_trial_num","","","","","","","","","","","","","","","","","","","","","","","","",""
"","","","","","image-keyboard-response","105","252071","0.0-2.0-7.0-1.2","63fba157c9ebcb0ba6397872","A3","batch1","","1856.800000011921","stim/no_13_2_b.png","j","pattern_response","true","j","pattern_02","1856.800000011921","true","40","","","","","","","","","","","","","","","","","","",""
"","","","","","html-keyboard-response","106","253384","0.0-2.0-7.0-0.3","63fba157c9ebcb0ba6397872","A3","batch1","","null","<p class=block-text>Trial 43 out of 78</p>","null","pattern_show_trial_num","","","","","","","","","","","","","","","","","","","","","","","","",""
"","","","","","image-keyboard-response","107","258865","0.0-2.0-7.0-1.3","63fba157c9ebcb0ba6397872","A3","batch1","","5479.5","stim/no_36_2_w.png","j","pattern_response","true","j","pattern_18","5479.5","true","41","","","","","","","","","","","","","","","","","","",""
"","","","","","html-keyboard-response","108","260172","0.0-2.0-7.0-0.4","63fba157c9ebcb0ba6397872","A3","batch1","","null","<p class=block-text>Trial 44 out of 78</p>","null","pattern_show_trial_num","","","","","","","","","","","","","","","","","","","","","","","","",""
"","","","","","image-keyboard-response","109","265331","0.0-2.0-7.0-1.4","63fba157c9ebcb0ba6397872","A3","batch1","","5157.300000011921","stim/no_52_1.png","j","pattern_response","true","j","pattern_32","5157.300000011921","true","42","","","","","","","","","","","","","","","","","","",""
"","","","","","html-keyboard-response","110","266651","0.0-2.0-7.0-0.5","63fba157c9ebcb0ba6397872","A3","batch1","","null","<p class=block-text>Trial 45 out of 78</p>","null","pattern_show_trial_num","","","","","","","","","","","","","","","","","","","","","","","","",""
"","","","","","image-keyboard-response","111","267439","0.0-2.0-7.0-1.5","63fba157c9ebcb0ba6397872","A3","batch1","","786.7999999523163","stim/yes_22_ver_w1.png","f","pattern_response","true","f","pattern_47","786.7999999523163","true","43","","","","","","","","","","","","","","","","","","",""
"","","","","","html-keyboard-response","112","268766","0.0-2.0-7.0-0.6","63fba157c9ebcb0ba6397872","A3","batch1","","null","<p class=block-text>Trial 46 out of 78</p>","null","pattern_show_trial_num","","","","","","","","","","","","","","","","","","","","","","","","",""
"","","","","","image-keyboard-response","113","271664","0.0-2.0-7.0-1.6","63fba157c9ebcb0ba6397872","A3","batch1","","2896.100000023842","stim/no_26_1_w.png","j","pattern_response","true","j","pattern_10","2896.100000023842","true","44","","","","","","","","","","","","","","","","","","",""
"","","","","","html-keyboard-response","114","272976","0.0-2.0-7.0-0.7","63fba157c9ebcb0ba6397872","A3","batch1","","null","<p class=block-text>Trial 47 out of 78</p>","null","pattern_show_trial_num","","","","","","","","","","","","","","","","","","","","","","","","",""
"","","","","","image-keyboard-response","115","274756","0.0-2.0-7.0-1.7","63fba157c9ebcb0ba6397872","A3","batch1","","1777.1000000238419","stim/no_17_1_w.png","j","pattern_response","true","j","pattern_04","1777.1000000238419","true","45","","","","","","","","","","","","","","","","","","",""
"","","","","","html-keyboard-response","116","276076","0.0-2.0-7.0-0.8","63fba157c9ebcb0ba6397872","A3","batch1","","null","<p class=block-text>Trial 48 out of 78</p>","null","pattern_show_trial_num","","","","","","","","","","","","","","","","","","","","","","","","",""
"","","","","","image-keyboard-response","117","277445","0.0-2.0-7.0-1.8","63fba157c9ebcb0ba6397872","A3","batch1","","1367.300000011921","stim/no_20_1_w.png","j","pattern_response","true","j","pattern_06","1367.300000011921","true","46","","","","","","","","","","","","","","","","","","",""
"","","","","","html-keyboard-response","118","278767","0.0-2.0-7.0-0.9","63fba157c9ebcb0ba6397872","A3","batch1","","null","<p class=block-text>Trial 49 out of 78</p>","null","pattern_show_trial_num","","","","","","","","","","","","","","","","","","","","","","","","",""
"","","","","","image-keyboard-response","119","283647","0.0-2.0-7.0-1.9","63fba157c9ebcb0ba6397872","A3","batch1","","4878.599999964237","stim/no_34_1_b.png","j","pattern_response","true","j","pattern_16","4878.599999964237","true","47","","","","","","","","","","","","","","","","","","",""
"","","","","","html-keyboard-response","120","284960","0.0-2.0-7.0-0.10","63fba157c9ebcb0ba6397872","A3","batch1","","null","<p class=block-text>Trial 50 out of 78</p>","null","pattern_show_trial_num","","","","","","","","","","","","","","","","","","","","","","","","",""
"","","","","","image-keyboard-response","121","287438","0.0-2.0-7.0-1.10","63fba157c9ebcb0ba6397872","A3","batch1","","2476.599999964237","stim/no_32_1_w.png","j","pattern_response","true","j","pattern_14","2476.599999964237","true","48","","","","","","","","","","","","","","","","","","",""
"","","","","","html-keyboard-response","122","288766","0.0-2.0-7.0-0.11","63fba157c9ebcb0ba6397872","A3","batch1","","null","<p class=block-text>Trial 51 out of 78</p>","null","pattern_show_trial_num","","","","","","","","","","","","","","","","","","","","","","","","",""
"","","","","","image-keyboard-response","123","292678","0.0-2.0-7.0-1.11","63fba157c9ebcb0ba6397872","A3","batch1","","3909.800000011921","stim/no_38_1_b.png","j","pattern_response","true","j","pattern_20","3909.800000011921","true","49","","","","","","","","","","","","","","","","","","",""
"","","","","","html-keyboard-response","124","293993","0.0-2.0-7.0-0.12","63fba157c9ebcb0ba6397872","A3","batch1","","null","<p class=block-text>Trial 52 out of 78</p>","null","pattern_show_trial_num","","","","","","","","","","","","","","","","","","","","","","","","",""
"","","","","","image-keyboard-response","125","295041","0.0-2.0-7.0-1.12","63fba157c9ebcb0ba6397872","A3","batch1","","1046","stim/yes_55_hor_w1_w.png","f","pattern_response","true","f","pattern_75","1046","true","50","","","","","","","","","","","","","","","","","","",""
"","","","","","html-keyboard-response","126","296349","0.0-2.0-7.0-0.13","63fba157c9ebcb0ba6397872","A3","batch1","","null","<p class=block-text>Trial 53 out of 78</p>","null","pattern_show_trial_num","","","","","","","","","","","","","","","","","","","","","","","","",""
"","","","","","image-keyboard-response","127","302592","0.0-2.0-7.0-1.13","63fba157c9ebcb0ba6397872","A3","batch1","","6241.800000011921","stim/no_55_1_w.png","j","pattern_response","true","j","pattern_34","6241.800000011921","true","51","","","","","","","","","","","","","","","","","","",""
"","","","","","html-keyboard-response","128","303910","0.0-2.0-7.0-0.14","63fba157c9ebcb0ba6397872","A3","batch1","","null","<p class=block-text>Trial 54 out of 78</p>","null","pattern_show_trial_num","","","","","","","","","","","","","","","","","","","","","","","","",""
"","","","","","image-keyboard-response","129","307636","0.0-2.0-7.0-1.14","63fba157c9ebcb0ba6397872","A3","batch1","","3724.5","stim/no_42_1_w.png","j","pattern_response","true","j","pattern_22","3724.5","true","52","","","","","","","","","","","","","","","","","","",""
"","","","","","html-keyboard-response","130","308960","0.0-2.0-7.0-0.15","63fba157c9ebcb0ba6397872","A3","batch1","","null","<p class=block-text>Trial 55 out of 78</p>","null","pattern_show_trial_num","","","","","","","","","","","","","","","","","","","","","","","","",""
"","","","","","image-keyboard-response","131","311168","0.0-2.0-7.0-1.15","63fba157c9ebcb0ba6397872","A3","batch1","","2205.800000011921","stim/yes_31_hor_b1.png","f","pattern_response","true","f","pattern_55","2205.800000011921","true","53","","","","","","","","","","","","","","","","","","",""
"","","","","","html-keyboard-response","132","312482","0.0-2.0-7.0-0.16","63fba157c9ebcb0ba6397872","A3","batch1","","null","<p class=block-text>Trial 56 out of 78</p>","null","pattern_show_trial_num","","","","","","","","","","","","","","","","","","","","","","","","",""
"","","","","","image-keyboard-response","133","315295","0.0-2.0-7.0-1.16","63fba157c9ebcb0ba6397872","A3","batch1","","2812.099999964237","stim/yes_48_dia_w1_w.png","f","pattern_response","true","f","pattern_69","2812.099999964237","true","54","","","","","","","","","","","","","","","","","","",""
"","","","","","html-keyboard-response","134","316610","0.0-2.0-7.0-0.17","63fba157c9ebcb0ba6397872","A3","batch1","","null","<p class=block-text>Trial 57 out of 78</p>","null","pattern_show_trial_num","","","","","","","","","","","","","","","","","","","","","","","","",""
"","","","","","image-keyboard-response","135","323143","0.0-2.0-7.0-1.17","63fba157c9ebcb0ba6397872","A3","batch1","","6531.5","stim/no_70_2.png","j","pattern_response","true","j","pattern_40","6531.5","true","55","","","","","","","","","","","","","","","","","","",""
"","","","","","html-keyboard-response","136","324461","0.0-2.0-7.0-0.18","63fba157c9ebcb0ba6397872","A3","batch1","","null","<p class=block-text>Trial 58 out of 78</p>","null","pattern_show_trial_num","","","","","","","","","","","","","","","","","","","","","","","","",""
"","","","","","image-keyboard-response","137","326094","0.0-2.0-7.0-1.18","63fba157c9ebcb0ba6397872","A3","batch1","","1630.800000011921","stim/yes_35_dia_b1.png","f","pattern_response","true","f","pattern_57","1630.800000011921","true","56","","","","","","","","","","","","","","","","","","",""
"","","","","","html-keyboard-response","138","327398","0.0-2.0-7.0-0.19","63fba157c9ebcb0ba6397872","A3","batch1","","null","<p class=block-text>Trial 59 out of 78</p>","null","pattern_show_trial_num","","","","","","","","","","","","","","","","","","","","","","","","",""
"","","","","","image-keyboard-response","139","328462","0.0-2.0-7.0-1.19","63fba157c9ebcb0ba6397872","A3","batch1","","1062.199999988079","stim/yes_17_dia_w1.png","f","pattern_response","true","f","pattern_45","1062.199999988079","true","57","","","","","","","","","","","","","","","","","","",""
"","","","","","html-keyboard-response","140","329776","0.0-2.0-7.0-0.20","63fba157c9ebcb0ba6397872","A3","batch1","","null","<p class=block-text>Trial 60 out of 78</p>","null","pattern_show_trial_num","","","","","","","","","","","","","","","","","","","","","","","","",""
"","","","","","image-keyboard-response","141","332644","0.0-2.0-7.0-1.20","63fba157c9ebcb0ba6397872","A3","batch1","","2866.400000035763","stim/yes_40_dia_b1_b.png","f","pattern_response","true","f","pattern_63","2866.400000035763","true","58","","","","","","","","","","","","","","","","","","",""
"","","","","","html-keyboard-response","142","333966","0.0-2.0-7.0-0.21","63fba157c9ebcb0ba6397872","A3","batch1","","null","<p class=block-text>Trial 61 out of 78</p>","null","pattern_show_trial_num","","","","","","","","","","","","","","","","","","","","","","","","",""
"","","","","","image-keyboard-response","143","336423","0.0-2.0-7.0-1.21","63fba157c9ebcb0ba6397872","A3","batch1","","2455.199999988079","stim/no_23_1.png","j","pattern_response","true","j","pattern_08","2455.199999988079","true","59","","","","","","","","","","","","","","","","","","",""
"","","","","","html-keyboard-response","144","337734","0.0-2.0-7.0-0.22","63fba157c9ebcb0ba6397872","A3","batch1","","null","<p class=block-text>Trial 62 out of 78</p>","null","pattern_show_trial_num","","","","","","","","","","","","","","","","","","","","","","","","",""
"","","","","","image-keyboard-response","145","344257","0.0-2.0-7.0-1.22","63fba157c9ebcb0ba6397872","A3","batch1","","6521","stim/yes_50_dia_w1.png","j","pattern_response","false","f","pattern_71","6521","false","59","","","","","","","","","","","","","","","","","","",""
"","","","","","html-keyboard-response","146","345576","0.0-2.0-7.0-0.23","63fba157c9ebcb0ba6397872","A3","batch1","","null","<p class=block-text>Trial 63 out of 78</p>","null","pattern_show_trial_num","","","","","","","","","","","","","","","","","","","","","","","","",""
"","","","","","image-keyboard-response","147","349138","0.0-2.0-7.0-1.23","63fba157c9ebcb0ba6397872","A3","batch1","","3559.800000011921","stim/no_29_1_b.png","j","pattern_response","true","j","pattern_12","3559.800000011921","true","60","","","","","","","","","","","","","","","","","","",""
"","","","","","html-keyboard-response","148","350459","0.0-2.0-7.0-0.24","63fba157c9ebcb0ba6397872","A3","batch1","","null","<p class=block-text>Trial 64 out of 78</p>","null","pattern_show_trial_num","","","","","","","","","","","","","","","","","","","","","","","","",""
"","","","","","image-keyboard-response","149","356397","0.0-2.0-7.0-1.24","63fba157c9ebcb0ba6397872","A3","batch1","","5936","stim/yes_67_hor_b1.png","f","pattern_response","true","f","pattern_79","5936","true","61","","","","","","","","","","","","","","","","","","",""
"","","","","","html-keyboard-response","150","357726","0.0-2.0-7.0-0.25","63fba157c9ebcb0ba6397872","A3","batch1","","null","<p class=block-text>Trial 65 out of 78</p>","null","pattern_show_trial_num","","","","","","","","","","","","","","","","","","","","","","","","",""
"","","","","","image-keyboard-response","151","365604","0.0-2.0-7.0-1.25","63fba157c9ebcb0ba6397872","A3","batch1","","7875.5","stim/no_48_1_w.png","j","pattern_response","true","j","pattern_28","7875.5","true","62","","","","","","","","","","","","","","","","","","",""
"","","","","","html-keyboard-response","152","366916","0.0-2.0-7.0-0.26","63fba157c9ebcb0ba6397872","A3","batch1","","null","<p class=block-text>Trial 66 out of 78</p>","null","pattern_show_trial_num","","","","","","","","","","","","","","","","","","","","","","","","",""
"","","","","","image-keyboard-response","153","367738","0.0-2.0-7.0-1.26","63fba157c9ebcb0ba6397872","A3","batch1","","821.1000000238419","stim/yes_14_hor_b1_w.png","f","pattern_response","true","f","pattern_43","821.1000000238419","true","63","","","","","","","","","","","","","","","","","","",""
"","","","","","html-keyboard-response","154","369076","0.0-2.0-7.0-0.27","63fba157c9ebcb0ba6397872","A3","batch1","","null","<p class=block-text>Trial 67 out of 78</p>","null","pattern_show_trial_num","","","","","","","","","","","","","","","","","","","","","","","","",""
"","","","","","image-keyboard-response","155","377766","0.0-2.0-7.0-1.27","63fba157c9ebcb0ba6397872","A3","batch1","","8689.5","stim/no_62_1_w.png","j","pattern_response","true","j","pattern_36","8689.5","true","64","","","","","","","","","","","","","","","","","","",""
"","","","","","html-keyboard-response","156","379080","0.0-2.0-7.0-0.28","63fba157c9ebcb0ba6397872","A3","batch1","","null","<p class=block-text>Trial 68 out of 78</p>","null","pattern_show_trial_num","","","","","","","","","","","","","","","","","","","","","","","","",""
"","","","","","image-keyboard-response","157","379915","0.0-2.0-7.0-1.28","63fba157c9ebcb0ba6397872","A3","batch1","","833.5","stim/yes_28_ver_b1.png","f","pattern_response","true","f","pattern_51","833.5","true","65","","","","","","","","","","","","","","","","","","",""
"","","","","","html-keyboard-response","158","381220","0.0-2.0-7.0-0.29","63fba157c9ebcb0ba6397872","A3","batch1","","null","<p class=block-text>Trial 69 out of 78</p>","null","pattern_show_trial_num","","","","","","","","","","","","","","","","","","","","","","","","",""
"","","","","","image-keyboard-response","159","381862","0.0-2.0-7.0-1.29","63fba157c9ebcb0ba6397872","A3","batch1","","639.5","stim/yes_25_hor_b1_b.png","f","pattern_response","true","f","pattern_49","639.5","true","66","","","","","","","","","","","","","","","","","","",""
"","","","","","html-keyboard-response","160","383178","0.0-2.0-7.0-0.30","63fba157c9ebcb0ba6397872","A3","batch1","","null","<p class=block-text>Trial 70 out of 78</p>","null","pattern_show_trial_num","","","","","","","","","","","","","","","","","","","","","","","","",""
"","","","","","image-keyboard-response","161","388343","0.0-2.0-7.0-1.30","63fba157c9ebcb0ba6397872","A3","batch1","","5163.300000011921","stim/no_46_1_b.png","j","pattern_response","true","j","pattern_26","5163.300000011921","true","67","","","","","","","","","","","","","","","","","","",""
"","","","","","html-keyboard-response","162","389664","0.0-2.0-7.0-0.31","63fba157c9ebcb0ba6397872","A3","batch1","","null","<p class=block-text>Trial 71 out of 78</p>","null","pattern_show_trial_num","","","","","","","","","","","","","","","","","","","","","","","","",""
"","","","","","image-keyboard-response","163","391410","0.0-2.0-7.0-1.31","63fba157c9ebcb0ba6397872","A3","batch1","","1744.300000011921","stim/yes_29_ver_w1.png","f","pattern_response","true","f","pattern_53","1744.300000011921","true","68","","","","","","","","","","","","","","","","","","",""
"","","","","","html-keyboard-response","164","392729","0.0-2.0-7.0-0.32","63fba157c9ebcb0ba6397872","A3","batch1","","null","<p class=block-text>Trial 72 out of 78</p>","null","pattern_show_trial_num","","","","","","","","","","","","","","","","","","","","","","","","",""
"","","","","","image-keyboard-response","165","405313","0.0-2.0-7.0-1.32","63fba157c9ebcb0ba6397872","A3","batch1","","12581.800000011921","stim/no_65_1_b.png","j","pattern_response","true","j","pattern_38","12581.800000011921","true","69","","","","","","","","","","","","","","","","","","",""
"","","","","","html-keyboard-response","166","406640","0.0-2.0-7.0-0.33","63fba157c9ebcb0ba6397872","A3","batch1","","null","<p class=block-text>Trial 73 out of 78</p>","null","pattern_show_trial_num","","","","","","","","","","","","","","","","","","","","","","","","",""
"","","","","","image-keyboard-response","167","408359","0.0-2.0-7.0-1.33","63fba157c9ebcb0ba6397872","A3","batch1","","1717.4000000357628","stim/yes_45_hor_b2_b.png","f","pattern_response","true","f","pattern_67","1717.4000000357628","true","70","","","","","","","","","","","","","","","","","","",""
"","","","","","html-keyboard-response","168","409683","0.0-2.0-7.0-0.34","63fba157c9ebcb0ba6397872","A3","batch1","","null","<p class=block-text>Trial 74 out of 78</p>","null","pattern_show_trial_num","","","","","","","","","","","","","","","","","","","","","","","","",""
"","","","","","image-keyboard-response","169","411118","0.0-2.0-7.0-1.34","63fba157c9ebcb0ba6397872","A3","batch1","","1433.6000000238419","stim/yes_60_ver_b1_b.png","f","pattern_response","true","f","pattern_77","1433.6000000238419","true","71","","","","","","","","","","","","","","","","","","",""
"","","","","","html-keyboard-response","170","412446","0.0-2.0-7.0-0.35","63fba157c9ebcb0ba6397872","A3","batch1","","null","<p class=block-text>Trial 75 out of 78</p>","null","pattern_show_trial_num","","","","","","","","","","","","","","","","","","","","","","","","",""
"","","","","","image-keyboard-response","171","417629","0.0-2.0-7.0-1.35","63fba157c9ebcb0ba6397872","A3","batch1","","5181.599999964237","stim/no_50_1.png","j","pattern_response","true","j","pattern_30","5181.599999964237","true","72","","","","","","","","","","","","","","","","","","",""
"","","","","","html-keyboard-response","172","418939","0.0-2.0-7.0-0.36","63fba157c9ebcb0ba6397872","A3","batch1","","null","<p class=block-text>Trial 76 out of 78</p>","null","pattern_show_trial_num","","","","","","","","","","","","","","","","","","","","","","","","",""
"","","","","","image-keyboard-response","173","420013","0.0-2.0-7.0-1.36","63fba157c9ebcb0ba6397872","A3","batch1","","1072.1000000238419","stim/yes_52_ver_w1.png","f","pattern_response","true","f","pattern_73","1072.1000000238419","true","73","","","","","","","","","","","","","","","","","","",""
"","","","","","html-keyboard-response","174","421352","0.0-2.0-7.0-0.37","63fba157c9ebcb0ba6397872","A3","batch1","","null","<p class=block-text>Trial 77 out of 78</p>","null","pattern_show_trial_num","","","","","","","","","","","","","","","","","","","","","","","","",""
"","","","","","image-keyboard-response","175","426591","0.0-2.0-7.0-1.37","63fba157c9ebcb0ba6397872","A3","batch1","","5237.699999988079","stim/no_44_1.png","j","pattern_response","true","j","pattern_24","5237.699999988079","true","74","","","","","","","","","","","","","","","","","","",""
"","","","","","html-keyboard-response","176","427902","0.0-2.0-7.0-0.38","63fba157c9ebcb0ba6397872","A3","batch1","","null","<p class=block-text>Trial 78 out of 78</p>","null","pattern_show_trial_num","","","","","","","","","","","","","","","","","","","","","","","","",""
"","","","","","image-keyboard-response","177","428851","0.0-2.0-7.0-1.38","63fba157c9ebcb0ba6397872","A3","batch1","","947.8000000119209","stim/yes_43_ver_w1_w.png","f","pattern_response","true","f","pattern_65","947.8000000119209","true","75","","","","","","","","","","","","","","","","","","",""
"","","","","","html-button-response","178","431926","0.0-2.0-8.0","63fba157c9ebcb0ba6397872","A3","batch1","","2559.900000035763","<p class = block-text>This concludes the 4-in-a-row detection game.Thank you for your responses!<br>
            You responded correctly on 96% of the trials.<br>
            When you are ready, press ""Continue"" button to continue </p>","0","","","","","","","","","","","","","","","","","","","","","","","","","",""
"true","","","","","fullscreen","179","434866","0.0-3.0-0.0","63fba157c9ebcb0ba6397872","A3","batch1","","","","","spm_fullscreen","","","","","","","","","","","","","","","","","","","","","","","","",""
"","","","","","html-button-response","180","442662","0.0-3.0-1.0","63fba157c9ebcb0ba6397872","A3","batch1","","7791.699999988079","<p class = block-text><b>Instructions</b> <br>This is a widely used intelligence test in research. <br>In this test, a figure with a missing piece will be presented.<br>Below the figure are alternative pieces to complete the figure, only one of which is correct.<br> Different figures might involve different principles for obtaining the missing piece<br>Your job is to select the most logical piece to complete the figure.</p>","0","","","","","","","","","","","","","","","","","","","","","","","","","",""
"","","","","","html-keyboard-response","181","443470","0.0-3.0-2.0-0.0","63fba157c9ebcb0ba6397872","A3","batch1","","null","<p class=block-text>Trial 1 out of 60</p>","null","spm_show_trial_num","","","","","","","","","","","","","","","","","","","","","","","","",""
"","","","","","image-button-response","182","449868","0.0-3.0-2.0-1.0","63fba157c9ebcb0ba6397872","A3","batch1","","6395.300000011921","img/question_1_1.jpeg","3","spm_respsonse","1","4","mat_01","","","","","","1","6395.300000011921","","","","","","","","","","","","","","",""
"","","","","","html-keyboard-response","183","450940","0.0-3.0-2.0-0.1","63fba157c9ebcb0ba6397872","A3","batch1","","null","<p class=block-text>Trial 2 out of 60</p>","null","spm_show_trial_num","","","","","","","","","","","","","","","","","","","","","","","","",""
"","","","","","image-button-response","184","454448","0.0-3.0-2.0-1.1","63fba157c9ebcb0ba6397872","A3","batch1","","3505.300000011921","img/question_1_2.jpeg","4","spm_respsonse","1","5","mat_02","","","","","","1","3505.300000011921","","","","","","","","","","","","","","",""
"","","","","","html-keyboard-response","185","455531","0.0-3.0-2.0-0.2","63fba157c9ebcb0ba6397872","A3","batch1","","null","<p class=block-text>Trial 3 out of 60</p>","null","spm_show_trial_num","","","","","","","","","","","","","","","","","","","","","","","","",""
"","","","","","image-button-response","186","458302","0.0-3.0-2.0-1.2","63fba157c9ebcb0ba6397872","A3","batch1","","2768.7999999523163","img/question_1_3.jpeg","0","spm_respsonse","1","1","mat_03","","","","","","1","2768.7999999523163","","","","","","","","","","","","","","",""
"","","","","","html-keyboard-response","187","459358","0.0-3.0-2.0-0.3","63fba157c9ebcb0ba6397872","A3","batch1","","null","<p class=block-text>Trial 4 out of 60</p>","null","spm_show_trial_num","","","","","","","","","","","","","","","","","","","","","","","","",""
"","","","","","image-button-response","188","461583","0.0-3.0-2.0-1.3","63fba157c9ebcb0ba6397872","A3","batch1","","2223.400000035763","img/question_1_4.jpeg","1","spm_respsonse","1","2","mat_04","","","","","","1","2223.400000035763","","","","","","","","","","","","","","",""
"","","","","","html-keyboard-response","189","462647","0.0-3.0-2.0-0.4","63fba157c9ebcb0ba6397872","A3","batch1","","null","<p class=block-text>Trial 5 out of 60</p>","null","spm_show_trial_num","","","","","","","","","","","","","","","","","","","","","","","","",""
"","","","","","image-button-response","190","466507","0.0-3.0-2.0-1.4","63fba157c9ebcb0ba6397872","A3","batch1","","3857.5","img/question_1_5.jpeg","5","spm_respsonse","1","6","mat_05","","","","","","1","3857.5","","","","","","","","","","","","","","",""
"","","","","","html-keyboard-response","191","467580","0.0-3.0-2.0-0.5","63fba157c9ebcb0ba6397872","A3","batch1","","null","<p class=block-text>Trial 6 out of 60</p>","null","spm_show_trial_num","","","","","","","","","","","","","","","","","","","","","","","","",""
"","","","","","image-button-response","192","470242","0.0-3.0-2.0-1.5","63fba157c9ebcb0ba6397872","A3","batch1","","2659.600000023842","img/question_1_6.jpeg","2","spm_respsonse","1","3","mat_06","","","","","","1","2659.600000023842","","","","","","","","","","","","","","",""
"","","","","","html-keyboard-response","193","471308","0.0-3.0-2.0-0.6","63fba157c9ebcb0ba6397872","A3","batch1","","null","<p class=block-text>Trial 7 out of 60</p>","null","spm_show_trial_num","","","","","","","","","","","","","","","","","","","","","","","","",""
"","","","","","image-button-response","194","475539","0.0-3.0-2.0-1.6","63fba157c9ebcb0ba6397872","A3","batch1","","4228.800000011921","img/question_1_7.jpeg","5","spm_respsonse","1","6","mat_07","","","","","","1","4228.800000011921","","","","","","","","","","","","","","",""
"","","","","","html-keyboard-response","195","476608","0.0-3.0-2.0-0.7","63fba157c9ebcb0ba6397872","A3","batch1","","null","<p class=block-text>Trial 8 out of 60</p>","null","spm_show_trial_num","","","","","","","","","","","","","","","","","","","","","","","","",""
"","","","","","image-button-response","196","481926","0.0-3.0-2.0-1.7","63fba157c9ebcb0ba6397872","A3","batch1","","5315.900000035763","img/question_1_8.jpeg","1","spm_respsonse","1","2","mat_08","","","","","","1","5315.900000035763","","","","","","","","","","","","","","",""
"","","","","","html-keyboard-response","197","483002","0.0-3.0-2.0-0.8","63fba157c9ebcb0ba6397872","A3","batch1","","null","<p class=block-text>Trial 9 out of 60</p>","null","spm_show_trial_num","","","","","","","","","","","","","","","","","","","","","","","","",""
"","","","","","image-button-response","198","485790","0.0-3.0-2.0-1.8","63fba157c9ebcb0ba6397872","A3","batch1","","2787.2000000476837","img/question_1_9.jpeg","0","spm_respsonse","1","1","mat_09","","","","","","1","2787.2000000476837","","","","","","","","","","","","","","",""
"","","","","","html-keyboard-response","199","486867","0.0-3.0-2.0-0.9","63fba157c9ebcb0ba6397872","A3","batch1","","null","<p class=block-text>Trial 10 out of 60</p>","null","spm_show_trial_num","","","","","","","","","","","","","","","","","","","","","","","","",""
"","","","","","image-button-response","200","491745","0.0-3.0-2.0-1.9","63fba157c9ebcb0ba6397872","A3","batch1","","4876.199999988079","img/question_1_10.jpeg","2","spm_respsonse","1","3","mat_10","","","","","","1","4876.199999988079","","","","","","","","","","","","","","",""
"","","","","","html-keyboard-response","201","492815","0.0-3.0-2.0-0.10","63fba157c9ebcb0ba6397872","A3","batch1","","null","<p class=block-text>Trial 11 out of 60</p>","null","spm_show_trial_num","","","","","","","","","","","","","","","","","","","","","","","","",""
"","","","","","image-button-response","202","498980","0.0-3.0-2.0-1.10","63fba157c9ebcb0ba6397872","A3","batch1","","6162.600000023842","img/question_1_11.jpeg","3","spm_respsonse","1","4","mat_11","","","","","","1","6162.600000023842","","","","","","","","","","","","","","",""
"","","","","","html-keyboard-response","203","500049","0.0-3.0-2.0-0.11","63fba157c9ebcb0ba6397872","A3","batch1","","null","<p class=block-text>Trial 12 out of 60</p>","null","spm_show_trial_num","","","","","","","","","","","","","","","","","","","","","","","","",""
"","","","","","image-button-response","204","509471","0.0-3.0-2.0-1.11","63fba157c9ebcb0ba6397872","A3","batch1","","9420.600000023842","img/question_1_12.jpeg","0","spm_respsonse","0","5","mat_12","","","","","","0","9420.600000023842","","","","","","","","","","","","","","",""
"","","","","","html-keyboard-response","205","510540","0.0-3.0-2.0-0.12","63fba157c9ebcb0ba6397872","A3","batch1","","null","<p class=block-text>Trial 13 out of 60</p>","null","spm_show_trial_num","","","","","","","","","","","","","","","","","","","","","","","","",""
"","","","","","image-button-response","206","512771","0.0-3.0-2.0-1.12","63fba157c9ebcb0ba6397872","A3","batch1","","2228.5","img/question_2_1.jpeg","1","spm_respsonse","1","2","mat_13","","","","","","1","2228.5","","","","","","","","","","","","","","",""
"","","","","","html-keyboard-response","207","513857","0.0-3.0-2.0-0.13","63fba157c9ebcb0ba6397872","A3","batch1","","null","<p class=block-text>Trial 14 out of 60</p>","null","spm_show_trial_num","","","","","","","","","","","","","","","","","","","","","","","","",""
"","","","","","image-button-response","208","518389","0.0-3.0-2.0-1.13","63fba157c9ebcb0ba6397872","A3","batch1","","4530.100000023842","img/question_2_2.jpeg","5","spm_respsonse","1","6","mat_14","","","","","","1","4530.100000023842","","","","","","","","","","","","","","",""
"","","","","","html-keyboard-response","209","519463","0.0-3.0-2.0-0.14","63fba157c9ebcb0ba6397872","A3","batch1","","null","<p class=block-text>Trial 15 out of 60</p>","null","spm_show_trial_num","","","","","","","","","","","","","","","","","","","","","","","","",""
"","","","","","image-button-response","210","522237","0.0-3.0-2.0-1.14","63fba157c9ebcb0ba6397872","A3","batch1","","2771.600000023842","img/question_2_3.jpeg","1","spm_respsonse","0","1","mat_15","","","","","","0","2771.600000023842","","","","","","","","","","","","","","",""
"","","","","","html-keyboard-response","211","523314","0.0-3.0-2.0-0.15","63fba157c9ebcb0ba6397872","A3","batch1","","null","<p class=block-text>Trial 16 out of 60</p>","null","spm_show_trial_num","","","","","","","","","","","","","","","","","","","","","","","","",""
"","","","","","image-button-response","212","526304","0.0-3.0-2.0-1.15","63fba157c9ebcb0ba6397872","A3","batch1","","2988.599999964237","img/question_2_4.jpeg","1","spm_respsonse","1","2","mat_16","","","","","","1","2988.599999964237","","","","","","","","","","","","","","",""
"","","","","","html-keyboard-response","213","527374","0.0-3.0-2.0-0.16","63fba157c9ebcb0ba6397872","A3","batch1","","null","<p class=block-text>Trial 17 out of 60</p>","null","spm_show_trial_num","","","","","","","","","","","","","","","","","","","","","","","","",""
"","","","","","image-button-response","214","530988","0.0-3.0-2.0-1.16","63fba157c9ebcb0ba6397872","A3","batch1","","3612.199999988079","img/question_2_5.jpeg","0","spm_respsonse","1","1","mat_17","","","","","","1","3612.199999988079","","","","","","","","","","","","","","",""
"","","","","","html-keyboard-response","215","532057","0.0-3.0-2.0-0.17","63fba157c9ebcb0ba6397872","A3","batch1","","null","<p class=block-text>Trial 18 out of 60</p>","null","spm_show_trial_num","","","","","","","","","","","","","","","","","","","","","","","","",""
"","","","","","image-button-response","216","537842","0.0-3.0-2.0-1.17","63fba157c9ebcb0ba6397872","A3","batch1","","5783.099999964237","img/question_2_6.jpeg","2","spm_respsonse","1","3","mat_18","","","","","","1","5783.099999964237","","","","","","","","","","","","","","",""
"","","","","","html-keyboard-response","217","538905","0.0-3.0-2.0-0.18","63fba157c9ebcb0ba6397872","A3","batch1","","null","<p class=block-text>Trial 19 out of 60</p>","null","spm_show_trial_num","","","","","","","","","","","","","","","","","","","","","","","","",""
"","","","","","image-button-response","218","542903","0.0-3.0-2.0-1.18","63fba157c9ebcb0ba6397872","A3","batch1","","3995.900000035763","img/question_2_7.jpeg","4","spm_respsonse","1","5","mat_19","","","","","","1","3995.900000035763","","","","","","","","","","","","","","",""
"","","","","","html-keyboard-response","219","543974","0.0-3.0-2.0-0.19","63fba157c9ebcb0ba6397872","A3","batch1","","null","<p class=block-text>Trial 20 out of 60</p>","null","spm_show_trial_num","","","","","","","","","","","","","","","","","","","","","","","","",""
"","","","","","image-button-response","220","549040","0.0-3.0-2.0-1.19","63fba157c9ebcb0ba6397872","A3","batch1","","5063.399999976158","img/question_2_8.jpeg","5","spm_respsonse","1","6","mat_20","","","","","","1","5063.399999976158","","","","","","","","","","","","","","",""
"","","","","","html-keyboard-response","221","550114","0.0-3.0-2.0-0.20","63fba157c9ebcb0ba6397872","A3","batch1","","null","<p class=block-text>Trial 21 out of 60</p>","null","spm_show_trial_num","","","","","","","","","","","","","","","","","","","","","","","","",""
"","","","","","image-button-response","222","557555","0.0-3.0-2.0-1.20","63fba157c9ebcb0ba6397872","A3","batch1","","7438.5","img/question_2_9.jpeg","3","spm_respsonse","1","4","mat_21","","","","","","1","7438.5","","","","","","","","","","","","","","",""
"","","","","","html-keyboard-response","223","558624","0.0-3.0-2.0-0.21","63fba157c9ebcb0ba6397872","A3","batch1","","null","<p class=block-text>Trial 22 out of 60</p>","null","spm_show_trial_num","","","","","","","","","","","","","","","","","","","","","","","","",""
"","","","","","image-button-response","224","567303","0.0-3.0-2.0-1.21","63fba157c9ebcb0ba6397872","A3","batch1","","8677","img/question_2_10.jpeg","1","spm_respsonse","0","3","mat_22","","","","","","0","8677","","","","","","","","","","","","","","",""
"","","","","","html-keyboard-response","225","568379","0.0-3.0-2.0-0.22","63fba157c9ebcb0ba6397872","A3","batch1","","null","<p class=block-text>Trial 23 out of 60</p>","null","spm_show_trial_num","","","","","","","","","","","","","","","","","","","","","","","","",""
"","","","","","image-button-response","226","572654","0.0-3.0-2.0-1.22","63fba157c9ebcb0ba6397872","A3","batch1","","4273.199999988079","img/question_2_11.jpeg","3","spm_respsonse","1","4","mat_23","","","","","","1","4273.199999988079","","","","","","","","","","","","","","",""
"","","","","","html-keyboard-response","227","573726","0.0-3.0-2.0-0.23","63fba157c9ebcb0ba6397872","A3","batch1","","null","<p class=block-text>Trial 24 out of 60</p>","null","spm_show_trial_num","","","","","","","","","","","","","","","","","","","","","","","","",""
"","","","","","image-button-response","228","584521","0.0-3.0-2.0-1.23","63fba157c9ebcb0ba6397872","A3","batch1","","10793.199999988079","img/question_2_12.jpeg","1","spm_respsonse","0","5","mat_24","","","","","","0","10793.199999988079","","","","","","","","","","","","","","",""
"","","","","","html-button-response","229","586505","0.0-3.0-3.0","63fba157c9ebcb0ba6397872","A3","batch1","","1721.3999999761581","<p class = block-text>Attention check: Please choose 1<br></p>","0","attention_check","true","","","","","","","","","","","","","","","","","","","","","","","",""
"","","","","","html-keyboard-response","230","587308","0.0-3.0-4.0-0.0","63fba157c9ebcb0ba6397872","A3","batch1","","null","<p class=block-text>Trial 25 out of 60</p>","null","spm_show_trial_num","","","","","","","","","","","","","","","","","","","","","","","","",""
"","","","","","image-button-response","231","590503","0.0-3.0-4.0-1.0","63fba157c9ebcb0ba6397872","A3","batch1","","3193.099999964237","img/question_3_1.jpeg","7","spm_respsonse","1","8","mat_25","","","","","","1","3193.099999964237","","","","","","","","","","","","","","",""
"","","","","","html-keyboard-response","232","591574","0.0-3.0-4.0-0.1","63fba157c9ebcb0ba6397872","A3","batch1","","null","<p class=block-text>Trial 26 out of 60</p>","null","spm_show_trial_num","","","","","","","","","","","","","","","","","","","","","","","","",""
"","","","","","image-button-response","233","595276","0.0-3.0-4.0-1.1","63fba157c9ebcb0ba6397872","A3","batch1","","3700","img/question_3_2.jpeg","1","spm_respsonse","1","2","mat_26","","","","","","1","3700","","","","","","","","","","","","","","",""
"","","","","","html-keyboard-response","234","596349","0.0-3.0-4.0-0.2","63fba157c9ebcb0ba6397872","A3","batch1","","null","<p class=block-text>Trial 27 out of 60</p>","null","spm_show_trial_num","","","","","","","","","","","","","","","","","","","","","","","","",""
"","","","","","image-button-response","235","606938","0.0-3.0-4.0-1.2","63fba157c9ebcb0ba6397872","A3","batch1","","10586.5","img/question_3_3.jpeg","2","spm_respsonse","1","3","mat_27","","","","","","1","10586.5","","","","","","","","","","","","","","",""
"","","","","","html-keyboard-response","236","608006","0.0-3.0-4.0-0.3","63fba157c9ebcb0ba6397872","A3","batch1","","null","<p class=block-text>Trial 28 out of 60</p>","null","spm_show_trial_num","","","","","","","","","","","","","","","","","","","","","","","","",""
"","","","","","image-button-response","237","619792","0.0-3.0-4.0-1.3","63fba157c9ebcb0ba6397872","A3","batch1","","11784","img/question_3_4.jpeg","7","spm_respsonse","1","8","mat_28","","","","","","1","11784","","","","","","","","","","","","","","",""
"","","","","","html-keyboard-response","238","620862","0.0-3.0-4.0-0.4","63fba157c9ebcb0ba6397872","A3","batch1","","null","<p class=block-text>Trial 29 out of 60</p>","null","spm_show_trial_num","","","","","","","","","","","","","","","","","","","","","","","","",""
"","","","","","image-button-response","239","628401","0.0-3.0-4.0-1.4","63fba157c9ebcb0ba6397872","A3","batch1","","7537.200000047684","img/question_3_5.jpeg","6","spm_respsonse","1","7","mat_29","","","","","","1","7537.200000047684","","","","","","","","","","","","","","",""
"","","","","","html-keyboard-response","240","629475","0.0-3.0-4.0-0.5","63fba157c9ebcb0ba6397872","A3","batch1","","null","<p class=block-text>Trial 30 out of 60</p>","null","spm_show_trial_num","","","","","","","","","","","","","","","","","","","","","","","","",""
"","","","","","image-button-response","241","632820","0.0-3.0-4.0-1.5","63fba157c9ebcb0ba6397872","A3","batch1","","3342.199999988079","img/question_3_6.jpeg","3","spm_respsonse","1","4","mat_30","","","","","","1","3342.199999988079","","","","","","","","","","","","","","",""
"","","","","","html-keyboard-response","242","633888","0.0-3.0-4.0-0.6","63fba157c9ebcb0ba6397872","A3","batch1","","null","<p class=block-text>Trial 31 out of 60</p>","null","spm_show_trial_num","","","","","","","","","","","","","","","","","","","","","","","","",""
"","","","","","image-button-response","243","638903","0.0-3.0-4.0-1.6","63fba157c9ebcb0ba6397872","A3","batch1","","5013.100000023842","img/question_3_7.jpeg","4","spm_respsonse","1","5","mat_31","","","","","","1","5013.100000023842","","","","","","","","","","","","","","",""
"","","","","","html-keyboard-response","244","639977","0.0-3.0-4.0-0.7","63fba157c9ebcb0ba6397872","A3","batch1","","null","<p class=block-text>Trial 32 out of 60</p>","null","spm_show_trial_num","","","","","","","","","","","","","","","","","","","","","","","","",""
"","","","","","image-button-response","245","644671","0.0-3.0-4.0-1.7","63fba157c9ebcb0ba6397872","A3","batch1","","4691.199999988079","img/question_3_8.jpeg","0","spm_respsonse","1","1","mat_32","","","","","","1","4691.199999988079","","","","","","","","","","","","","","",""
"","","","","","html-keyboard-response","246","645737","0.0-3.0-4.0-0.8","63fba157c9ebcb0ba6397872","A3","batch1","","null","<p class=block-text>Trial 33 out of 60</p>","null","spm_show_trial_num","","","","","","","","","","","","","","","","","","","","","","","","",""
"","","","","","image-button-response","247","653003","0.0-3.0-4.0-1.8","63fba157c9ebcb0ba6397872","A3","batch1","","7263.800000011921","img/question_3_9.jpeg","6","spm_respsonse","1","7","mat_33","","","","","","1","7263.800000011921","","","","","","","","","","","","","","",""
"","","","","","html-keyboard-response","248","654061","0.0-3.0-4.0-0.9","63fba157c9ebcb0ba6397872","A3","batch1","","null","<p class=block-text>Trial 34 out of 60</p>","null","spm_show_trial_num","","","","","","","","","","","","","","","","","","","","","","","","",""
"","","","","","image-button-response","249","669186","0.0-3.0-4.0-1.9","63fba157c9ebcb0ba6397872","A3","batch1","","15122.899999976158","img/question_3_10.jpeg","7","spm_respsonse","0","6","mat_34","","","","","","0","15122.899999976158","","","","","","","","","","","","","","",""
"","","","","","html-keyboard-response","250","670245","0.0-3.0-4.0-0.10","63fba157c9ebcb0ba6397872","A3","batch1","","null","<p class=block-text>Trial 35 out of 60</p>","null","spm_show_trial_num","","","","","","","","","","","","","","","","","","","","","","","","",""
"","","","","","image-button-response","251","685320","0.0-3.0-4.0-1.10","63fba157c9ebcb0ba6397872","A3","batch1","","15072.800000011921","img/question_3_11.jpeg","4","spm_respsonse","0","1","mat_35","","","","","","0","15072.800000011921","","","","","","","","","","","","","","",""
"","","","","","html-keyboard-response","252","686394","0.0-3.0-4.0-0.11","63fba157c9ebcb0ba6397872","A3","batch1","","null","<p class=block-text>Trial 36 out of 60</p>","null","spm_show_trial_num","","","","","","","","","","","","","","","","","","","","","","","","",""
"","","","","","image-button-response","253","694317","0.0-3.0-4.0-1.11","63fba157c9ebcb0ba6397872","A3","batch1","","7920.699999988079","img/question_3_12.jpeg","0","spm_respsonse","0","2","mat_36","","","","","","0","7920.699999988079","","","","","","","","","","","","","","",""
"","","","","","html-keyboard-response","254","695385","0.0-3.0-4.0-0.12","63fba157c9ebcb0ba6397872","A3","batch1","","null","<p class=block-text>Trial 37 out of 60</p>","null","spm_show_trial_num","","","","","","","","","","","","","","","","","","","","","","","","",""
"","","","","","image-button-response","255","697670","0.0-3.0-4.0-1.12","63fba157c9ebcb0ba6397872","A3","batch1","","2282.199999988079","img/question_4_1.jpeg","2","spm_respsonse","1","3","mat_37","","","","","","1","2282.199999988079","","","","","","","","","","","","","","",""
"","","","","","html-keyboard-response","256","698748","0.0-3.0-4.0-0.13","63fba157c9ebcb0ba6397872","A3","batch1","","null","<p class=block-text>Trial 38 out of 60</p>","null","spm_show_trial_num","","","","","","","","","","","","","","","","","","","","","","","","",""
"","","","","","image-button-response","257","702503","0.0-3.0-4.0-1.13","63fba157c9ebcb0ba6397872","A3","batch1","","3753.300000011921","img/question_4_2.jpeg","3","spm_respsonse","1","4","mat_38","","","","","","1","3753.300000011921","","","","","","","","","","","","","","",""
"","","","","","html-keyboard-response","258","703566","0.0-3.0-4.0-0.14","63fba157c9ebcb0ba6397872","A3","batch1","","null","<p class=block-text>Trial 39 out of 60</p>","null","spm_show_trial_num","","","","","","","","","","","","","","","","","","","","","","","","",""
"","","","","","image-button-response","259","707585","0.0-3.0-4.0-1.14","63fba157c9ebcb0ba6397872","A3","batch1","","4017.300000011921","img/question_4_3.jpeg","2","spm_respsonse","1","3","mat_39","","","","","","1","4017.300000011921","","","","","","","","","","","","","","",""
"","","","","","html-keyboard-response","260","708655","0.0-3.0-4.0-0.15","63fba157c9ebcb0ba6397872","A3","batch1","","null","<p class=block-text>Trial 40 out of 60</p>","null","spm_show_trial_num","","","","","","","","","","","","","","","","","","","","","","","","",""
"","","","","","image-button-response","261","715181","0.0-3.0-4.0-1.15","63fba157c9ebcb0ba6397872","A3","batch1","","6524.599999964237","img/question_4_4.jpeg","6","spm_respsonse","1","7","mat_40","","","","","","1","6524.599999964237","","","","","","","","","","","","","","",""
"","","","","","html-keyboard-response","262","716239","0.0-3.0-4.0-0.16","63fba157c9ebcb0ba6397872","A3","batch1","","null","<p class=block-text>Trial 41 out of 60</p>","null","spm_show_trial_num","","","","","","","","","","","","","","","","","","","","","","","","",""
"","","","","","image-button-response","263","721267","0.0-3.0-4.0-1.16","63fba157c9ebcb0ba6397872","A3","batch1","","5026.399999976158","img/question_4_5.jpeg","7","spm_respsonse","1","8","mat_41","","","","","","1","5026.399999976158","","","","","","","","","","","","","","",""
"","","","","","html-keyboard-response","264","722346","0.0-3.0-4.0-0.17","63fba157c9ebcb0ba6397872","A3","batch1","","null","<p class=block-text>Trial 42 out of 60</p>","null","spm_show_trial_num","","","","","","","","","","","","","","","","","","","","","","","","",""
"","","","","","image-button-response","265","729117","0.0-3.0-4.0-1.17","63fba157c9ebcb0ba6397872","A3","batch1","","6770","img/question_4_6.jpeg","5","spm_respsonse","1","6","mat_42","","","","","","1","6770","","","","","","","","","","","","","","",""
"","","","","","html-keyboard-response","266","730188","0.0-3.0-4.0-0.18","63fba157c9ebcb0ba6397872","A3","batch1","","null","<p class=block-text>Trial 43 out of 60</p>","null","spm_show_trial_num","","","","","","","","","","","","","","","","","","","","","","","","",""
"","","","","","image-button-response","267","739400","0.0-3.0-4.0-1.18","63fba157c9ebcb0ba6397872","A3","batch1","","9210.5","img/question_4_7.jpeg","4","spm_respsonse","1","5","mat_43","","","","","","1","9210.5","","","","","","","","","","","","","","",""
"","","","","","html-keyboard-response","268","740483","0.0-3.0-4.0-0.19","63fba157c9ebcb0ba6397872","A3","batch1","","null","<p class=block-text>Trial 44 out of 60</p>","null","spm_show_trial_num","","","","","","","","","","","","","","","","","","","","","","","","",""
"","","","","","image-button-response","269","746401","0.0-3.0-4.0-1.19","63fba157c9ebcb0ba6397872","A3","batch1","","5915.399999976158","img/question_4_8.jpeg","3","spm_respsonse","1","4","mat_44","","","","","","1","5915.399999976158","","","","","","","","","","","","","","",""
"","","","","","html-keyboard-response","270","747472","0.0-3.0-4.0-0.20","63fba157c9ebcb0ba6397872","A3","batch1","","null","<p class=block-text>Trial 45 out of 60</p>","null","spm_show_trial_num","","","","","","","","","","","","","","","","","","","","","","","","",""
"","","","","","image-button-response","271","758467","0.0-3.0-4.0-1.20","63fba157c9ebcb0ba6397872","A3","batch1","","10992.299999952316","img/question_4_9.jpeg","0","spm_respsonse","1","1","mat_45","","","","","","1","10992.299999952316","","","","","","","","","","","","","","",""
"","","","","","html-keyboard-response","272","759527","0.0-3.0-4.0-0.21","63fba157c9ebcb0ba6397872","A3","batch1","","null","<p class=block-text>Trial 46 out of 60</p>","null","spm_show_trial_num","","","","","","","","","","","","","","","","","","","","","","","","",""
"","","","","","image-button-response","273","768403","0.0-3.0-4.0-1.21","63fba157c9ebcb0ba6397872","A3","batch1","","8873.899999976158","img/question_4_10.jpeg","6","spm_respsonse","0","2","mat_46","","","","","","0","8873.899999976158","","","","","","","","","","","","","","",""
"","","","","","html-keyboard-response","274","769473","0.0-3.0-4.0-0.22","63fba157c9ebcb0ba6397872","A3","batch1","","null","<p class=block-text>Trial 47 out of 60</p>","null","spm_show_trial_num","","","","","","","","","","","","","","","","","","","","","","","","",""
"","","","","","image-button-response","275","783249","0.0-3.0-4.0-1.22","63fba157c9ebcb0ba6397872","A3","batch1","","13773","img/question_4_11.jpeg","7","spm_respsonse","0","5","mat_47","","","","","","0","13773","","","","","","","","","","","","","","",""
"","","","","","html-keyboard-response","276","784317","0.0-3.0-4.0-0.23","63fba157c9ebcb0ba6397872","A3","batch1","","null","<p class=block-text>Trial 48 out of 60</p>","null","spm_show_trial_num","","","","","","","","","","","","","","","","","","","","","","","","",""
"","","","","","image-button-response","277","804567","0.0-3.0-4.0-1.23","63fba157c9ebcb0ba6397872","A3","batch1","","20248.100000023842","img/question_4_12.jpeg","0","spm_respsonse","0","6","mat_48","","","","","","0","20248.100000023842","","","","","","","","","","","","","","",""
"","","","","","html-keyboard-response","278","805638","0.0-3.0-4.0-0.24","63fba157c9ebcb0ba6397872","A3","batch1","","null","<p class=block-text>Trial 49 out of 60</p>","null","spm_show_trial_num","","","","","","","","","","","","","","","","","","","","","","","","",""
"","","","","","image-button-response","279","811690","0.0-3.0-4.0-1.24","63fba157c9ebcb0ba6397872","A3","batch1","","6049.800000011921","img/question_5_1.jpeg","6","spm_respsonse","1","7","mat_49","","","","","","1","6049.800000011921","","","","","","","","","","","","","","",""
"","","","","","html-keyboard-response","280","812759","0.0-3.0-4.0-0.25","63fba157c9ebcb0ba6397872","A3","batch1","","null","<p class=block-text>Trial 50 out of 60</p>","null","spm_show_trial_num","","","","","","","","","","","","","","","","","","","","","","","","",""
"","","","","","image-button-response","281","825184","0.0-3.0-4.0-1.25","63fba157c9ebcb0ba6397872","A3","batch1","","12423.5","img/question_5_2.jpeg","2","spm_respsonse","0","6","mat_50","","","","","","0","12423.5","","","","","","","","","","","","","","",""
"","","","","","html-keyboard-response","282","826242","0.0-3.0-4.0-0.26","63fba157c9ebcb0ba6397872","A3","batch1","","null","<p class=block-text>Trial 51 out of 60</p>","null","spm_show_trial_num","","","","","","","","","","","","","","","","","","","","","","","","",""
"","","","","","image-button-response","283","847950","0.0-3.0-4.0-1.26","63fba157c9ebcb0ba6397872","A3","batch1","","21705.69999998808","img/question_5_3.jpeg","7","spm_respsonse","1","8","mat_51","","","","","","1","21705.69999998808","","","","","","","","","","","","","","",""
"","","","","","html-keyboard-response","284","849033","0.0-3.0-4.0-0.27","63fba157c9ebcb0ba6397872","A3","batch1","","null","<p class=block-text>Trial 52 out of 60</p>","null","spm_show_trial_num","","","","","","","","","","","","","","","","","","","","","","","","",""
"","","","","","image-button-response","285","861901","0.0-3.0-4.0-1.27","63fba157c9ebcb0ba6397872","A3","batch1","","12865.900000035763","img/question_5_4.jpeg","2","spm_respsonse","0","2","mat_52","","","","","","0","12865.900000035763","","","","","","","","","","","","","","",""
"","","","","","html-keyboard-response","286","862960","0.0-3.0-4.0-0.28","63fba157c9ebcb0ba6397872","A3","batch1","","null","<p class=block-text>Trial 53 out of 60</p>","null","spm_show_trial_num","","","","","","","","","","","","","","","","","","","","","","","","",""
"","","","","","image-button-response","287","871835","0.0-3.0-4.0-1.28","63fba157c9ebcb0ba6397872","A3","batch1","","8873.5","img/question_5_5.jpeg","6","spm_respsonse","0","1","mat_53","","","","","","0","8873.5","","","","","","","","","","","","","","",""
"","","","","","html-keyboard-response","288","872907","0.0-3.0-4.0-0.29","63fba157c9ebcb0ba6397872","A3","batch1","","null","<p class=block-text>Trial 54 out of 60</p>","null","spm_show_trial_num","","","","","","","","","","","","","","","","","","","","","","","","",""
"","","","","","image-button-response","289","881365","0.0-3.0-4.0-1.29","63fba157c9ebcb0ba6397872","A3","batch1","","8455.5","img/question_5_6.jpeg","5","spm_respsonse","0","5","mat_54","","","","","","0","8455.5","","","","","","","","","","","","","","",""
"","","","","","html-keyboard-response","290","882442","0.0-3.0-4.0-0.30","63fba157c9ebcb0ba6397872","A3","batch1","","null","<p class=block-text>Trial 55 out of 60</p>","null","spm_show_trial_num","","","","","","","","","","","","","","","","","","","","","","","","",""
"","","","","","image-button-response","291","905137","0.0-3.0-4.0-1.30","63fba157c9ebcb0ba6397872","A3","batch1","","22692.399999976158","img/question_5_7.jpeg","5","spm_respsonse","0","1","mat_55","","","","","","0","22692.399999976158","","","","","","","","","","","","","","",""
"","","","","","html-keyboard-response","292","906206","0.0-3.0-4.0-0.31","63fba157c9ebcb0ba6397872","A3","batch1","","null","<p class=block-text>Trial 56 out of 60</p>","null","spm_show_trial_num","","","","","","","","","","","","","","","","","","","","","","","","",""
"","","","","","image-button-response","293","918348","0.0-3.0-4.0-1.31","63fba157c9ebcb0ba6397872","A3","batch1","","12138.900000035763","img/question_5_8.jpeg","3","spm_respsonse","0","6","mat_56","","","","","","0","12138.900000035763","","","","","","","","","","","","","","",""
"","","","","","html-keyboard-response","294","919418","0.0-3.0-4.0-0.32","63fba157c9ebcb0ba6397872","A3","batch1","","null","<p class=block-text>Trial 57 out of 60</p>","null","spm_show_trial_num","","","","","","","","","","","","","","","","","","","","","","","","",""
"","","","","","image-button-response","295","938982","0.0-3.0-4.0-1.32","63fba157c9ebcb0ba6397872","A3","batch1","","19561.399999976158","img/question_5_9.jpeg","2","spm_respsonse","1","3","mat_57","","","","","","1","19561.399999976158","","","","","","","","","","","","","","",""
"","","","","","html-keyboard-response","296","940051","0.0-3.0-4.0-0.33","63fba157c9ebcb0ba6397872","A3","batch1","","null","<p class=block-text>Trial 58 out of 60</p>","null","spm_show_trial_num","","","","","","","","","","","","","","","","","","","","","","","","",""
"","","","","","image-button-response","297","948705","0.0-3.0-4.0-1.33","63fba157c9ebcb0ba6397872","A3","batch1","","8654.199999988079","img/question_5_10.jpeg","3","spm_respsonse","0","2","mat_58","","","","","","0","8654.199999988079","","","","","","","","","","","","","","",""
"","","","","","html-keyboard-response","298","949768","0.0-3.0-4.0-0.34","63fba157c9ebcb0ba6397872","A3","batch1","","null","<p class=block-text>Trial 59 out of 60</p>","null","spm_show_trial_num","","","","","","","","","","","","","","","","","","","","","","","","",""
"","","","","","image-button-response","299","976027","0.0-3.0-4.0-1.34","63fba157c9ebcb0ba6397872","A3","batch1","","26257.100000023842","img/question_5_11.jpeg","6","spm_respsonse","0","4","mat_59","","","","","","0","26257.100000023842","","","","","","","","","","","","","","",""
"","","","","","html-keyboard-response","300","977090","0.0-3.0-4.0-0.35","63fba157c9ebcb0ba6397872","A3","batch1","","null","<p class=block-text>Trial 60 out of 60</p>","null","spm_show_trial_num","","","","","","","","","","","","","","","","","","","","","","","","",""
"","","","","","image-button-response","301","992926","0.0-3.0-4.0-1.35","63fba157c9ebcb0ba6397872","A3","batch1","","15834.300000011921","img/question_5_12.jpeg","1","spm_respsonse","0","5","mat_60","","","","","","0","15834.300000011921","","","","","","","","","","","","","","",""
"","","","","","html-button-response","302","995693","0.0-3.0-5.0","63fba157c9ebcb0ba6397872","A3","batch1","","2503","<p class= block-text>This concludes the Standard Progressive Matrix game. Thank you for your responses!<br> When you are ready, click the button continue</p>","0","spm_goodbye","","","","","","","","","","","","","","","","","","","","","","","","",""
"true","","","","","fullscreen","303","998983","0.0-4.0-0.0","63fba157c9ebcb0ba6397872","A3","batch1","","","","","","","","","","","","","","","","","","","","","","","","","","","","","",""
"","","","","","instructions","304","1032412","0.0-4.0-1.0-0.0-0.0","63fba157c9ebcb0ba6397872","A3","batch1","[{""page_index"":0,""viewing_time"":5491.700000047684},{""page_index"":1,""viewing_time"":4632.799999952316},{""page_index"":2,""viewing_time"":2549.300000011921},{""page_index"":3,""viewing_time"":7471.600000023842},{""page_index"":4,""viewing_time"":1779.800000011921},{""page_index"":5,""viewing_time"":8231.699999988079},{""page_index"":6,""viewing_time"":3267.699999988079}]","33425.10000002384","","","tol-instructions","","","","","","","","","","","","","","","","","","","","","","","","",""
"","","","","","html-button-response","305","1033496","0.0-4.0-1.0-1.0-0.0","63fba157c9ebcb0ba6397872","A3","batch1","","1082.699999988079","<p class=block-text> Let's answer a few questions <br>","0","tol_enter_quiz","","","","","","","","","","","","","","","","","","","","","","","","",""
"","","","","","html-button-response","306","1038034","0.0-4.0-1.0-1.0-1.0","63fba157c9ebcb0ba6397872","A3","batch1","","4536.099999964237","<p class = block-text>True or False: You can only move the ball on top of a peg. <br></p>","0","tol_quiz","true","","","","","","","","","","","","","","","","","","","","","","","",""
"","","","","","html-button-response","307","1039031","0.0-4.0-1.0-1.0-2.0","63fba157c9ebcb0ba6397872","A3","batch1","","995.5","<p class = block-text>Correct! You can only move the ball on top of a peg.</p>","0","tol_quiz_feedback","","","","","","","","","","","","","","","","","","","","","","","","",""
"","","","","","html-button-response","308","1042281","0.0-4.0-1.0-1.0-3.0","63fba157c9ebcb0ba6397872","A3","batch1","","3248.899999976158","<p class = block-text>True or False: You should try to match your board with the target board with fewest moves possible. <br></p>","0","tol_quiz","true","","","","","","","","","","","","","","","","","","","","","","","",""
"","","","","","html-button-response","309","1043216","0.0-4.0-1.0-1.0-4.0","63fba157c9ebcb0ba6397872","A3","batch1","","932.8999999761581","<p class = block-text>Correct! </p>","0","tol_quiz_feedback","","","","","","","","","","","","","","","","","","","","","","","","",""
"","","","","","html-button-response","310","1045828","0.0-4.0-2.0","63fba157c9ebcb0ba6397872","A3","batch1","","2610.199999988079","<p class=block-text> Now that you've understood the game, let's practice a few easier examples before we start!<br> <br>","0","","","","","","","","","","","","","","","","","","","","","","","","","",""
"","","","","","single-stim-button","311","1047630","0.0-4.0-3.0-0.0","63fba157c9ebcb0ba6397872","A3","batch1","","1800","","","tol_practice","","","","","","","","","","","tol_peg_2","1800","1800","0","[[1,2,0],[0,0],[0]]","1","[[1,2,0],[0,0],[3]]","practice","1800","","","","","",""
"","","","","","single-stim-button","312","1048678","0.0-4.0-3.0-1.0","63fba157c9ebcb0ba6397872","A3","batch1","","1047","","","tol_practice","","","","","","","","","","","tol_peg_3","1047","1047","0","[[1,2,0],[0,0],[3]]","1","[[1,2,0],[0,0],[3]]","practice","1047","","","","","",""
"","","","","","poldrack-single-stim","313","1049688","0.0-4.0-4.0","63fba157c9ebcb0ba6397872","A3","batch1","","-1","","","tol_feedback","true","","","","","","","","","","","1000","1000","500","","","","","","-1","none","true","","0",""
"","","","","","single-stim-button","314","1052806","0.0-4.0-5.0-0.0","63fba157c9ebcb0ba6397872","A3","batch1","","3118","","","tol_practice","","","","","","","","","","","tol_peg_1","3118","3118","0","[[1,0,0],[3,0],[0]]","2","[[0,0,0],[3,1],[2]]","practice","3118","","","","","",""
"","","","","","single-stim-button","315","1053892","0.0-4.0-5.0-1.0","63fba157c9ebcb0ba6397872","A3","batch1","","1084","","","tol_practice","","","","","","","","","","","tol_peg_3","1084","1084","0","[[1,0,0],[3,0],[2]]","2","[[0,0,0],[3,1],[2]]","practice","1084","","","","","",""
"","","","","","single-stim-button","316","1056060","0.0-4.0-5.1-0.1","63fba157c9ebcb0ba6397872","A3","batch1","","2168","","","tol_practice","","","","","","","","","","","tol_peg_1","2168","2168","0","[[0,0,0],[3,0],[2]]","3","[[0,0,0],[3,1],[2]]","practice","2168","","","","","",""
"","","","","","single-stim-button","317","1056896","0.0-4.0-5.1-1.1","63fba157c9ebcb0ba6397872","A3","batch1","","836","","","tol_practice","","","","","","","","","","","tol_peg_2","836","836","0","[[0,0,0],[3,1],[2]]","3","[[0,0,0],[3,1],[2]]","practice","836","","","","","",""
"","","","","","poldrack-single-stim","318","1057908","0.0-4.0-6.0","63fba157c9ebcb0ba6397872","A3","batch1","","-1","","","tol_feedback","true","","","","","","","","","","","1000","1000","500","","","","","","-1","none","true","","0",""
"","","","","","single-stim-button","319","1060362","0.0-4.0-7.0-0.0","63fba157c9ebcb0ba6397872","A3","batch1","","2453","","","tol_practice","","","","","","","","","","","tol_peg_2","2453","2453","0","[[1,2,0],[0,0],[0]]","4","[[1,0,0],[2,0],[3]]","practice","2453","","","","","",""
"","","","","","single-stim-button","320","1061229","0.0-4.0-7.0-1.0","63fba157c9ebcb0ba6397872","A3","batch1","","866","","","tol_practice","","","","","","","","","","","tol_peg_3","866","866","0","[[1,2,0],[0,0],[3]]","4","[[1,0,0],[2,0],[3]]","practice","866","","","","","",""
"","","","","","single-stim-button","321","1062212","0.0-4.0-7.1-0.1","63fba157c9ebcb0ba6397872","A3","batch1","","982","","","tol_practice","","","","","","","","","","","tol_peg_1","982","982","0","[[1,0,0],[0,0],[3]]","5","[[1,0,0],[2,0],[3]]","practice","982","","","","","",""
"","","","","","single-stim-button","322","1063062","0.0-4.0-7.1-1.1","63fba157c9ebcb0ba6397872","A3","batch1","","848","","","tol_practice","","","","","","","","","","","tol_peg_2","848","848","0","[[1,0,0],[2,0],[3]]","5","[[1,0,0],[2,0],[3]]","practice","848","","","","","",""
"","","","","","poldrack-single-stim","323","1064079","0.0-4.0-8.0","63fba157c9ebcb0ba6397872","A3","batch1","","-1","","","tol_feedback","true","","","","","","","","","","","1000","1000","500","","","","","","-1","none","true","","0",""
"","","","","","html-button-response","324","1065379","0.0-4.0-9.0","63fba157c9ebcb0ba6397872","A3","batch1","","1299.0999999642372","<div class = centerbox><p class = center-block-text>Great job! You are done with practice trials<br>You are about to start official trials.<br> <br> Problem <strong>1</strong> out of 25 problems</p></div>","0","tol_instruction","","","","","","","","","","","","","","","","","","","","","","","","",""
"","","","","","single-stim-button","325","1070249","0.0-4.0-10.0-0.0","63fba157c9ebcb0ba6397872","A3","batch1","","3861","","","tol_tohand","","","","","","","","","","","tol_peg_2","3861","3861","0","[[1,2,0],[0,0],[0]]","1","[[1,3,0],[2,0],[0]]","0","0","","","","","","3"
"","","","","","single-stim-button","326","1071610","0.0-4.0-10.0-1.0","63fba157c9ebcb0ba6397872","A3","batch1","","1361","","","tol_toboard","","","","","","","","","","","tol_peg_3","1361","1361","0","[[1,2,0],[0,0],[3]]","1","[[1,3,0],[2,0],[0]]","0","0","","","","","","3"
"","","","","","single-stim-button","327","1072546","0.0-4.0-10.1-0.1","63fba157c9ebcb0ba6397872","A3","batch1","","934","","","tol_tohand","","","","","","","","","","","tol_peg_1","934","934","0","[[1,0,0],[0,0],[3]]","2","[[1,3,0],[2,0],[0]]","0","0","","","","","","3"
"","","","","","single-stim-button","328","1073594","0.0-4.0-10.1-1.1","63fba157c9ebcb0ba6397872","A3","batch1","","1048","","","tol_toboard","","","","","","","","","","","tol_peg_2","1048","1048","0","[[1,0,0],[2,0],[3]]","2","[[1,3,0],[2,0],[0]]","0","0","","","","","","3"
"","","","","","single-stim-button","329","1075346","0.0-4.0-10.2-0.2","63fba157c9ebcb0ba6397872","A3","batch1","","1751","","","tol_tohand","","","","","","","","","","","tol_peg_3","1751","1751","0","[[1,0,0],[2,0],[0]]","3","[[1,3,0],[2,0],[0]]","0","0","","","","","","3"
"","","","","","single-stim-button","330","1076627","0.0-4.0-10.2-1.2","63fba157c9ebcb0ba6397872","A3","batch1","","1279","","","tol_toboard","","","","","","","","","","","tol_peg_1","1279","1279","0","[[1,3,0],[2,0],[0]]","3","[[1,3,0],[2,0],[0]]","0","0","","","","","","3"
"","","","","","poldrack-single-stim","331","1077641","0.0-4.0-11.0","63fba157c9ebcb0ba6397872","A3","batch1","","-1","","","tol_feedback","true","","","","","","","","","","","1000","1000","500","","","","","","-1","none","true","3861","6546",""
"","","","","","html-button-response","332","1079011","0.0-4.0-12.0","63fba157c9ebcb0ba6397872","A3","batch1","","1368.7000000476837","<div class = centerbox><p class = center-block-text>problem <strong>2</strong> out of 25 problems</p></div>","0","tol_trial_num","","","","","","","","","","","","","","","","","","","","","","","","",""
"","","","","","single-stim-button","333","1083945","0.0-4.0-13.0-0.0","63fba157c9ebcb0ba6397872","A3","batch1","","4932","","","tol_tohand","","","","","","","","","","","tol_peg_1","4932","4932","0","[[1,0,0],[3,0],[0]]","1","[[2,1,3],[0,0],[0]]","1","0","","","","","","5"
"","","","","","single-stim-button","334","1084862","0.0-4.0-13.0-1.0","63fba157c9ebcb0ba6397872","A3","batch1","","916","","","tol_toboard","","","","","","","","","","","tol_peg_1","916","916","0","[[1,2,0],[3,0],[0]]","1","[[2,1,3],[0,0],[0]]","1","0","","","","","","5"
"","","","","","single-stim-button","335","1085455","0.0-4.0-13.1-0.1","63fba157c9ebcb0ba6397872","A3","batch1","","592","","","tol_tohand","","","","","","","","","","","tol_peg_1","592","592","0","[[1,0,0],[3,0],[0]]","2","[[2,1,3],[0,0],[0]]","1","0","","","","","","5"
"","","","","","single-stim-button","336","1086761","0.0-4.0-13.1-1.1","63fba157c9ebcb0ba6397872","A3","batch1","","1306","","","tol_toboard","","","","","","","","","","","tol_peg_3","1306","1306","0","[[1,0,0],[3,0],[2]]","2","[[2,1,3],[0,0],[0]]","1","0","","","","","","5"
"","","","","","single-stim-button","337","1087729","0.0-4.0-13.2-0.2","63fba157c9ebcb0ba6397872","A3","batch1","","966","","","tol_tohand","","","","","","","","","","","tol_peg_1","966","966","0","[[0,0,0],[3,0],[2]]","3","[[2,1,3],[0,0],[0]]","1","0","","","","","","5"
"","","","","","single-stim-button","338","1088979","0.0-4.0-13.2-1.2","63fba157c9ebcb0ba6397872","A3","batch1","","1248","","","tol_toboard","","","","","","","","","","","tol_peg_2","1248","1248","0","[[0,0,0],[3,1],[2]]","3","[[2,1,3],[0,0],[0]]","1","0","","","","","","5"
"","","","","","single-stim-button","339","1090578","0.0-4.0-13.3-0.3","63fba157c9ebcb0ba6397872","A3","batch1","","1598","","","tol_tohand","","","","","","","","","","","tol_peg_3","1598","1598","0","[[0,0,0],[3,1],[0]]","4","[[2,1,3],[0,0],[0]]","1","0","","","","","","5"
"","","","","","single-stim-button","340","1091562","0.0-4.0-13.3-1.3","63fba157c9ebcb0ba6397872","A3","batch1","","984","","","tol_toboard","","","","","","","","","","","tol_peg_1","984","984","0","[[2,0,0],[3,1],[0]]","4","[[2,1,3],[0,0],[0]]","1","0","","","","","","5"
"","","","","","single-stim-button","341","1092581","0.0-4.0-13.4-0.4","63fba157c9ebcb0ba6397872","A3","batch1","","1017","","","tol_tohand","","","","","","","","","","","tol_peg_2","1017","1017","0","[[2,0,0],[3,0],[0]]","5","[[2,1,3],[0,0],[0]]","1","0","","","","","","5"
"","","","","","single-stim-button","342","1093745","0.0-4.0-13.4-1.4","63fba157c9ebcb0ba6397872","A3","batch1","","1163","","","tol_toboard","","","","","","","","","","","tol_peg_1","1163","1163","0","[[2,1,0],[3,0],[0]]","5","[[2,1,3],[0,0],[0]]","1","0","","","","","","5"
"","","","","","single-stim-button","343","1094661","0.0-4.0-13.5-0.5","63fba157c9ebcb0ba6397872","A3","batch1","","916","","","tol_tohand","","","","","","","","","","","tol_peg_2","916","916","0","[[2,1,0],[0,0],[0]]","6","[[2,1,3],[0,0],[0]]","1","0","","","","","","5"
"","","","","","single-stim-button","344","1095784","0.0-4.0-13.5-1.5","63fba157c9ebcb0ba6397872","A3","batch1","","1122","","","tol_toboard","","","","","","","","","","","tol_peg_1","1122","1122","0","[[2,1,3],[0,0],[0]]","6","[[2,1,3],[0,0],[0]]","1","0","","","","","","5"
"","","","","","poldrack-single-stim","345","1096796","0.0-4.0-14.0","63fba157c9ebcb0ba6397872","A3","batch1","","-1","","","tol_feedback","true","","","","","","","","","","","1000","1000","500","","","","","","-1","none","true","4932","10021",""
"","","","","","html-button-response","346","1098138","0.0-4.0-15.0","63fba157c9ebcb0ba6397872","A3","batch1","","1341.5999999642372","<div class = centerbox><p class = center-block-text>problem <strong>3</strong> out of 25 problems</p></div>","0","tol_trial_num","","","","","","","","","","","","","","","","","","","","","","","","",""
"","","","","","single-stim-button","347","1103949","0.0-4.0-16.0-0.0","63fba157c9ebcb0ba6397872","A3","batch1","","5809","","","tol_tohand","","","","","","","","","","","tol_peg_1","5809","5809","0","[[2,0,0],[0,0],[1]]","1","[[1,2,0],[3,0],[0]]","2","0","","","","","","4"
"","","","","","single-stim-button","348","1107010","0.0-4.0-16.0-1.0","63fba157c9ebcb0ba6397872","A3","batch1","","3061","","","tol_toboard","","","","","","","","","","","tol_peg_2","3061","3061","0","[[2,0,0],[3,0],[1]]","1","[[1,2,0],[3,0],[0]]","2","0","","","","","","4"
