"success","timeout","failed_images","failed_audio","failed_video","trial_type","trial_index","time_elapsed","internal_node_id","subject_id","study_id","session_id","task","rt","stimulus","response","item","answer","correct","spm_correct","spm_rt","view_history","mouse_click","stim_duration","block_duration","timing_post_trial","current_position","tol_num_moves_made","tol_target","tol_problem_id","tol_rt","key_press","possible_responses","tol_correct","preplanning","tol_rt_per_trial","tol_min_moves","fiar_detect_rt","fiar_detect_correct","total_correct_fiar_detect","post_trial_gap","choices"
"true","false","[]","[]","[]","preload","0","1213","0.0-0.0","63fc00a210518ac818a9c529","A3","batch1","","","","","","","","","","","","","","","","","","","","","","","","","","","","","",""
"true","","","","","fullscreen","1","11243","0.0-1.0-0.0","63fc00a210518ac818a9c529","A3","batch1","","","","","","","","","","","","","","","","","","","","","","","","","","","","","",""
"true","","","","","fullscreen","2","14799","0.0-2.0-0.0","63fc00a210518ac818a9c529","A3","batch1","spm_fullscreen","","","","","","","","","","","","","","","","","","","","","","","","","","","","",""
"","","","","","html-button-response","3","26171","0.0-2.0-1.0","63fc00a210518ac818a9c529","A3","batch1","","11369.200000000186","<p class = block-text><b>Instructions</b> <br>This is a widely used intelligence test in research. <br>In this test, a figure with a missing piece will be presented.<br>Below the figure are alternative pieces to complete the figure, only one of which is correct.<br> Different figures might involve different principles for obtaining the missing piece<br>Your job is to select the most logical piece to complete the figure.</p>","0","","","","","","","","","","","","","","","","","","","","","","","","","",""
"","","","","","html-keyboard-response","4","26981","0.0-2.0-2.0-0.0","63fc00a210518ac818a9c529","A3","batch1","spm_show_trial_num","null","<p class=block-text>Trial 1 out of 60</p>","null","","","","","","","","","","","","","","","","","","","","","","","","","",""
"","","","","","image-button-response","5","39714","0.0-2.0-2.0-1.0","63fc00a210518ac818a9c529","A3","batch1","spm_respsonse","12727.799999999814","img/question_1_1.jpeg","3","mat_01","4","1","1","12727.799999999814","","","","","","","","","","","","","","","","","","","","",""
"","","","","","html-keyboard-response","6","40796","0.0-2.0-2.0-0.1","63fc00a210518ac818a9c529","A3","batch1","spm_show_trial_num","null","<p class=block-text>Trial 2 out of 60</p>","null","","","","","","","","","","","","","","","","","","","","","","","","","",""
"","","","","","image-button-response","7","45383","0.0-2.0-2.0-1.1","63fc00a210518ac818a9c529","A3","batch1","spm_respsonse","4584","img/question_1_2.jpeg","4","mat_02","5","1","1","4584","","","","","","","","","","","","","","","","","","","","",""
"","","","","","html-keyboard-response","8","46446","0.0-2.0-2.0-0.2","63fc00a210518ac818a9c529","A3","batch1","spm_show_trial_num","null","<p class=block-text>Trial 3 out of 60</p>","null","","","","","","","","","","","","","","","","","","","","","","","","","",""
"","","","","","image-button-response","9","49586","0.0-2.0-2.0-1.2","63fc00a210518ac818a9c529","A3","batch1","spm_respsonse","3137.399999999441","img/question_1_3.jpeg","0","mat_03","1","1","1","3137.399999999441","","","","","","","","","","","","","","","","","","","","",""
"","","","","","html-keyboard-response","10","50651","0.0-2.0-2.0-0.3","63fc00a210518ac818a9c529","A3","batch1","spm_show_trial_num","null","<p class=block-text>Trial 4 out of 60</p>","null","","","","","","","","","","","","","","","","","","","","","","","","","",""
"","","","","","image-button-response","11","54481","0.0-2.0-2.0-1.3","63fc00a210518ac818a9c529","A3","batch1","spm_respsonse","3829.7000000001863","img/question_1_4.jpeg","1","mat_04","2","1","1","3829.7000000001863","","","","","","","","","","","","","","","","","","","","",""
"","","","","","html-keyboard-response","12","55550","0.0-2.0-2.0-0.4","63fc00a210518ac818a9c529","A3","batch1","spm_show_trial_num","null","<p class=block-text>Trial 5 out of 60</p>","null","","","","","","","","","","","","","","","","","","","","","","","","","",""
"","","","","","image-button-response","13","60748","0.0-2.0-2.0-1.4","63fc00a210518ac818a9c529","A3","batch1","spm_respsonse","5196.600000000559","img/question_1_5.jpeg","5","mat_05","6","1","1","5196.600000000559","","","","","","","","","","","","","","","","","","","","",""
"","","","","","html-keyboard-response","14","61821","0.0-2.0-2.0-0.5","63fc00a210518ac818a9c529","A3","batch1","spm_show_trial_num","null","<p class=block-text>Trial 6 out of 60</p>","null","","","","","","","","","","","","","","","","","","","","","","","","","",""
"","","","","","image-button-response","15","66003","0.0-2.0-2.0-1.5","63fc00a210518ac818a9c529","A3","batch1","spm_respsonse","4180.399999999441","img/question_1_6.jpeg","2","mat_06","3","1","1","4180.399999999441","","","","","","","","","","","","","","","","","","","","",""
"","","","","","html-keyboard-response","16","67066","0.0-2.0-2.0-0.6","63fc00a210518ac818a9c529","A3","batch1","spm_show_trial_num","null","<p class=block-text>Trial 7 out of 60</p>","null","","","","","","","","","","","","","","","","","","","","","","","","","",""
"","","","","","image-button-response","17","71240","0.0-2.0-2.0-1.6","63fc00a210518ac818a9c529","A3","batch1","spm_respsonse","4171.399999999441","img/question_1_7.jpeg","5","mat_07","6","1","1","4171.399999999441","","","","","","","","","","","","","","","","","","","","",""
"","","","","","html-keyboard-response","18","72310","0.0-2.0-2.0-0.7","63fc00a210518ac818a9c529","A3","batch1","spm_show_trial_num","null","<p class=block-text>Trial 8 out of 60</p>","null","","","","","","","","","","","","","","","","","","","","","","","","","",""
"","","","","","image-button-response","19","76993","0.0-2.0-2.0-1.7","63fc00a210518ac818a9c529","A3","batch1","spm_respsonse","4679","img/question_1_8.jpeg","1","mat_08","2","1","1","4679","","","","","","","","","","","","","","","","","","","","",""
"","","","","","html-keyboard-response","20","78065","0.0-2.0-2.0-0.8","63fc00a210518ac818a9c529","A3","batch1","spm_show_trial_num","null","<p class=block-text>Trial 9 out of 60</p>","null","","","","","","","","","","","","","","","","","","","","","","","","","",""
"","","","","","image-button-response","21","81207","0.0-2.0-2.0-1.8","63fc00a210518ac818a9c529","A3","batch1","spm_respsonse","3138.7000000001863","img/question_1_9.jpeg","0","mat_09","1","1","1","3138.7000000001863","","","","","","","","","","","","","","","","","","","","",""
"","","","","","html-keyboard-response","22","82290","0.0-2.0-2.0-0.9","63fc00a210518ac818a9c529","A3","batch1","spm_show_trial_num","null","<p class=block-text>Trial 10 out of 60</p>","null","","","","","","","","","","","","","","","","","","","","","","","","","",""
"","","","","","image-button-response","23","89324","0.0-2.0-2.0-1.9","63fc00a210518ac818a9c529","A3","batch1","spm_respsonse","7031.299999999814","img/question_1_10.jpeg","2","mat_10","3","1","1","7031.299999999814","","","","","","","","","","","","","","","","","","","","",""
"","","","","","html-keyboard-response","24","90410","0.0-2.0-2.0-0.10","63fc00a210518ac818a9c529","A3","batch1","spm_show_trial_num","null","<p class=block-text>Trial 11 out of 60</p>","null","","","","","","","","","","","","","","","","","","","","","","","","","",""
"","","","","","image-button-response","25","98106","0.0-2.0-2.0-1.10","63fc00a210518ac818a9c529","A3","batch1","spm_respsonse","7692.100000000559","img/question_1_11.jpeg","3","mat_11","4","1","1","7692.100000000559","","","","","","","","","","","","","","","","","","","","",""
"","","","","","html-keyboard-response","26","99165","0.0-2.0-2.0-0.11","63fc00a210518ac818a9c529","A3","batch1","spm_show_trial_num","null","<p class=block-text>Trial 12 out of 60</p>","null","","","","","","","","","","","","","","","","","","","","","","","","","",""
"","","","","","image-button-response","27","117562","0.0-2.0-2.0-1.11","63fc00a210518ac818a9c529","A3","batch1","spm_respsonse","18393.5","img/question_1_12.jpeg","0","mat_12","5","0","0","18393.5","","","","","","","","","","","","","","","","","","","","",""
"","","","","","html-keyboard-response","28","118627","0.0-2.0-2.0-0.12","63fc00a210518ac818a9c529","A3","batch1","spm_show_trial_num","null","<p class=block-text>Trial 13 out of 60</p>","null","","","","","","","","","","","","","","","","","","","","","","","","","",""
"","","","","","image-button-response","29","120788","0.0-2.0-2.0-1.12","63fc00a210518ac818a9c529","A3","batch1","spm_respsonse","2157.7000000001863","img/question_2_1.jpeg","1","mat_13","2","1","1","2157.7000000001863","","","","","","","","","","","","","","","","","","","","",""
"","","","","","html-keyboard-response","30","121868","0.0-2.0-2.0-0.13","63fc00a210518ac818a9c529","A3","batch1","spm_show_trial_num","null","<p class=block-text>Trial 14 out of 60</p>","null","","","","","","","","","","","","","","","","","","","","","","","","","",""
"","","","","","image-button-response","31","128174","0.0-2.0-2.0-1.13","63fc00a210518ac818a9c529","A3","batch1","spm_respsonse","6302.5","img/question_2_2.jpeg","5","mat_14","6","1","1","6302.5","","","","","","","","","","","","","","","","","","","","",""
"","","","","","html-keyboard-response","32","129246","0.0-2.0-2.0-0.14","63fc00a210518ac818a9c529","A3","batch1","spm_show_trial_num","null","<p class=block-text>Trial 15 out of 60</p>","null","","","","","","","","","","","","","","","","","","","","","","","","","",""
"","","","","","image-button-response","33","135296","0.0-2.0-2.0-1.14","63fc00a210518ac818a9c529","A3","batch1","spm_respsonse","6045.799999999814","img/question_2_3.jpeg","0","mat_15","1","1","1","6045.799999999814","","","","","","","","","","","","","","","","","","","","",""
"","","","","","html-keyboard-response","34","136353","0.0-2.0-2.0-0.15","63fc00a210518ac818a9c529","A3","batch1","spm_show_trial_num","null","<p class=block-text>Trial 16 out of 60</p>","null","","","","","","","","","","","","","","","","","","","","","","","","","",""
"","","","","","image-button-response","35","141387","0.0-2.0-2.0-1.15","63fc00a210518ac818a9c529","A3","batch1","spm_respsonse","5031.0999999996275","img/question_2_4.jpeg","1","mat_16","2","1","1","5031.0999999996275","","","","","","","","","","","","","","","","","","","","",""
"","","","","","html-keyboard-response","36","142452","0.0-2.0-2.0-0.16","63fc00a210518ac818a9c529","A3","batch1","spm_show_trial_num","null","<p class=block-text>Trial 17 out of 60</p>","null","","","","","","","","","","","","","","","","","","","","","","","","","",""
"","","","","","image-button-response","37","146935","0.0-2.0-2.0-1.16","63fc00a210518ac818a9c529","A3","batch1","spm_respsonse","4478.700000000186","img/question_2_5.jpeg","4","mat_17","1","0","0","4478.700000000186","","","","","","","","","","","","","","","","","","","","",""
"","","","","","html-keyboard-response","38","148001","0.0-2.0-2.0-0.17","63fc00a210518ac818a9c529","A3","batch1","spm_show_trial_num","null","<p class=block-text>Trial 18 out of 60</p>","null","","","","","","","","","","","","","","","","","","","","","","","","","",""
"","","","","","image-button-response","39","158466","0.0-2.0-2.0-1.17","63fc00a210518ac818a9c529","A3","batch1","spm_respsonse","10461.299999999814","img/question_2_6.jpeg","2","mat_18","3","1","1","10461.299999999814","","","","","","","","","","","","","","","","","","","","",""
"","","","","","html-keyboard-response","40","159526","0.0-2.0-2.0-0.18","63fc00a210518ac818a9c529","A3","batch1","spm_show_trial_num","null","<p class=block-text>Trial 19 out of 60</p>","null","","","","","","","","","","","","","","","","","","","","","","","","","",""
"","","","","","image-button-response","41","164808","0.0-2.0-2.0-1.18","63fc00a210518ac818a9c529","A3","batch1","spm_respsonse","5277.5","img/question_2_7.jpeg","5","mat_19","5","0","0","5277.5","","","","","","","","","","","","","","","","","","","","",""
"","","","","","html-keyboard-response","42","165862","0.0-2.0-2.0-0.19","63fc00a210518ac818a9c529","A3","batch1","spm_show_trial_num","null","<p class=block-text>Trial 20 out of 60</p>","null","","","","","","","","","","","","","","","","","","","","","","","","","",""
"","","","","","image-button-response","43","170584","0.0-2.0-2.0-1.19","63fc00a210518ac818a9c529","A3","batch1","spm_respsonse","4718.0999999996275","img/question_2_8.jpeg","5","mat_20","6","1","1","4718.0999999996275","","","","","","","","","","","","","","","","","","","","",""
"","","","","","html-keyboard-response","44","171636","0.0-2.0-2.0-0.20","63fc00a210518ac818a9c529","A3","batch1","spm_show_trial_num","null","<p class=block-text>Trial 21 out of 60</p>","null","","","","","","","","","","","","","","","","","","","","","","","","","",""
"","","","","","image-button-response","45","176401","0.0-2.0-2.0-1.20","63fc00a210518ac818a9c529","A3","batch1","spm_respsonse","4761.200000000186","img/question_2_9.jpeg","5","mat_21","4","0","0","4761.200000000186","","","","","","","","","","","","","","","","","","","","",""
"","","","","","html-keyboard-response","46","177460","0.0-2.0-2.0-0.21","63fc00a210518ac818a9c529","A3","batch1","spm_show_trial_num","null","<p class=block-text>Trial 22 out of 60</p>","null","","","","","","","","","","","","","","","","","","","","","","","","","",""
"","","","","","image-button-response","47","181619","0.0-2.0-2.0-1.21","63fc00a210518ac818a9c529","A3","batch1","spm_respsonse","4155.0999999996275","img/question_2_10.jpeg","2","mat_22","3","1","1","4155.0999999996275","","","","","","","","","","","","","","","","","","","","",""
"","","","","","html-keyboard-response","48","182679","0.0-2.0-2.0-0.22","63fc00a210518ac818a9c529","A3","batch1","spm_show_trial_num","null","<p class=block-text>Trial 23 out of 60</p>","null","","","","","","","","","","","","","","","","","","","","","","","","","",""
"","","","","","image-button-response","49","191479","0.0-2.0-2.0-1.22","63fc00a210518ac818a9c529","A3","batch1","spm_respsonse","8799.399999999441","img/question_2_11.jpeg","5","mat_23","4","0","0","8799.399999999441","","","","","","","","","","","","","","","","","","","","",""
"","","","","","html-keyboard-response","50","192544","0.0-2.0-2.0-0.23","63fc00a210518ac818a9c529","A3","batch1","spm_show_trial_num","null","<p class=block-text>Trial 24 out of 60</p>","null","","","","","","","","","","","","","","","","","","","","","","","","","",""
"","","","","","image-button-response","51","215412","0.0-2.0-2.0-1.23","63fc00a210518ac818a9c529","A3","batch1","spm_respsonse","22866.700000000186","img/question_2_12.jpeg","5","mat_24","5","0","0","22866.700000000186","","","","","","","","","","","","","","","","","","","","",""
"","","","","","html-button-response","52","217792","0.0-2.0-3.0","63fc00a210518ac818a9c529","A3","batch1","attention_check","2115.0999999996275","<p class = block-text>Attention check: Please choose 1<br></p>","0","","","true","","","","","","","","","","","","","","","","","","","","","","",""
"","","","","","html-keyboard-response","53","218608","0.0-2.0-4.0-0.0","63fc00a210518ac818a9c529","A3","batch1","spm_show_trial_num","null","<p class=block-text>Trial 25 out of 60</p>","null","","","","","","","","","","","","","","","","","","","","","","","","","",""
"","","","","","image-button-response","54","230819","0.0-2.0-4.0-1.0","63fc00a210518ac818a9c529","A3","batch1","spm_respsonse","12207.400000000373","img/question_3_1.jpeg","7","mat_25","8","1","1","12207.400000000373","","","","","","","","","","","","","","","","","","","","",""
"","","","","","html-keyboard-response","55","231873","0.0-2.0-4.0-0.1","63fc00a210518ac818a9c529","A3","batch1","spm_show_trial_num","null","<p class=block-text>Trial 26 out of 60</p>","null","","","","","","","","","","","","","","","","","","","","","","","","","",""
"","","","","","image-button-response","56","245284","0.0-2.0-4.0-1.1","63fc00a210518ac818a9c529","A3","batch1","spm_respsonse","13407","img/question_3_2.jpeg","1","mat_26","2","1","1","13407","","","","","","","","","","","","","","","","","","","","",""
"","","","","","html-keyboard-response","57","246342","0.0-2.0-4.0-0.2","63fc00a210518ac818a9c529","A3","batch1","spm_show_trial_num","null","<p class=block-text>Trial 27 out of 60</p>","null","","","","","","","","","","","","","","","","","","","","","","","","","",""
"","","","","","image-button-response","58","253456","0.0-2.0-4.0-1.2","63fc00a210518ac818a9c529","A3","batch1","spm_respsonse","7111.9000000003725","img/question_3_3.jpeg","2","mat_27","3","1","1","7111.9000000003725","","","","","","","","","","","","","","","","","","","","",""
"","","","","","html-keyboard-response","59","254515","0.0-2.0-4.0-0.3","63fc00a210518ac818a9c529","A3","batch1","spm_show_trial_num","null","<p class=block-text>Trial 28 out of 60</p>","null","","","","","","","","","","","","","","","","","","","","","","","","","",""
"","","","","","image-button-response","60","262543","0.0-2.0-4.0-1.3","63fc00a210518ac818a9c529","A3","batch1","spm_respsonse","8023.700000000186","img/question_3_4.jpeg","7","mat_28","8","1","1","8023.700000000186","","","","","","","","","","","","","","","","","","","","",""
"","","","","","html-keyboard-response","61","263606","0.0-2.0-4.0-0.4","63fc00a210518ac818a9c529","A3","batch1","spm_show_trial_num","null","<p class=block-text>Trial 29 out of 60</p>","null","","","","","","","","","","","","","","","","","","","","","","","","","",""
"","","","","","image-button-response","62","269153","0.0-2.0-4.0-1.4","63fc00a210518ac818a9c529","A3","batch1","spm_respsonse","5543.200000000186","img/question_3_5.jpeg","6","mat_29","7","1","1","5543.200000000186","","","","","","","","","","","","","","","","","","","","",""
"","","","","","html-keyboard-response","63","270225","0.0-2.0-4.0-0.5","63fc00a210518ac818a9c529","A3","batch1","spm_show_trial_num","null","<p class=block-text>Trial 30 out of 60</p>","null","","","","","","","","","","","","","","","","","","","","","","","","","",""
"","","","","","image-button-response","64","277952","0.0-2.0-4.0-1.5","63fc00a210518ac818a9c529","A3","batch1","spm_respsonse","7723.299999999814","img/question_3_6.jpeg","3","mat_30","4","1","1","7723.299999999814","","","","","","","","","","","","","","","","","","","","",""
"","","","","","html-keyboard-response","65","279025","0.0-2.0-4.0-0.6","63fc00a210518ac818a9c529","A3","batch1","spm_show_trial_num","null","<p class=block-text>Trial 31 out of 60</p>","null","","","","","","","","","","","","","","","","","","","","","","","","","",""
"","","","","","image-button-response","66","286649","0.0-2.0-4.0-1.6","63fc00a210518ac818a9c529","A3","batch1","spm_respsonse","7619.4000000003725","img/question_3_7.jpeg","4","mat_31","5","1","1","7619.4000000003725","","","","","","","","","","","","","","","","","","","","",""
"","","","","","html-keyboard-response","67","287703","0.0-2.0-4.0-0.7","63fc00a210518ac818a9c529","A3","batch1","spm_show_trial_num","null","<p class=block-text>Trial 32 out of 60</p>","null","","","","","","","","","","","","","","","","","","","","","","","","","",""
"","","","","","image-button-response","68","309167","0.0-2.0-4.0-1.7","63fc00a210518ac818a9c529","A3","batch1","spm_respsonse","21460.599999999627","img/question_3_8.jpeg","3","mat_32","1","0","0","21460.599999999627","","","","","","","","","","","","","","","","","","","","",""
"","","","","","html-keyboard-response","69","310231","0.0-2.0-4.0-0.8","63fc00a210518ac818a9c529","A3","batch1","spm_show_trial_num","null","<p class=block-text>Trial 33 out of 60</p>","null","","","","","","","","","","","","","","","","","","","","","","","","","",""
"","","","","","image-button-response","70","319374","0.0-2.0-4.0-1.8","63fc00a210518ac818a9c529","A3","batch1","spm_respsonse","9141","img/question_3_9.jpeg","6","mat_33","7","1","1","9141","","","","","","","","","","","","","","","","","","","","",""
"","","","","","html-keyboard-response","71","320450","0.0-2.0-4.0-0.9","63fc00a210518ac818a9c529","A3","batch1","spm_show_trial_num","null","<p class=block-text>Trial 34 out of 60</p>","null","","","","","","","","","","","","","","","","","","","","","","","","","",""
"","","","","","image-button-response","72","335738","0.0-2.0-4.0-1.9","63fc00a210518ac818a9c529","A3","batch1","spm_respsonse","15286.599999999627","img/question_3_10.jpeg","7","mat_34","6","0","0","15286.599999999627","","","","","","","","","","","","","","","","","","","","",""
"","","","","","html-keyboard-response","73","336810","0.0-2.0-4.0-0.10","63fc00a210518ac818a9c529","A3","batch1","spm_show_trial_num","null","<p class=block-text>Trial 35 out of 60</p>","null","","","","","","","","","","","","","","","","","","","","","","","","","",""
"","","","","","image-button-response","74","394819","0.0-2.0-4.0-1.10","63fc00a210518ac818a9c529","A3","batch1","spm_respsonse","58004.799999999814","img/question_3_11.jpeg","7","mat_35","1","0","0","58004.799999999814","","","","","","","","","","","","","","","","","","","","",""
"","","","","","html-keyboard-response","75","395872","0.0-2.0-4.0-0.11","63fc00a210518ac818a9c529","A3","batch1","spm_show_trial_num","null","<p class=block-text>Trial 36 out of 60</p>","null","","","","","","","","","","","","","","","","","","","","","","","","","",""
"","","","","","image-button-response","76","420776","0.0-2.0-4.0-1.11","63fc00a210518ac818a9c529","A3","batch1","spm_respsonse","24900.299999999814","img/question_3_12.jpeg","1","mat_36","2","1","1","24900.299999999814","","","","","","","","","","","","","","","","","","","","",""
"","","","","","html-keyboard-response","77","421834","0.0-2.0-4.0-0.12","63fc00a210518ac818a9c529","A3","batch1","spm_show_trial_num","null","<p class=block-text>Trial 37 out of 60</p>","null","","","","","","","","","","","","","","","","","","","","","","","","","",""
"","","","","","image-button-response","78","427567","0.0-2.0-4.0-1.12","63fc00a210518ac818a9c529","A3","batch1","spm_respsonse","5728.700000000186","img/question_4_1.jpeg","3","mat_37","3","0","0","5728.700000000186","","","","","","","","","","","","","","","","","","","","",""
"","","","","","html-keyboard-response","79","428635","0.0-2.0-4.0-0.13","63fc00a210518ac818a9c529","A3","batch1","spm_show_trial_num","null","<p class=block-text>Trial 38 out of 60</p>","null","","","","","","","","","","","","","","","","","","","","","","","","","",""
"","","","","","image-button-response","80","437892","0.0-2.0-4.0-1.13","63fc00a210518ac818a9c529","A3","batch1","spm_respsonse","9254.600000000559","img/question_4_2.jpeg","3","mat_38","4","1","1","9254.600000000559","","","","","","","","","","","","","","","","","","","","",""
"","","","","","html-keyboard-response","81","438956","0.0-2.0-4.0-0.14","63fc00a210518ac818a9c529","A3","batch1","spm_show_trial_num","null","<p class=block-text>Trial 39 out of 60</p>","null","","","","","","","","","","","","","","","","","","","","","","","","","",""
"","","","","","image-button-response","82","468179","0.0-2.0-4.0-1.14","63fc00a210518ac818a9c529","A3","batch1","spm_respsonse","29219.800000000745","img/question_4_3.jpeg","5","mat_39","3","0","0","29219.800000000745","","","","","","","","","","","","","","","","","","","","",""
"","","","","","html-keyboard-response","83","469236","0.0-2.0-4.0-0.15","63fc00a210518ac818a9c529","A3","batch1","spm_show_trial_num","null","<p class=block-text>Trial 40 out of 60</p>","null","","","","","","","","","","","","","","","","","","","","","","","","","",""
"","","","","","image-button-response","84","475678","0.0-2.0-4.0-1.15","63fc00a210518ac818a9c529","A3","batch1","spm_respsonse","6437.299999999814","img/question_4_4.jpeg","6","mat_40","7","1","1","6437.299999999814","","","","","","","","","","","","","","","","","","","","",""
"","","","","","html-keyboard-response","85","476746","0.0-2.0-4.0-0.16","63fc00a210518ac818a9c529","A3","batch1","spm_show_trial_num","null","<p class=block-text>Trial 41 out of 60</p>","null","","","","","","","","","","","","","","","","","","","","","","","","","",""
"","","","","","image-button-response","86","482133","0.0-2.0-4.0-1.16","63fc00a210518ac818a9c529","A3","batch1","spm_respsonse","5383.200000000186","img/question_4_5.jpeg","7","mat_41","8","1","1","5383.200000000186","","","","","","","","","","","","","","","","","","","","",""
"","","","","","html-keyboard-response","87","483191","0.0-2.0-4.0-0.17","63fc00a210518ac818a9c529","A3","batch1","spm_show_trial_num","null","<p class=block-text>Trial 42 out of 60</p>","null","","","","","","","","","","","","","","","","","","","","","","","","","",""
"","","","","","image-button-response","88","498024","0.0-2.0-4.0-1.17","63fc00a210518ac818a9c529","A3","batch1","spm_respsonse","14829.899999999441","img/question_4_6.jpeg","5","mat_42","6","1","1","14829.899999999441","","","","","","","","","","","","","","","","","","","","",""
"","","","","","html-keyboard-response","89","499083","0.0-2.0-4.0-0.18","63fc00a210518ac818a9c529","A3","batch1","spm_show_trial_num","null","<p class=block-text>Trial 43 out of 60</p>","null","","","","","","","","","","","","","","","","","","","","","","","","","",""
"","","","","","image-button-response","90","512578","0.0-2.0-4.0-1.18","63fc00a210518ac818a9c529","A3","batch1","spm_respsonse","13491","img/question_4_7.jpeg","3","mat_43","5","0","0","13491","","","","","","","","","","","","","","","","","","","","",""
"","","","","","html-keyboard-response","91","513632","0.0-2.0-4.0-0.19","63fc00a210518ac818a9c529","A3","batch1","spm_show_trial_num","null","<p class=block-text>Trial 44 out of 60</p>","null","","","","","","","","","","","","","","","","","","","","","","","","","",""
"","","","","","image-button-response","92","563731","0.0-2.0-4.0-1.19","63fc00a210518ac818a9c529","A3","batch1","spm_respsonse","50095.10000000056","img/question_4_8.jpeg","3","mat_44","4","1","1","50095.10000000056","","","","","","","","","","","","","","","","","","","","",""
"","","","","","html-keyboard-response","93","564789","0.0-2.0-4.0-0.20","63fc00a210518ac818a9c529","A3","batch1","spm_show_trial_num","null","<p class=block-text>Trial 45 out of 60</p>","null","","","","","","","","","","","","","","","","","","","","","","","","","",""
"","","","","","image-button-response","94","592769","0.0-2.0-4.0-1.20","63fc00a210518ac818a9c529","A3","batch1","spm_respsonse","27976.39999999944","img/question_4_9.jpeg","0","mat_45","1","1","1","27976.39999999944","","","","","","","","","","","","","","","","","","","","",""
"","","","","","html-keyboard-response","95","593821","0.0-2.0-4.0-0.21","63fc00a210518ac818a9c529","A3","batch1","spm_show_trial_num","null","<p class=block-text>Trial 46 out of 60</p>","null","","","","","","","","","","","","","","","","","","","","","","","","","",""
"","","","","","image-button-response","96","617194","0.0-2.0-4.0-1.21","63fc00a210518ac818a9c529","A3","batch1","spm_respsonse","23368.5","img/question_4_10.jpeg","1","mat_46","2","1","1","23368.5","","","","","","","","","","","","","","","","","","","","",""
"","","","","","html-keyboard-response","97","618264","0.0-2.0-4.0-0.22","63fc00a210518ac818a9c529","A3","batch1","spm_show_trial_num","null","<p class=block-text>Trial 47 out of 60</p>","null","","","","","","","","","","","","","","","","","","","","","","","","","",""
"","","","","","image-button-response","98","642305","0.0-2.0-4.0-1.22","63fc00a210518ac818a9c529","A3","batch1","spm_respsonse","24037.199999999255","img/question_4_11.jpeg","4","mat_47","5","1","1","24037.199999999255","","","","","","","","","","","","","","","","","","","","",""
"","","","","","html-keyboard-response","99","643382","0.0-2.0-4.0-0.23","63fc00a210518ac818a9c529","A3","batch1","spm_show_trial_num","null","<p class=block-text>Trial 48 out of 60</p>","null","","","","","","","","","","","","","","","","","","","","","","","","","",""
"","","","","","image-button-response","100","694406","0.0-2.0-4.0-1.23","63fc00a210518ac818a9c529","A3","batch1","spm_respsonse","51021.29999999888","img/question_4_12.jpeg","2","mat_48","6","0","0","51021.29999999888","","","","","","","","","","","","","","","","","","","","",""
"","","","","","html-keyboard-response","101","695484","0.0-2.0-4.0-0.24","63fc00a210518ac818a9c529","A3","batch1","spm_show_trial_num","null","<p class=block-text>Trial 49 out of 60</p>","null","","","","","","","","","","","","","","","","","","","","","","","","","",""
"","","","","","image-button-response","102","706930","0.0-2.0-4.0-1.24","63fc00a210518ac818a9c529","A3","batch1","spm_respsonse","11441.699999999255","img/question_5_1.jpeg","6","mat_49","7","1","1","11441.699999999255","","","","","","","","","","","","","","","","","","","","",""
"","","","","","html-keyboard-response","103","708002","0.0-2.0-4.0-0.25","63fc00a210518ac818a9c529","A3","batch1","spm_show_trial_num","null","<p class=block-text>Trial 50 out of 60</p>","null","","","","","","","","","","","","","","","","","","","","","","","","","",""
"","","","","","image-button-response","104","725299","0.0-2.0-4.0-1.25","63fc00a210518ac818a9c529","A3","batch1","spm_respsonse","17292.700000001118","img/question_5_2.jpeg","5","mat_50","6","1","1","17292.700000001118","","","","","","","","","","","","","","","","","","","","",""
"","","","","","html-keyboard-response","105","726372","0.0-2.0-4.0-0.26","63fc00a210518ac818a9c529","A3","batch1","spm_show_trial_num","null","<p class=block-text>Trial 51 out of 60</p>","null","","","","","","","","","","","","","","","","","","","","","","","","","",""
"","","","","","image-button-response","106","774379","0.0-2.0-4.0-1.26","63fc00a210518ac818a9c529","A3","batch1","spm_respsonse","48006.199999999255","img/question_5_3.jpeg","1","mat_51","8","0","0","48006.199999999255","","","","","","","","","","","","","","","","","","","","",""
"","","","","","html-keyboard-response","107","775450","0.0-2.0-4.0-0.27","63fc00a210518ac818a9c529","A3","batch1","spm_show_trial_num","null","<p class=block-text>Trial 52 out of 60</p>","null","","","","","","","","","","","","","","","","","","","","","","","","","",""
"","","","","","image-button-response","108","786438","0.0-2.0-4.0-1.27","63fc00a210518ac818a9c529","A3","batch1","spm_respsonse","10984.699999999255","img/question_5_4.jpeg","1","mat_52","2","1","1","10984.699999999255","","","","","","","","","","","","","","","","","","","","",""
"","","","","","html-keyboard-response","109","787498","0.0-2.0-4.0-0.28","63fc00a210518ac818a9c529","A3","batch1","spm_show_trial_num","null","<p class=block-text>Trial 53 out of 60</p>","null","","","","","","","","","","","","","","","","","","","","","","","","","",""
"","","","","","image-button-response","110","804261","0.0-2.0-4.0-1.28","63fc00a210518ac818a9c529","A3","batch1","spm_respsonse","16759.5","img/question_5_5.jpeg","6","mat_53","1","0","0","16759.5","","","","","","","","","","","","","","","","","","","","",""
"","","","","","html-keyboard-response","111","805319","0.0-2.0-4.0-0.29","63fc00a210518ac818a9c529","A3","batch1","spm_show_trial_num","null","<p class=block-text>Trial 54 out of 60</p>","null","","","","","","","","","","","","","","","","","","","","","","","","","",""
"","","","","","image-button-response","112","859554","0.0-2.0-4.0-1.29","63fc00a210518ac818a9c529","A3","batch1","spm_respsonse","54230.09999999963","img/question_5_6.jpeg","2","mat_54","5","0","0","54230.09999999963","","","","","","","","","","","","","","","","","","","","",""
"","","","","","html-keyboard-response","113","860623","0.0-2.0-4.0-0.30","63fc00a210518ac818a9c529","A3","batch1","spm_show_trial_num","null","<p class=block-text>Trial 55 out of 60</p>","null","","","","","","","","","","","","","","","","","","","","","","","","","",""
"","","","","","image-button-response","114","890173","0.0-2.0-4.0-1.30","63fc00a210518ac818a9c529","A3","batch1","spm_respsonse","29547.800000000745","img/question_5_7.jpeg","0","mat_55","1","1","1","29547.800000000745","","","","","","","","","","","","","","","","","","","","",""
"","","","","","html-keyboard-response","115","891251","0.0-2.0-4.0-0.31","63fc00a210518ac818a9c529","A3","batch1","spm_show_trial_num","null","<p class=block-text>Trial 56 out of 60</p>","null","","","","","","","","","","","","","","","","","","","","","","","","","",""
"","","","","","image-button-response","116","901430","0.0-2.0-4.0-1.31","63fc00a210518ac818a9c529","A3","batch1","spm_respsonse","10176.400000000373","img/question_5_8.jpeg","5","mat_56","6","1","1","10176.400000000373","","","","","","","","","","","","","","","","","","","","",""
"","","","","","html-keyboard-response","117","902503","0.0-2.0-4.0-0.32","63fc00a210518ac818a9c529","A3","batch1","spm_show_trial_num","null","<p class=block-text>Trial 57 out of 60</p>","null","","","","","","","","","","","","","","","","","","","","","","","","","",""
"","","","","","image-button-response","118","945535","0.0-2.0-4.0-1.32","63fc00a210518ac818a9c529","A3","batch1","spm_respsonse","43029.20000000112","img/question_5_9.jpeg","0","mat_57","3","0","0","43029.20000000112","","","","","","","","","","","","","","","","","","","","",""
"","","","","","html-keyboard-response","119","946592","0.0-2.0-4.0-0.33","63fc00a210518ac818a9c529","A3","batch1","spm_show_trial_num","null","<p class=block-text>Trial 58 out of 60</p>","null","","","","","","","","","","","","","","","","","","","","","","","","","",""
"","","","","","image-button-response","120","1011383","0.0-2.0-4.0-1.33","63fc00a210518ac818a9c529","A3","batch1","spm_respsonse","64785.800000000745","img/question_5_10.jpeg","5","mat_58","2","0","0","64785.800000000745","","","","","","","","","","","","","","","","","","","","",""
"","","","","","html-keyboard-response","121","1012441","0.0-2.0-4.0-0.34","63fc00a210518ac818a9c529","A3","batch1","spm_show_trial_num","null","<p class=block-text>Trial 59 out of 60</p>","null","","","","","","","","","","","","","","","","","","","","","","","","","",""
"","","","","","image-button-response","122","1155060","0.0-2.0-4.0-1.34","63fc00a210518ac818a9c529","A3","batch1","spm_respsonse","142616.09999999963","img/question_5_11.jpeg","6","mat_59","4","0","0","142616.09999999963","","","","","","","","","","","","","","","","","","","","",""
"","","","","","html-keyboard-response","123","1156128","0.0-2.0-4.0-0.35","63fc00a210518ac818a9c529","A3","batch1","spm_show_trial_num","null","<p class=block-text>Trial 60 out of 60</p>","null","","","","","","","","","","","","","","","","","","","","","","","","","",""
"","","","","","image-button-response","124","1234006","0.0-2.0-4.0-1.35","63fc00a210518ac818a9c529","A3","batch1","spm_respsonse","77875","img/question_5_12.jpeg","0","mat_60","5","0","0","77875","","","","","","","","","","","","","","","","","","","","",""
"","","","","","html-button-response","125","1236127","0.0-2.0-5.0","63fc00a210518ac818a9c529","A3","batch1","spm_goodbye","1870","<p class= block-text>This concludes the Standard Progressive Matrix game. Thank you for your responses!<br> When you are ready, click the button continue</p>","0","","","","","","","","","","","","","","","","","","","","","","","","","",""
"true","","","","","fullscreen","126","1251481","0.0-3.0-0.0","63fc00a210518ac818a9c529","A3","batch1","","","","","","","","","","","","","","","","","","","","","","","","","","","","","",""
"","","","","","instructions","127","1309826","0.0-3.0-1.0-0.0-0.0","63fc00a210518ac818a9c529","A3","batch1","tol-instructions","58344.09999999963","","","","","","","","[{""page_index"":0,""viewing_time"":14516.900000000373},{""page_index"":1,""viewing_time"":7154.89999999851},{""page_index"":2,""viewing_time"":5518.10000000149},{""page_index"":3,""viewing_time"":9417.89999999851},{""page_index"":4,""viewing_time"":6134.800000000745},{""page_index"":5,""viewing_time"":13687.099999999627},{""page_index"":6,""viewing_time"":1914.2000000011176}]","","","","","","","","","","","","","","","","","","","",""
"","","","","","html-button-response","128","1311056","0.0-3.0-1.0-1.0-0.0","63fc00a210518ac818a9c529","A3","batch1","tol_enter_quiz","1229.5","<p class=block-text> Let's answer a few questions <br>","0","","","","","","","","","","","","","","","","","","","","","","","","","",""
"","","","","","html-button-response","129","1313888","0.0-3.0-1.0-1.0-1.0","63fc00a210518ac818a9c529","A3","batch1","tol_quiz","2831.2000000011176","<p class = block-text>True or False: You can only move the ball on top of a peg. <br></p>","0","","","true","","","","","","","","","","","","","","","","","","","","","","",""
"","","","","","html-button-response","130","1315524","0.0-3.0-1.0-1.0-2.0","63fc00a210518ac818a9c529","A3","batch1","tol_quiz_feedback","1635.0999999996275","<p class = block-text>Correct! You can only move the ball on top of a peg.</p>","0","","","","","","","","","","","","","","","","","","","","","","","","","",""
"","","","","","html-button-response","131","1318036","0.0-3.0-1.0-1.0-3.0","63fc00a210518ac818a9c529","A3","batch1","tol_quiz","2511.0999999996275","<p class = block-text>True or False: You should try to match your board with the target board with fewest moves possible. <br></p>","0","","","true","","","","","","","","","","","","","","","","","","","","","","",""
"","","","","","html-button-response","132","1319238","0.0-3.0-1.0-1.0-4.0","63fc00a210518ac818a9c529","A3","batch1","tol_quiz_feedback","1201.5","<p class = block-text>Correct! </p>","0","","","","","","","","","","","","","","","","","","","","","","","","","",""
"","","","","","html-button-response","133","1320441","0.0-3.0-2.0","63fc00a210518ac818a9c529","A3","batch1","","1201.9000000003725","<p class=block-text> Now that you've understood the game, let's practice a few easier examples before we start!<br> <br>","0","","","","","","","","","","","","","","","","","","","","","","","","","",""
"","","","","","single-stim-button","134","1324070","0.0-3.0-3.0-0.0","63fc00a210518ac818a9c529","A3","batch1","tol_practice","3627","","","","","","","","","tol_peg_2","3627","3627","0","[[1,2,0],[0,0],[0]]","1","[[1,2,0],[0,0],[3]]","practice","3627","","","","","","","","","","",""
"","","","","","single-stim-button","135","1326039","0.0-3.0-3.0-1.0","63fc00a210518ac818a9c529","A3","batch1","tol_practice","1968","","","","","","","","","tol_peg_3","1968","1968","0","[[1,2,0],[0,0],[3]]","1","[[1,2,0],[0,0],[3]]","practice","1968","","","","","","","","","","",""
"","","","","","poldrack-single-stim","136","1327047","0.0-3.0-4.0","63fc00a210518ac818a9c529","A3","batch1","tol_feedback","-1","","","","","true","","","","","1000","1000","500","","","","","","-1","none","true","","0","","","","","",""
"","","","","","single-stim-button","137","1332811","0.0-3.0-5.0-0.0","63fc00a210518ac818a9c529","A3","batch1","tol_practice","5762","","","","","","","","","tol_peg_1","5762","5762","0","[[1,0,0],[3,0],[0]]","2","[[0,0,0],[3,1],[2]]","practice","5762","","","","","","","","","","",""
"","","","","","single-stim-button","138","1334524","0.0-3.0-5.0-1.0","63fc00a210518ac818a9c529","A3","batch1","tol_practice","1712","","","","","","","","","tol_peg_3","1712","1712","0","[[1,0,0],[3,0],[2]]","2","[[0,0,0],[3,1],[2]]","practice","1712","","","","","","","","","","",""
"","","","","","single-stim-button","139","1335976","0.0-3.0-5.1-0.1","63fc00a210518ac818a9c529","A3","batch1","tol_practice","1451","","","","","","","","","tol_peg_1","1451","1451","0","[[0,0,0],[3,0],[2]]","3","[[0,0,0],[3,1],[2]]","practice","1451","","","","","","","","","","",""
"","","","","","single-stim-button","140","1337183","0.0-3.0-5.1-1.1","63fc00a210518ac818a9c529","A3","batch1","tol_practice","1207","","","","","","","","","tol_peg_2","1207","1207","0","[[0,0,0],[3,1],[2]]","3","[[0,0,0],[3,1],[2]]","practice","1207","","","","","","","","","","",""
"","","","","","poldrack-single-stim","141","1338185","0.0-3.0-6.0","63fc00a210518ac818a9c529","A3","batch1","tol_feedback","-1","","","","","true","","","","","1000","1000","500","","","","","","-1","none","true","","0","","","","","",""
"","","","","","single-stim-button","142","1341016","0.0-3.0-7.0-0.0","63fc00a210518ac818a9c529","A3","batch1","tol_practice","2830","","","","","","","","","tol_peg_1","2830","2830","0","[[1,0,0],[3,0],[0]]","4","[[1,0,0],[2,0],[3]]","practice","2830","","","","","","","","","","",""
"","","","","","single-stim-button","143","1346176","0.0-3.0-7.0-1.0","63fc00a210518ac818a9c529","A3","batch1","tol_practice","5160","","","","","","","","","tol_peg_1","5160","5160","0","[[1,2,0],[3,0],[0]]","4","[[1,0,0],[2,0],[3]]","practice","5160","","","","","","","","","","",""
"","","","","","single-stim-button","144","1347696","0.0-3.0-7.1-0.1","63fc00a210518ac818a9c529","A3","batch1","tol_practice","1519","","","","","","","","","tol_peg_2","1519","1519","0","[[1,2,0],[0,0],[0]]","5","[[1,0,0],[2,0],[3]]","practice","1519","","","","","","","","","","",""
"","","","","","single-stim-button","145","1348722","0.0-3.0-7.1-1.1","63fc00a210518ac818a9c529","A3","batch1","tol_practice","1026","","","","","","","","","tol_peg_3","1026","1026","0","[[1,2,0],[0,0],[3]]","5","[[1,0,0],[2,0],[3]]","practice","1026","","","","","","","","","","",""
"","","","","","single-stim-button","146","1350136","0.0-3.0-7.2-0.2","63fc00a210518ac818a9c529","A3","batch1","tol_practice","1413","","","","","","","","","tol_peg_1","1413","1413","0","[[1,0,0],[0,0],[3]]","6","[[1,0,0],[2,0],[3]]","practice","1413","","","","","","","","","","",""
"","","","","","single-stim-button","147","1351020","0.0-3.0-7.2-1.2","63fc00a210518ac818a9c529","A3","batch1","tol_practice","884","","","","","","","","","tol_peg_2","884","884","0","[[1,0,0],[2,0],[3]]","6","[[1,0,0],[2,0],[3]]","practice","884","","","","","","","","","","",""
"","","","","","poldrack-single-stim","148","1352024","0.0-3.0-8.0","63fc00a210518ac818a9c529","A3","batch1","tol_feedback","-1","","","","","true","","","","","1000","1000","500","","","","","","-1","none","true","","0","","","","","",""
"","","","","","html-button-response","149","1354533","0.0-3.0-9.0","63fc00a210518ac818a9c529","A3","batch1","tol_instruction","2508.0999999996275","<div class = centerbox><p class = center-block-text>Great job! You are done with practice trials<br>You are about to start official trials.<br> <br> Problem <strong>1</strong> out of 25 problems</p></div>","0","","","","","","","","","","","","","","","","","","","","","","","","","",""
"","","","","","single-stim-button","150","1359802","0.0-3.0-10.0-0.0","63fc00a210518ac818a9c529","A3","batch1","tol_tohand","4260","","","","","","","","","tol_peg_2","4260","4260","0","[[1,2,0],[0,0],[0]]","1","[[1,3,0],[2,0],[0]]","0","0","","","","","","3","","","","",""
"","","","","","single-stim-button","151","1361138","0.0-3.0-10.0-1.0","63fc00a210518ac818a9c529","A3","batch1","tol_toboard","1335","","","","","","","","","tol_peg_3","1335","1335","0","[[1,2,0],[0,0],[3]]","1","[[1,3,0],[2,0],[0]]","0","0","","","","","","3","","","","",""
"","","","","","single-stim-button","152","1362181","0.0-3.0-10.1-0.1","63fc00a210518ac818a9c529","A3","batch1","tol_tohand","1042","","","","","","","","","tol_peg_1","1042","1042","0","[[1,0,0],[0,0],[3]]","2","[[1,3,0],[2,0],[0]]","0","0","","","","","","3","","","","",""
"","","","","","single-stim-button","153","1363177","0.0-3.0-10.1-1.1","63fc00a210518ac818a9c529","A3","batch1","tol_toboard","995","","","","","","","","","tol_peg_2","995","995","0","[[1,0,0],[2,0],[3]]","2","[[1,3,0],[2,0],[0]]","0","0","","","","","","3","","","","",""
"","","","","","single-stim-button","154","1365278","0.0-3.0-10.2-0.2","63fc00a210518ac818a9c529","A3","batch1","tol_tohand","2101","","","","","","","","","tol_peg_3","2101","2101","0","[[1,0,0],[2,0],[0]]","3","[[1,3,0],[2,0],[0]]","0","0","","","","","","3","","","","",""
"","","","","","single-stim-button","155","1366171","0.0-3.0-10.2-1.2","63fc00a210518ac818a9c529","A3","batch1","tol_toboard","892","","","","","","","","","tol_peg_1","892","892","0","[[1,3,0],[2,0],[0]]","3","[[1,3,0],[2,0],[0]]","0","0","","","","","","3","","","","",""
"","","","","","poldrack-single-stim","156","1367179","0.0-3.0-11.0","63fc00a210518ac818a9c529","A3","batch1","tol_feedback","-1","","","","","true","","","","","1000","1000","500","","","","","","-1","none","true","4260","7403","","","","","",""
"","","","","","html-button-response","157","1369436","0.0-3.0-12.0","63fc00a210518ac818a9c529","A3","batch1","tol_trial_num","2255.199999999255","<div class = centerbox><p class = center-block-text>problem <strong>2</strong> out of 25 problems</p></div>","0","","","","","","","","","","","","","","","","","","","","","","","","","",""
"","","","","","single-stim-button","158","1388278","0.0-3.0-13.0-0.0","63fc00a210518ac818a9c529","A3","batch1","tol_tohand","18842","","","","","","","","","tol_peg_1","18842","18842","0","[[1,0,0],[3,0],[0]]","1","[[2,1,3],[0,0],[0]]","1","0","","","","","","5","","","","",""
"","","","","","single-stim-button","159","1405712","0.0-3.0-13.0-1.0","63fc00a210518ac818a9c529","A3","batch1","tol_toboard","17433","","","","","","","","","tol_peg_3","17433","17433","0","[[1,0,0],[3,0],[2]]","1","[[2,1,3],[0,0],[0]]","1","0","","","","","","5","","","","",""
"","","","","","single-stim-button","160","1409809","0.0-3.0-13.1-0.1","63fc00a210518ac818a9c529","A3","batch1","tol_tohand","4096","","","","","","","","","tol_peg_1","4096","4096","0","[[0,0,0],[3,0],[2]]","2","[[2,1,3],[0,0],[0]]","1","0","","","","","","5","","","","",""
"","","","","","single-stim-button","161","1418783","0.0-3.0-13.1-1.1","63fc00a210518ac818a9c529","A3","batch1","tol_toboard","8974","","","","","","","","","tol_peg_1","8974","8974","0","[[1,0,0],[3,0],[2]]","2","[[2,1,3],[0,0],[0]]","1","0","","","","","","5","","","","",""
"","","","","","single-stim-button","162","1420255","0.0-3.0-13.2-0.2","63fc00a210518ac818a9c529","A3","batch1","tol_tohand","1471","","","","","","","","","tol_peg_3","1471","1471","0","[[1,0,0],[3,0],[0]]","3","[[2,1,3],[0,0],[0]]","1","0","","","","","","5","","","","",""
"","","","","","single-stim-button","163","1420930","0.0-3.0-13.2-1.2","63fc00a210518ac818a9c529","A3","batch1","tol_toboard","674","","","","","","","","","tol_peg_1","674","674","0","[[1,2,0],[3,0],[0]]","3","[[2,1,3],[0,0],[0]]","1","0","","","","","","5","","","","",""
"","","","","","single-stim-button","164","1421834","0.0-3.0-13.3-0.3","63fc00a210518ac818a9c529","A3","batch1","tol_tohand","904","","","","","","","","","tol_peg_2","904","904","0","[[1,2,0],[0,0],[0]]","4","[[2,1,3],[0,0],[0]]","1","0","","","","","","5","","","","",""
"","","","","","single-stim-button","165","1422936","0.0-3.0-13.3-1.3","63fc00a210518ac818a9c529","A3","batch1","tol_toboard","1100","","","","","","","","","tol_peg_3","1100","1100","0","[[1,2,0],[0,0],[3]]","4","[[2,1,3],[0,0],[0]]","1","0","","","","","","5","","","","",""
"","","","","","single-stim-button","166","1424345","0.0-3.0-13.4-0.4","63fc00a210518ac818a9c529","A3","batch1","tol_tohand","1409","","","","","","","","","tol_peg_1","1409","1409","0","[[1,0,0],[0,0],[3]]","5","[[2,1,3],[0,0],[0]]","1","0","","","","","","5","","","","",""
"","","","","","single-stim-button","167","1426384","0.0-3.0-13.4-1.4","63fc00a210518ac818a9c529","A3","batch1","tol_toboard","2038","","","","","","","","","tol_peg_2","2038","2038","0","[[1,0,0],[2,0],[3]]","5","[[2,1,3],[0,0],[0]]","1","0","","","","","","5","","","","",""
"","","","","","single-stim-button","168","1427025","0.0-3.0-13.5-0.5","63fc00a210518ac818a9c529","A3","batch1","tol_tohand","640","","","","","","","","","tol_peg_1","640","640","0","[[0,0,0],[2,0],[3]]","6","[[2,1,3],[0,0],[0]]","1","0","","","","","","5","","","","",""
"","","","","","single-stim-button","169","1428038","0.0-3.0-13.5-1.5","63fc00a210518ac818a9c529","A3","batch1","tol_toboard","1012","","","","","","","","","tol_peg_2","1012","1012","0","[[0,0,0],[2,1],[3]]","6","[[2,1,3],[0,0],[0]]","1","0","","","","","","5","","","","",""
"","","","","","single-stim-button","170","1428662","0.0-3.0-13.6-0.6","63fc00a210518ac818a9c529","A3","batch1","tol_tohand","624","","","","","","","","","tol_peg_3","624","624","0","[[0,0,0],[2,1],[0]]","7","[[2,1,3],[0,0],[0]]","1","0","","","","","","5","","","","",""
"","","","","","single-stim-button","171","1429454","0.0-3.0-13.6-1.6","63fc00a210518ac818a9c529","A3","batch1","tol_toboard","791","","","","","","","","","tol_peg_1","791","791","0","[[3,0,0],[2,1],[0]]","7","[[2,1,3],[0,0],[0]]","1","0","","","","","","5","","","","",""
"","","","","","single-stim-button","172","1430247","0.0-3.0-13.7-0.7","63fc00a210518ac818a9c529","A3","batch1","tol_tohand","792","","","","","","","","","tol_peg_2","792","792","0","[[3,0,0],[2,0],[0]]","8","[[2,1,3],[0,0],[0]]","1","0","","","","","","5","","","","",""
"","","","","","single-stim-button","173","1430944","0.0-3.0-13.7-1.7","63fc00a210518ac818a9c529","A3","batch1","tol_toboard","697","","","","","","","","","tol_peg_1","697","697","0","[[3,1,0],[2,0],[0]]","8","[[2,1,3],[0,0],[0]]","1","0","","","","","","5","","","","",""
"","","","","","single-stim-button","174","1431538","0.0-3.0-13.8-0.8","63fc00a210518ac818a9c529","A3","batch1","tol_tohand","594","","","","","","","","","tol_peg_2","594","594","0","[[3,1,0],[0,0],[0]]","9","[[2,1,3],[0,0],[0]]","1","0","","","","","","5","","","","",""
"","","","","","single-stim-button","175","1432231","0.0-3.0-13.8-1.8","63fc00a210518ac818a9c529","A3","batch1","tol_toboard","692","","","","","","","","","tol_peg_1","692","692","0","[[3,1,2],[0,0],[0]]","9","[[2,1,3],[0,0],[0]]","1","0","","","","","","5","","","","",""
"","","","","","single-stim-button","176","1436911","0.0-3.0-13.9-0.9","63fc00a210518ac818a9c529","A3","batch1","tol_tohand","4679","","","","","","","","","tol_peg_1","4679","4679","0","[[3,1,0],[0,0],[0]]","10","[[2,1,3],[0,0],[0]]","1","0","","","","","","5","","","","",""
"","","","","","single-stim-button","177","1438713","0.0-3.0-13.9-1.9","63fc00a210518ac818a9c529","A3","batch1","tol_toboard","1801","","","","","","","","","tol_peg_3","1801","1801","0","[[3,1,0],[0,0],[2]]","10","[[2,1,3],[0,0],[0]]","1","0","","","","","","5","","","","",""
"","","","","","single-stim-button","178","1439382","0.0-3.0-13.10-0.10","63fc00a210518ac818a9c529","A3","batch1","tol_tohand","669","","","","","","","","","tol_peg_1","669","669","0","[[3,0,0],[0,0],[2]]","11","[[2,1,3],[0,0],[0]]","1","0","","","","","","5","","","","",""
"","","","","","single-stim-button","179","1443080","0.0-3.0-13.10-1.10","63fc00a210518ac818a9c529","A3","batch1","tol_toboard","3697","","","","","","","","","tol_peg_2","3697","3697","0","[[3,0,0],[1,0],[2]]","11","[[2,1,3],[0,0],[0]]","1","0","","","","","","5","","","","",""
"","","","","","single-stim-button","180","1443611","0.0-3.0-13.11-0.11","63fc00a210518ac818a9c529","A3","batch1","tol_tohand","530","","","","","","","","","tol_peg_1","530","530","0","[[0,0,0],[1,0],[2]]","12","[[2,1,3],[0,0],[0]]","1","0","","","","","","5","","","","",""
"","","","","","single-stim-button","181","1444372","0.0-3.0-13.11-1.11","63fc00a210518ac818a9c529","A3","batch1","tol_toboard","761","","","","","","","","","tol_peg_2","761","761","0","[[0,0,0],[1,3],[2]]","12","[[2,1,3],[0,0],[0]]","1","0","","","","","","5","","","","",""
"","","","","","single-stim-button","182","1445384","0.0-3.0-13.12-0.12","63fc00a210518ac818a9c529","A3","batch1","tol_tohand","1010","","","","","","","","","tol_peg_3","1010","1010","0","[[0,0,0],[1,3],[0]]","13","[[2,1,3],[0,0],[0]]","1","0","","","","","","5","","","","",""
"","","","","","single-stim-button","183","1446244","0.0-3.0-13.12-1.12","63fc00a210518ac818a9c529","A3","batch1","tol_toboard","860","","","","","","","","","tol_peg_1","860","860","0","[[2,0,0],[1,3],[0]]","13","[[2,1,3],[0,0],[0]]","1","0","","","","","","5","","","","",""
"","","","","","single-stim-button","184","1446979","0.0-3.0-13.13-0.13","63fc00a210518ac818a9c529","A3","batch1","tol_tohand","734","","","","","","","","","tol_peg_2","734","734","0","[[2,0,0],[1,0],[0]]","14","[[2,1,3],[0,0],[0]]","1","0","","","","","","5","","","","",""
"","","","","","single-stim-button","185","1447621","0.0-3.0-13.13-1.13","63fc00a210518ac818a9c529","A3","batch1","tol_toboard","641","","","","","","","","","tol_peg_3","641","641","0","[[2,0,0],[1,0],[3]]","14","[[2,1,3],[0,0],[0]]","1","0","","","","","","5","","","","",""
"","","","","","single-stim-button","186","1448334","0.0-3.0-13.14-0.14","63fc00a210518ac818a9c529","A3","batch1","tol_tohand","712","","","","","","","","","tol_peg_2","712","712","0","[[2,0,0],[0,0],[3]]","15","[[2,1,3],[0,0],[0]]","1","0","","","","","","5","","","","",""
"","","","","","single-stim-button","187","1449167","0.0-3.0-13.14-1.14","63fc00a210518ac818a9c529","A3","batch1","tol_toboard","831","","","","","","","","","tol_peg_1","831","831","0","[[2,1,0],[0,0],[3]]","15","[[2,1,3],[0,0],[0]]","1","0","","","","","","5","","","","",""
"","","","","","single-stim-button","188","1449915","0.0-3.0-13.15-0.15","63fc00a210518ac818a9c529","A3","batch1","tol_tohand","748","","","","","","","","","tol_peg_3","748","748","0","[[2,1,0],[0,0],[0]]","16","[[2,1,3],[0,0],[0]]","1","0","","","","","","5","","","","",""
"","","","","","single-stim-button","189","1450526","0.0-3.0-13.15-1.15","63fc00a210518ac818a9c529","A3","batch1","tol_toboard","610","","","","","","","","","tol_peg_1","610","610","0","[[2,1,3],[0,0],[0]]","16","[[2,1,3],[0,0],[0]]","1","0","","","","","","5","","","","",""
"","","","","","poldrack-single-stim","190","1451540","0.0-3.0-14.0","63fc00a210518ac818a9c529","A3","batch1","tol_feedback","-1","","","","","true","","","","","1000","1000","500","","","","","","-1","none","true","18842","38454","","","","","",""
"","","","","","html-button-response","191","1452748","0.0-3.0-15.0","63fc00a210518ac818a9c529","A3","batch1","tol_trial_num","1207","<div class = centerbox><p class = center-block-text>problem <strong>3</strong> out of 25 problems</p></div>","0","","","","","","","","","","","","","","","","","","","","","","","","","",""
"","","","","","single-stim-button","192","1458854","0.0-3.0-16.0-0.0","63fc00a210518ac818a9c529","A3","batch1","tol_tohand","6104","","","","","","","","","tol_peg_1","6104","6104","0","[[2,0,0],[0,0],[1]]","1","[[1,2,0],[3,0],[0]]","2","0","","","","","","4","","","","",""
"","","","","","single-stim-button","193","1459662","0.0-3.0-16.0-1.0","63fc00a210518ac818a9c529","A3","batch1","tol_toboard","808","","","","","","","","","tol_peg_2","808","808","0","[[2,0,0],[3,0],[1]]","1","[[1,2,0],[3,0],[0]]","2","0","","","","","","4","","","","",""
"","","","","","single-stim-button","194","1460951","0.0-3.0-16.1-0.1","63fc00a210518ac818a9c529","A3","batch1","tol_tohand","1289","","","","","","","","","tol_peg_1","1289","1289","0","[[0,0,0],[3,0],[1]]","2","[[1,2,0],[3,0],[0]]","2","0","","","","","","4","","","","",""
"","","","","","single-stim-button","195","1461840","0.0-3.0-16.1-1.1","63fc00a210518ac818a9c529","A3","batch1","tol_toboard","888","","","","","","","","","tol_peg_2","888","888","0","[[0,0,0],[3,2],[1]]","2","[[1,2,0],[3,0],[0]]","2","0","","","","","","4","","","","",""
"","","","","","single-stim-button","196","1462476","0.0-3.0-16.2-0.2","63fc00a210518ac818a9c529","A3","batch1","tol_tohand","635","","","","","","","","","tol_peg_3","635","635","0","[[0,0,0],[3,2],[0]]","3","[[1,2,0],[3,0],[0]]","2","0","","","","","","4","","","","",""
"","","","","","single-stim-button","197","1463232","0.0-3.0-16.2-1.2","63fc00a210518ac818a9c529","A3","batch1","tol_toboard","756","","","","","","","","","tol_peg_1","756","756","0","[[1,0,0],[3,2],[0]]","3","[[1,2,0],[3,0],[0]]","2","0","","","","","","4","","","","",""
"","","","","","single-stim-button","198","1464083","0.0-3.0-16.3-0.3","63fc00a210518ac818a9c529","A3","batch1","tol_tohand","850","","","","","","","","","tol_peg_2","850","850","0","[[1,0,0],[3,0],[0]]","4","[[1,2,0],[3,0],[0]]","2","0","","","","","","4","","","","",""
"","","","","","single-stim-button","199","1464791","0.0-3.0-16.3-1.3","63fc00a210518ac818a9c529","A3","batch1","tol_toboard","707","","","","","","","","","tol_peg_1","707","707","0","[[1,2,0],[3,0],[0]]","4","[[1,2,0],[3,0],[0]]","2","0","","","","","","4","","","","",""
"","","","","","poldrack-single-stim","200","1465801","0.0-3.0-17.0","63fc00a210518ac818a9c529","A3","batch1","tol_feedback","-1","","","","","true","","","","","1000","1000","500","","","","","","-1","none","true","6104","8878","","","","","",""
"","","","","","html-button-response","201","1467120","0.0-3.0-18.0","63fc00a210518ac818a9c529","A3","batch1","tol_trial_num","1317.5","<div class = centerbox><p class = center-block-text>problem <strong>4</strong> out of 25 problems</p></div>","0","","","","","","","","","","","","","","","","","","","","","","","","","",""
"","","","","","single-stim-button","202","1471719","0.0-3.0-19.0-0.0","63fc00a210518ac818a9c529","A3","batch1","tol_tohand","4599","","","","","","","","","tol_peg_2","4599","4599","0","[[3,0,0],[2,0],[0]]","1","[[3,0,0],[1,0],[2]]","3","0","","","","","","3","","","","",""
"","","","","","single-stim-button","203","1472415","0.0-3.0-19.0-1.0","63fc00a210518ac818a9c529","A3","batch1","tol_toboard","696","","","","","","","","","tol_peg_1","696","696","0","[[3,1,0],[2,0],[0]]","1","[[3,0,0],[1,0],[2]]","3","0","","","","","","3","","","","",""
"","","","","","single-stim-button","204","1473187","0.0-3.0-19.1-0.1","63fc00a210518ac818a9c529","A3","batch1","tol_tohand","772","","","","","","","","","tol_peg_2","772","772","0","[[3,1,0],[0,0],[0]]","2","[[3,0,0],[1,0],[2]]","3","0","","","","","","3","","","","",""
"","","","","","single-stim-button","205","1473843","0.0-3.0-19.1-1.1","63fc00a210518ac818a9c529","A3","batch1","tol_toboard","654","","","","","","","","","tol_peg_3","654","654","0","[[3,1,0],[0,0],[2]]","2","[[3,0,0],[1,0],[2]]","3","0","","","","","","3","","","","",""
"","","","","","single-stim-button","206","1474510","0.0-3.0-19.2-0.2","63fc00a210518ac818a9c529","A3","batch1","tol_tohand","667","","","","","","","","","tol_peg_1","667","667","0","[[3,0,0],[0,0],[2]]","3","[[3,0,0],[1,0],[2]]","3","0","","","","","","3","","","","",""
"","","","","","single-stim-button","207","1475018","0.0-3.0-19.2-1.2","63fc00a210518ac818a9c529","A3","batch1","tol_toboard","508","","","","","","","","","tol_peg_2","508","508","0","[[3,0,0],[1,0],[2]]","3","[[3,0,0],[1,0],[2]]","3","0","","","","","","3","","","","",""
"","","","","","poldrack-single-stim","208","1476022","0.0-3.0-20.0","63fc00a210518ac818a9c529","A3","batch1","tol_feedback","-1","","","","","true","","","","","1000","1000","500","","","","","","-1","none","true","4599","6038","","","","","",""
"","","","","","html-button-response","209","1478803","0.0-3.0-21.0","63fc00a210518ac818a9c529","A3","batch1","tol_trial_num","2779.5","<div class = centerbox><p class = center-block-text>problem <strong>5</strong> out of 25 problems</p></div>","0","","","","","","","","","","","","","","","","","","","","","","","","","",""
"","","","","","single-stim-button","210","1486762","0.0-3.0-22.0-0.0","63fc00a210518ac818a9c529","A3","batch1","tol_tohand","7958","","","","","","","","","tol_peg_3","7958","7958","0","[[1,0,0],[2,0],[0]]","1","[[0,0,0],[1,2],[3]]","4","0","","","","","","7","","","","",""
"","","","","","single-stim-button","211","1487919","0.0-3.0-22.0-1.0","63fc00a210518ac818a9c529","A3","batch1","tol_toboard","1157","","","","","","","","","tol_peg_2","1157","1157","0","[[1,0,0],[2,3],[0]]","1","[[0,0,0],[1,2],[3]]","4","0","","","","","","7","","","","",""
"","","","","","single-stim-button","212","1488517","0.0-3.0-22.1-0.1","63fc00a210518ac818a9c529","A3","batch1","tol_tohand","598","","","","","","","","","tol_peg_1","598","598","0","[[0,0,0],[2,3],[0]]","2","[[0,0,0],[1,2],[3]]","4","0","","","","","","7","","","","",""
"","","","","","single-stim-button","213","1489254","0.0-3.0-22.1-1.1","63fc00a210518ac818a9c529","A3","batch1","tol_toboard","736","","","","","","","","","tol_peg_3","736","736","0","[[0,0,0],[2,3],[1]]","2","[[0,0,0],[1,2],[3]]","4","0","","","","","","7","","","","",""
"","","","","","single-stim-button","214","1491057","0.0-3.0-22.2-0.2","63fc00a210518ac818a9c529","A3","batch1","tol_tohand","1803","","","","","","","","","tol_peg_2","1803","1803","0","[[0,0,0],[2,0],[1]]","3","[[0,0,0],[1,2],[3]]","4","0","","","","","","7","","","","",""
"","","","","","single-stim-button","215","1491740","0.0-3.0-22.2-1.2","63fc00a210518ac818a9c529","A3","batch1","tol_toboard","683","","","","","","","","","tol_peg_1","683","683","0","[[3,0,0],[2,0],[1]]","3","[[0,0,0],[1,2],[3]]","4","0","","","","","","7","","","","",""
"","","","","","single-stim-button","216","1505633","0.0-3.0-22.3-0.3","63fc00a210518ac818a9c529","A3","batch1","tol_tohand","13892","","","","","","","","","tol_peg_2","13892","13892","0","[[3,0,0],[0,0],[1]]","4","[[0,0,0],[1,2],[3]]","4","0","","","","","","7","","","","",""
"","","","","","single-stim-button","217","1506412","0.0-3.0-22.3-1.3","63fc00a210518ac818a9c529","A3","batch1","tol_toboard","779","","","","","","","","","tol_peg_1","779","779","0","[[3,2,0],[0,0],[1]]","4","[[0,0,0],[1,2],[3]]","4","0","","","","","","7","","","","",""
"","","","","","single-stim-button","218","1507096","0.0-3.0-22.4-0.4","63fc00a210518ac818a9c529","A3","batch1","tol_tohand","684","","","","","","","","","tol_peg_3","684","684","0","[[3,2,0],[0,0],[0]]","5","[[0,0,0],[1,2],[3]]","4","0","","","","","","7","","","","",""
"","","","","","single-stim-button","219","1507637","0.0-3.0-22.4-1.4","63fc00a210518ac818a9c529","A3","batch1","tol_toboard","539","","","","","","","","","tol_peg_2","539","539","0","[[3,2,0],[1,0],[0]]","5","[[0,0,0],[1,2],[3]]","4","0","","","","","","7","","","","",""
"","","","","","single-stim-button","220","1509346","0.0-3.0-22.5-0.5","63fc00a210518ac818a9c529","A3","batch1","tol_tohand","1709","","","","","","","","","tol_peg_1","1709","1709","0","[[3,0,0],[1,0],[0]]","6","[[0,0,0],[1,2],[3]]","4","0","","","","","","7","","","","",""
"","","","","","single-stim-button","221","1509935","0.0-3.0-22.5-1.5","63fc00a210518ac818a9c529","A3","batch1","tol_toboard","588","","","","","","","","","tol_peg_2","588","588","0","[[3,0,0],[1,2],[0]]","6","[[0,0,0],[1,2],[3]]","4","0","","","","","","7","","","","",""
"","","","","","single-stim-button","222","1510582","0.0-3.0-22.6-0.6","63fc00a210518ac818a9c529","A3","batch1","tol_tohand","647","","","","","","","","","tol_peg_1","647","647","0","[[0,0,0],[1,2],[0]]","7","[[0,0,0],[1,2],[3]]","4","0","","","","","","7","","","","",""
"","","","","","single-stim-button","223","1511277","0.0-3.0-22.6-1.6","63fc00a210518ac818a9c529","A3","batch1","tol_toboard","695","","","","","","","","","tol_peg_3","695","695","0","[[0,0,0],[1,2],[3]]","7","[[0,0,0],[1,2],[3]]","4","0","","","","","","7","","","","",""
"","","","","","poldrack-single-stim","224","1512293","0.0-3.0-23.0","63fc00a210518ac818a9c529","A3","batch1","tol_feedback","-1","","","","","true","","","","","1000","1000","500","","","","","","-1","none","true","7958","27291","","","","","",""
"","","","","","html-button-response","225","1513185","0.0-3.0-24.0","63fc00a210518ac818a9c529","A3","batch1","tol_trial_num","890.4000000003725","<div class = centerbox><p class = center-block-text>problem <strong>6</strong> out of 25 problems</p></div>","0","","","","","","","","","","","","","","","","","","","","","","","","","",""
"","","","","","single-stim-button","226","1537669","0.0-3.0-25.0-0.0","63fc00a210518ac818a9c529","A3","batch1","tol_tohand","24484","","","","","","","","","tol_peg_2","24484","24484","0","[[0,0,0],[1,0],[3]]","1","[[1,0,0],[2,3],[0]]","5","0","","","","","","6","","","","",""
"","","","","","single-stim-button","227","1539512","0.0-3.0-25.0-1.0","63fc00a210518ac818a9c529","A3","batch1","tol_toboard","1842","","","","","","","","","tol_peg_1","1842","1842","0","[[2,0,0],[1,0],[3]]","1","[[1,0,0],[2,3],[0]]","5","0","","","","","","6","","","","",""
"","","","","","single-stim-button","228","1552739","0.0-3.0-25.1-0.1","63fc00a210518ac818a9c529","A3","batch1","tol_tohand","13226","","","","","","","","","tol_peg_3","13226","13226","0","[[2,0,0],[1,0],[0]]","2","[[1,0,0],[2,3],[0]]","5","0","","","","","","6","","","","",""
"","","","","","single-stim-button","229","1553881","0.0-3.0-25.1-1.1","63fc00a210518ac818a9c529","A3","batch1","tol_toboard","1141","","","","","","","","","tol_peg_1","1141","1141","0","[[2,3,0],[1,0],[0]]","2","[[1,0,0],[2,3],[0]]","5","0","","","","","","6","","","","",""
"","","","","","single-stim-button","230","1554583","0.0-3.0-25.2-0.2","63fc00a210518ac818a9c529","A3","batch1","tol_tohand","701","","","","","","","","","tol_peg_2","701","701","0","[[2,3,0],[0,0],[0]]","3","[[1,0,0],[2,3],[0]]","5","0","","","","","","6","","","","",""
"","","","","","single-stim-button","231","1555122","0.0-3.0-25.2-1.2","63fc00a210518ac818a9c529","A3","batch1","tol_toboard","538","","","","","","","","","tol_peg_3","538","538","0","[[2,3,0],[0,0],[1]]","3","[[1,0,0],[2,3],[0]]","5","0","","","","","","6","","","","",""
"","","","","","single-stim-button","232","1563568","0.0-3.0-25.3-0.3","63fc00a210518ac818a9c529","A3","batch1","tol_tohand","8445","","","","","","","","","tol_peg_1","8445","8445","0","[[2,0,0],[0,0],[1]]","4","[[1,0,0],[2,3],[0]]","5","0","","","","","","6","","","","",""
"","","","","","single-stim-button","233","1564360","0.0-3.0-25.3-1.3","63fc00a210518ac818a9c529","A3","batch1","tol_toboard","791","","","","","","","","","tol_peg_2","791","791","0","[[2,0,0],[3,0],[1]]","4","[[1,0,0],[2,3],[0]]","5","0","","","","","","6","","","","",""
"","","","","","single-stim-button","234","1565061","0.0-3.0-25.4-0.4","63fc00a210518ac818a9c529","A3","batch1","tol_tohand","700","","","","","","","","","tol_peg_1","700","700","0","[[0,0,0],[3,0],[1]]","5","[[1,0,0],[2,3],[0]]","5","0","","","","","","6","","","","",""
"","","","","","single-stim-button","235","1565741","0.0-3.0-25.4-1.4","63fc00a210518ac818a9c529","A3","batch1","tol_toboard","679","","","","","","","","","tol_peg_2","679","679","0","[[0,0,0],[3,2],[1]]","5","[[1,0,0],[2,3],[0]]","5","0","","","","","","6","","","","",""
"","","","","","single-stim-button","236","1566355","0.0-3.0-25.5-0.5","63fc00a210518ac818a9c529","A3","batch1","tol_tohand","613","","","","","","","","","tol_peg_3","613","613","0","[[0,0,0],[3,2],[0]]","6","[[1,0,0],[2,3],[0]]","5","0","","","","","","6","","","","",""
"","","","","","single-stim-button","237","1566921","0.0-3.0-25.5-1.5","63fc00a210518ac818a9c529","A3","batch1","tol_toboard","565","","","","","","","","","tol_peg_1","565","565","0","[[1,0,0],[3,2],[0]]","6","[[1,0,0],[2,3],[0]]","5","0","","","","","","6","","","","",""
"","","","","","single-stim-button","238","1569026","0.0-3.0-25.6-0.6","63fc00a210518ac818a9c529","A3","batch1","tol_tohand","2104","","","","","","","","","tol_peg_2","2104","2104","0","[[1,0,0],[3,0],[0]]","7","[[1,0,0],[2,3],[0]]","5","0","","","","","","6","","","","",""
"","","","","","single-stim-button","239","1569629","0.0-3.0-25.6-1.6","63fc00a210518ac818a9c529","A3","batch1","tol_toboard","602","","","","","","","","","tol_peg_1","602","602","0","[[1,2,0],[3,0],[0]]","7","[[1,0,0],[2,3],[0]]","5","0","","","","","","6","","","","",""
"","","","","","single-stim-button","240","1570401","0.0-3.0-25.7-0.7","63fc00a210518ac818a9c529","A3","batch1","tol_tohand","771","","","","","","","","","tol_peg_2","771","771","0","[[1,2,0],[0,0],[0]]","8","[[1,0,0],[2,3],[0]]","5","0","","","","","","6","","","","",""
"","","","","","single-stim-button","241","1570952","0.0-3.0-25.7-1.7","63fc00a210518ac818a9c529","A3","batch1","tol_toboard","551","","","","","","","","","tol_peg_3","551","551","0","[[1,2,0],[0,0],[3]]","8","[[1,0,0],[2,3],[0]]","5","0","","","","","","6","","","","",""
"","","","","","single-stim-button","242","1571523","0.0-3.0-25.8-0.8","63fc00a210518ac818a9c529","A3","batch1","tol_tohand","571","","","","","","","","","tol_peg_1","571","571","0","[[1,0,0],[0,0],[3]]","9","[[1,0,0],[2,3],[0]]","5","0","","","","","","6","","","","",""
"","","","","","single-stim-button","243","1572000","0.0-3.0-25.8-1.8","63fc00a210518ac818a9c529","A3","batch1","tol_toboard","477","","","","","","","","","tol_peg_2","477","477","0","[[1,0,0],[2,0],[3]]","9","[[1,0,0],[2,3],[0]]","5","0","","","","","","6","","","","",""
"","","","","","single-stim-button","244","1572589","0.0-3.0-25.9-0.9","63fc00a210518ac818a9c529","A3","batch1","tol_tohand","588","","","","","","","","","tol_peg_3","588","588","0","[[1,0,0],[2,0],[0]]","10","[[1,0,0],[2,3],[0]]","5","0","","","","","","6","","","","",""
"","","","","","single-stim-button","245","1572956","0.0-3.0-25.9-1.9","63fc00a210518ac818a9c529","A3","batch1","tol_toboard","366","","","","","","","","","tol_peg_2","366","366","0","[[1,0,0],[2,3],[0]]","10","[[1,0,0],[2,3],[0]]","5","0","","","","","","6","","","","",""
"","","","","","poldrack-single-stim","246","1573967","0.0-3.0-26.0","63fc00a210518ac818a9c529","A3","batch1","tol_feedback","-1","","","","","true","","","","","1000","1000","500","","","","","","-1","none","true","24484","52203","","","","","",""
"","","","","","html-button-response","247","1576181","0.0-3.0-27.0","63fc00a210518ac818a9c529","A3","batch1","tol_trial_num","2212.800000000745","<div class = centerbox><p class = center-block-text>problem <strong>7</strong> out of 25 problems</p></div>","0","","","","","","","","","","","","","","","","","","","","","","","","","",""
"","","","","","single-stim-button","248","1580762","0.0-3.0-28.0-0.0","63fc00a210518ac818a9c529","A3","batch1","tol_tohand","4580","","","","","","","","","tol_peg_3","4580","4580","0","[[2,1,0],[0,0],[0]]","1","[[1,2,0],[3,0],[0]]","6","0","","","","","","5","","","","",""
"","","","","","single-stim-button","249","1581612","0.0-3.0-28.0-1.0","63fc00a210518ac818a9c529","A3","batch1","tol_toboard","849","","","","","","","","","tol_peg_2","849","849","0","[[2,1,0],[3,0],[0]]","1","[[1,2,0],[3,0],[0]]","6","0","","","","","","5","","","","",""
"","","","","","single-stim-button","250","1583923","0.0-3.0-28.1-0.1","63fc00a210518ac818a9c529","A3","batch1","tol_tohand","2311","","","","","","","","","tol_peg_1","2311","2311","0","[[2,0,0],[3,0],[0]]","2","[[1,2,0],[3,0],[0]]","6","0","","","","","","5","","","","",""
"","","","","","single-stim-button","251","1584647","0.0-3.0-28.1-1.1","63fc00a210518ac818a9c529","A3","batch1","tol_toboard","723","","","","","","","","","tol_peg_3","723","723","0","[[2,0,0],[3,0],[1]]","2","[[1,2,0],[3,0],[0]]","6","0","","","","","","5","","","","",""
"","","","","","single-stim-button","252","1585200","0.0-3.0-28.2-0.2","63fc00a210518ac818a9c529","A3","batch1","tol_tohand","551","","","","","","","","","tol_peg_1","551","551","0","[[0,0,0],[3,0],[1]]","3","[[1,2,0],[3,0],[0]]","6","0","","","","","","5","","","","",""
"","","","","","single-stim-button","253","1585694","0.0-3.0-28.2-1.2","63fc00a210518ac818a9c529","A3","batch1","tol_toboard","493","","","","","","","","","tol_peg_2","493","493","0","[[0,0,0],[3,2],[1]]","3","[[1,2,0],[3,0],[0]]","6","0","","","","","","5","","","","",""
"","","","","","single-stim-button","254","1586261","0.0-3.0-28.3-0.3","63fc00a210518ac818a9c529","A3","batch1","tol_tohand","566","","","","","","","","","tol_peg_3","566","566","0","[[0,0,0],[3,2],[0]]","4","[[1,2,0],[3,0],[0]]","6","0","","","","","","5","","","","",""
"","","","","","single-stim-button","255","1586952","0.0-3.0-28.3-1.3","63fc00a210518ac818a9c529","A3","batch1","tol_toboard","691","","","","","","","","","tol_peg_1","691","691","0","[[1,0,0],[3,2],[0]]","4","[[1,2,0],[3,0],[0]]","6","0","","","","","","5","","","","",""
"","","","","","single-stim-button","256","1587424","0.0-3.0-28.4-0.4","63fc00a210518ac818a9c529","A3","batch1","tol_tohand","472","","","","","","","","","tol_peg_2","472","472","0","[[1,0,0],[3,0],[0]]","5","[[1,2,0],[3,0],[0]]","6","0","","","","","","5","","","","",""
"","","","","","single-stim-button","257","1588029","0.0-3.0-28.4-1.4","63fc00a210518ac818a9c529","A3","batch1","tol_toboard","604","","","","","","","","","tol_peg_1","604","604","0","[[1,2,0],[3,0],[0]]","5","[[1,2,0],[3,0],[0]]","6","0","","","","","","5","","","","",""
"","","","","","poldrack-single-stim","258","1589033","0.0-3.0-29.0","63fc00a210518ac818a9c529","A3","batch1","tol_feedback","-1","","","","","true","","","","","1000","1000","500","","","","","","-1","none","true","4580","8480","","","","","",""
"","","","","","html-button-response","259","1590122","0.0-3.0-30.0","63fc00a210518ac818a9c529","A3","batch1","tol_trial_num","1087.5","<div class = centerbox><p class = center-block-text>problem <strong>8</strong> out of 25 problems</p></div>","0","","","","","","","","","","","","","","","","","","","","","","","","","",""
"","","","","","single-stim-button","260","1593883","0.0-3.0-31.0-0.0","63fc00a210518ac818a9c529","A3","batch1","tol_tohand","3760","","","","","","","","","tol_peg_3","3760","3760","0","[[0,0,0],[2,3],[0]]","1","[[1,2,0],[3,0],[0]]","7","0","","","","","","4","","","","",""
"","","","","","single-stim-button","261","1594558","0.0-3.0-31.0-1.0","63fc00a210518ac818a9c529","A3","batch1","tol_toboard","673","","","","","","","","","tol_peg_1","673","673","0","[[1,0,0],[2,3],[0]]","1","[[1,2,0],[3,0],[0]]","7","0","","","","","","4","","","","",""
"","","","","","single-stim-button","262","1596023","0.0-3.0-31.1-0.1","63fc00a210518ac818a9c529","A3","batch1","tol_tohand","1465","","","","","","","","","tol_peg_2","1465","1465","0","[[1,0,0],[2,0],[0]]","2","[[1,2,0],[3,0],[0]]","7","0","","","","","","4","","","","",""
"","","","","","single-stim-button","263","1596710","0.0-3.0-31.1-1.1","63fc00a210518ac818a9c529","A3","batch1","tol_toboard","686","","","","","","","","","tol_peg_3","686","686","0","[[1,0,0],[2,0],[3]]","2","[[1,2,0],[3,0],[0]]","7","0","","","","","","4","","","","",""
"","","","","","single-stim-button","264","1597399","0.0-3.0-31.2-0.2","63fc00a210518ac818a9c529","A3","batch1","tol_tohand","688","","","","","","","","","tol_peg_2","688","688","0","[[1,0,0],[0,0],[3]]","3","[[1,2,0],[3,0],[0]]","7","0","","","","","","4","","","","",""
"","","","","","single-stim-button","265","1598006","0.0-3.0-31.2-1.2","63fc00a210518ac818a9c529","A3","batch1","tol_toboard","607","","","","","","","","","tol_peg_1","607","607","0","[[1,2,0],[0,0],[3]]","3","[[1,2,0],[3,0],[0]]","7","0","","","","","","4","","","","",""
"","","","","","single-stim-button","266","1602860","0.0-3.0-31.3-0.3","63fc00a210518ac818a9c529","A3","batch1","tol_tohand","4853","","","","","","","","","tol_peg_3","4853","4853","0","[[1,2,0],[0,0],[0]]","4","[[1,2,0],[3,0],[0]]","7","0","","","","","","4","","","","",""
"","","","","","single-stim-button","267","1603280","0.0-3.0-31.3-1.3","63fc00a210518ac818a9c529","A3","batch1","tol_toboard","419","","","","","","","","","tol_peg_2","419","419","0","[[1,2,0],[3,0],[0]]","4","[[1,2,0],[3,0],[0]]","7","0","","","","","","4","","","","",""
"","","","","","poldrack-single-stim","268","1604283","0.0-3.0-32.0","63fc00a210518ac818a9c529","A3","batch1","tol_feedback","-1","","","","","true","","","","","1000","1000","500","","","","","","-1","none","true","3760","10766","","","","","",""
"","","","","","html-button-response","269","1605206","0.0-3.0-33.0","63fc00a210518ac818a9c529","A3","batch1","tol_trial_num","922.4000000003725","<div class = centerbox><p class = center-block-text>problem <strong>9</strong> out of 25 problems</p></div>","0","","","","","","","","","","","","","","","","","","","","","","","","","",""
"","","","","","single-stim-button","270","1621108","0.0-3.0-34.0-0.0","63fc00a210518ac818a9c529","A3","batch1","tol_tohand","15901","","","","","","","","","tol_peg_3","15901","15901","0","[[3,2,0],[0,0],[0]]","1","[[2,1,0],[3,0],[0]]","8","0","","","","","","6","","","","",""
"","","","","","single-stim-button","271","1621704","0.0-3.0-34.0-1.0","63fc00a210518ac818a9c529","A3","batch1","tol_toboard","595","","","","","","","","","tol_peg_2","595","595","0","[[3,2,0],[1,0],[0]]","1","[[2,1,0],[3,0],[0]]","8","0","","","","","","6","","","","",""
"","","","","","single-stim-button","272","1622233","0.0-3.0-34.1-0.1","63fc00a210518ac818a9c529","A3","batch1","tol_tohand","528","","","","","","","","","tol_peg_1","528","528","0","[[3,0,0],[1,0],[0]]","2","[[2,1,0],[3,0],[0]]","8","0","","","","","","6","","","","",""
"","","","","","single-stim-button","273","1622831","0.0-3.0-34.1-1.1","63fc00a210518ac818a9c529","A3","batch1","tol_toboard","597","","","","","","","","","tol_peg_2","597","597","0","[[3,0,0],[1,2],[0]]","2","[[2,1,0],[3,0],[0]]","8","0","","","","","","6","","","","",""
"","","","","","single-stim-button","274","1624023","0.0-3.0-34.2-0.2","63fc00a210518ac818a9c529","A3","batch1","tol_tohand","1191","","","","","","","","","tol_peg_1","1191","1191","0","[[0,0,0],[1,2],[0]]","3","[[2,1,0],[3,0],[0]]","8","0","","","","","","6","","","","",""
"","","","","","single-stim-button","275","1624985","0.0-3.0-34.2-1.2","63fc00a210518ac818a9c529","A3","batch1","tol_toboard","960","","","","","","","","","tol_peg_3","960","960","0","[[0,0,0],[1,2],[3]]","3","[[2,1,0],[3,0],[0]]","8","0","","","","","","6","","","","",""
"","","","","","single-stim-button","276","1625819","0.0-3.0-34.3-0.3","63fc00a210518ac818a9c529","A3","batch1","tol_tohand","834","","","","","","","","","tol_peg_2","834","834","0","[[0,0,0],[1,0],[3]]","4","[[2,1,0],[3,0],[0]]","8","0","","","","","","6","","","","",""
"","","","","","single-stim-button","277","1626543","0.0-3.0-34.3-1.3","63fc00a210518ac818a9c529","A3","batch1","tol_toboard","724","","","","","","","","","tol_peg_1","724","724","0","[[2,0,0],[1,0],[3]]","4","[[2,1,0],[3,0],[0]]","8","0","","","","","","6","","","","",""
"","","","","","single-stim-button","278","1627369","0.0-3.0-34.4-0.4","63fc00a210518ac818a9c529","A3","batch1","tol_tohand","825","","","","","","","","","tol_peg_2","825","825","0","[[2,0,0],[0,0],[3]]","5","[[2,1,0],[3,0],[0]]","8","0","","","","","","6","","","","",""
"","","","","","single-stim-button","279","1627817","0.0-3.0-34.4-1.4","63fc00a210518ac818a9c529","A3","batch1","tol_toboard","448","","","","","","","","","tol_peg_1","448","448","0","[[2,1,0],[0,0],[3]]","5","[[2,1,0],[3,0],[0]]","8","0","","","","","","6","","","","",""
"","","","","","single-stim-button","280","1628330","0.0-3.0-34.5-0.5","63fc00a210518ac818a9c529","A3","batch1","tol_tohand","512","","","","","","","","","tol_peg_3","512","512","0","[[2,1,0],[0,0],[0]]","6","[[2,1,0],[3,0],[0]]","8","0","","","","","","6","","","","",""
"","","","","","single-stim-button","281","1628645","0.0-3.0-34.5-1.5","63fc00a210518ac818a9c529","A3","batch1","tol_toboard","314","","","","","","","","","tol_peg_2","314","314","0","[[2,1,0],[3,0],[0]]","6","[[2,1,0],[3,0],[0]]","8","0","","","","","","6","","","","",""
"","","","","","poldrack-single-stim","282","1629648","0.0-3.0-35.0","63fc00a210518ac818a9c529","A3","batch1","tol_feedback","-1","","","","","true","","","","","1000","1000","500","","","","","","-1","none","true","15901","19791","","","","","",""
"","","","","","html-button-response","283","1630867","0.0-3.0-36.0","63fc00a210518ac818a9c529","A3","batch1","tol_trial_num","1216.699999999255","<div class = centerbox><p class = center-block-text>problem <strong>10</strong> out of 25 problems</p></div>","0","","","","","","","","","","","","","","","","","","","","","","","","","",""
"","","","","","single-stim-button","284","1635140","0.0-3.0-37.0-0.0","63fc00a210518ac818a9c529","A3","batch1","tol_tohand","4273","","","","","","","","","tol_peg_2","4273","4273","0","[[3,0,0],[0,0],[2]]","1","[[3,0,0],[2,1],[0]]","9","0","","","","","","3","","","","",""
"","","","","","single-stim-button","285","1635785","0.0-3.0-37.0-1.0","63fc00a210518ac818a9c529","A3","batch1","tol_toboard","645","","","","","","","","","tol_peg_1","645","645","0","[[3,1,0],[0,0],[2]]","1","[[3,0,0],[2,1],[0]]","9","0","","","","","","3","","","","",""
"","","","","","single-stim-button","286","1636570","0.0-3.0-37.1-0.1","63fc00a210518ac818a9c529","A3","batch1","tol_tohand","784","","","","","","","","","tol_peg_3","784","784","0","[[3,1,0],[0,0],[0]]","2","[[3,0,0],[2,1],[0]]","9","0","","","","","","3","","","","",""
"","","","","","single-stim-button","287","1637355","0.0-3.0-37.1-1.1","63fc00a210518ac818a9c529","A3","batch1","tol_toboard","783","","","","","","","","","tol_peg_2","783","783","0","[[3,1,0],[2,0],[0]]","2","[[3,0,0],[2,1],[0]]","9","0","","","","","","3","","","","",""
"","","","","","single-stim-button","288","1637919","0.0-3.0-37.2-0.2","63fc00a210518ac818a9c529","A3","batch1","tol_tohand","564","","","","","","","","","tol_peg_1","564","564","0","[[3,0,0],[2,0],[0]]","3","[[3,0,0],[2,1],[0]]","9","0","","","","","","3","","","","",""
"","","","","","single-stim-button","289","1638432","0.0-3.0-37.2-1.2","63fc00a210518ac818a9c529","A3","batch1","tol_toboard","513","","","","","","","","","tol_peg_2","513","513","0","[[3,0,0],[2,1],[0]]","3","[[3,0,0],[2,1],[0]]","9","0","","","","","","3","","","","",""
"","","","","","poldrack-single-stim","290","1639439","0.0-3.0-38.0","63fc00a210518ac818a9c529","A3","batch1","tol_feedback","-1","","","","","true","","","","","1000","1000","500","","","","","","-1","none","true","4273","5621","","","","","",""
"","","","","","html-button-response","291","1640186","0.0-3.0-39.0","63fc00a210518ac818a9c529","A3","batch1","tol_trial_num","745.8000000007451","<div class = centerbox><p class = center-block-text>problem <strong>11</strong> out of 25 problems</p></div>","0","","","","","","","","","","","","","","","","","","","","","","","","","",""
"","","","","","single-stim-button","292","1667719","0.0-3.0-40.0-0.0","63fc00a210518ac818a9c529","A3","batch1","tol_tohand","27533","","","","","","","","","tol_peg_2","27533","27533","0","[[1,2,0],[0,0],[0]]","1","[[2,0,0],[1,3],[0]]","10","0","","","","","","6","","","","",""
"","","","","","single-stim-button","293","1668522","0.0-3.0-40.0-1.0","63fc00a210518ac818a9c529","A3","batch1","tol_toboard","802","","","","","","","","","tol_peg_3","802","802","0","[[1,2,0],[0,0],[3]]","1","[[2,0,0],[1,3],[0]]","10","0","","","","","","6","","","","",""
"","","","","","single-stim-button","294","1670614","0.0-3.0-40.1-0.1","63fc00a210518ac818a9c529","A3","batch1","tol_tohand","2090","","","","","","","","","tol_peg_1","2090","2090","0","[[1,0,0],[0,0],[3]]","2","[[2,0,0],[1,3],[0]]","10","0","","","","","","6","","","","",""
"","","","","","single-stim-button","295","1671415","0.0-3.0-40.1-1.1","63fc00a210518ac818a9c529","A3","batch1","tol_toboard","801","","","","","","","","","tol_peg_2","801","801","0","[[1,0,0],[2,0],[3]]","2","[[2,0,0],[1,3],[0]]","10","0","","","","","","6","","","","",""
"","","","","","single-stim-button","296","1677025","0.0-3.0-40.2-0.2","63fc00a210518ac818a9c529","A3","batch1","tol_tohand","5609","","","","","","","","","tol_peg_3","5609","5609","0","[[1,0,0],[2,0],[0]]","3","[[2,0,0],[1,3],[0]]","10","0","","","","","","6","","","","",""
"","","","","","single-stim-button","297","1677725","0.0-3.0-40.2-1.2","63fc00a210518ac818a9c529","A3","batch1","tol_toboard","699","","","","","","","","","tol_peg_2","699","699","0","[[1,0,0],[2,3],[0]]","3","[[2,0,0],[1,3],[0]]","10","0","","","","","","6","","","","",""
"","","","","","single-stim-button","298","1678360","0.0-3.0-40.3-0.3","63fc00a210518ac818a9c529","A3","batch1","tol_tohand","635","","","","","","","","","tol_peg_1","635","635","0","[[0,0,0],[2,3],[0]]","4","[[2,0,0],[1,3],[0]]","10","0","","","","","","6","","","","",""
"","","","","","single-stim-button","299","1679190","0.0-3.0-40.3-1.3","63fc00a210518ac818a9c529","A3","batch1","tol_toboard","828","","","","","","","","","tol_peg_3","828","828","0","[[0,0,0],[2,3],[1]]","4","[[2,0,0],[1,3],[0]]","10","0","","","","","","6","","","","",""
"","","","","","single-stim-button","300","1683185","0.0-3.0-40.4-0.4","63fc00a210518ac818a9c529","A3","batch1","tol_tohand","3994","","","","","","","","","tol_peg_2","3994","3994","0","[[0,0,0],[2,0],[1]]","5","[[2,0,0],[1,3],[0]]","10","0","","","","","","6","","","","",""
"","","","","","single-stim-button","301","1683699","0.0-3.0-40.4-1.4","63fc00a210518ac818a9c529","A3","batch1","tol_toboard","513","","","","","","","","","tol_peg_1","513","513","0","[[3,0,0],[2,0],[1]]","5","[[2,0,0],[1,3],[0]]","10","0","","","","","","6","","","","",""
"","","","","","single-stim-button","302","1687533","0.0-3.0-40.5-0.5","63fc00a210518ac818a9c529","A3","batch1","tol_tohand","3834","","","","","","","","","tol_peg_2","3834","3834","0","[[3,0,0],[0,0],[1]]","6","[[2,0,0],[1,3],[0]]","10","0","","","","","","6","","","","",""
"","","","","","single-stim-button","303","1688210","0.0-3.0-40.5-1.5","63fc00a210518ac818a9c529","A3","batch1","tol_toboard","677","","","","","","","","","tol_peg_1","677","677","0","[[3,2,0],[0,0],[1]]","6","[[2,0,0],[1,3],[0]]","10","0","","","","","","6","","","","",""
"","","","","","single-stim-button","304","1688853","0.0-3.0-40.6-0.6","63fc00a210518ac818a9c529","A3","batch1","tol_tohand","643","","","","","","","","","tol_peg_3","643","643","0","[[3,2,0],[0,0],[0]]","7","[[2,0,0],[1,3],[0]]","10","0","","","","","","6","","","","",""
"","","","","","single-stim-button","305","1689499","0.0-3.0-40.6-1.6","63fc00a210518ac818a9c529","A3","batch1","tol_toboard","646","","","","","","","","","tol_peg_2","646","646","0","[[3,2,0],[1,0],[0]]","7","[[2,0,0],[1,3],[0]]","10","0","","","","","","6","","","","",""
"","","","","","single-stim-button","306","1690678","0.0-3.0-40.7-0.7","63fc00a210518ac818a9c529","A3","batch1","tol_tohand","1179","","","","","","","","","tol_peg_1","1179","1179","0","[[3,0,0],[1,0],[0]]","8","[[2,0,0],[1,3],[0]]","10","0","","","","","","6","","","","",""
"","","","","","single-stim-button","307","1691266","0.0-3.0-40.7-1.7","63fc00a210518ac818a9c529","A3","batch1","tol_toboard","587","","","","","","","","","tol_peg_3","587","587","0","[[3,0,0],[1,0],[2]]","8","[[2,0,0],[1,3],[0]]","10","0","","","","","","6","","","","",""
"","","","","","single-stim-button","308","1691871","0.0-3.0-40.8-0.8","63fc00a210518ac818a9c529","A3","batch1","tol_tohand","604","","","","","","","","","tol_peg_1","604","604","0","[[0,0,0],[1,0],[2]]","9","[[2,0,0],[1,3],[0]]","10","0","","","","","","6","","","","",""
"","","","","","single-stim-button","309","1692461","0.0-3.0-40.8-1.8","63fc00a210518ac818a9c529","A3","batch1","tol_toboard","589","","","","","","","","","tol_peg_2","589","589","0","[[0,0,0],[1,3],[2]]","9","[[2,0,0],[1,3],[0]]","10","0","","","","","","6","","","","",""
"","","","","","single-stim-button","310","1692996","0.0-3.0-40.9-0.9","63fc00a210518ac818a9c529","A3","batch1","tol_tohand","533","","","","","","","","","tol_peg_3","533","533","0","[[0,0,0],[1,3],[0]]","10","[[2,0,0],[1,3],[0]]","10","0","","","","","","6","","","","",""
"","","","","","single-stim-button","311","1693624","0.0-3.0-40.9-1.9","63fc00a210518ac818a9c529","A3","batch1","tol_toboard","628","","","","","","","","","tol_peg_1","628","628","0","[[2,0,0],[1,3],[0]]","10","[[2,0,0],[1,3],[0]]","10","0","","","","","","6","","","","",""
"","","","","","poldrack-single-stim","312","1694626","0.0-3.0-41.0","63fc00a210518ac818a9c529","A3","batch1","tol_feedback","-1","","","","","true","","","","","1000","1000","500","","","","","","-1","none","true","27533","46654","","","","","",""
"","","","","","html-button-response","313","1695766","0.0-3.0-42.0","63fc00a210518ac818a9c529","A3","batch1","tol_trial_num","1138.0999999996275","<div class = centerbox><p class = center-block-text>problem <strong>12</strong> out of 25 problems</p></div>","0","","","","","","","","","","","","","","","","","","","","","","","","","",""
"","","","","","single-stim-button","314","1707800","0.0-3.0-43.0-0.0","63fc00a210518ac818a9c529","A3","batch1","tol_tohand","12034","","","","","","","","","tol_peg_1","12034","12034","0","[[1,0,0],[3,0],[0]]","1","[[2,3,0],[0,0],[1]]","11","0","","","","","","4","","","","",""
"","","","","","single-stim-button","315","1721717","0.0-3.0-43.0-1.0","63fc00a210518ac818a9c529","A3","batch1","tol_toboard","13915","","","","","","","","","tol_peg_1","13915","13915","0","[[1,2,0],[3,0],[0]]","1","[[2,3,0],[0,0],[1]]","11","0","","","","","","4","","","","",""
"","","","","","single-stim-button","316","1722196","0.0-3.0-43.1-0.1","63fc00a210518ac818a9c529","A3","batch1","tol_tohand","478","","","","","","","","","tol_peg_2","478","478","0","[[1,2,0],[0,0],[0]]","2","[[2,3,0],[0,0],[1]]","11","0","","","","","","4","","","","",""
"","","","","","single-stim-button","317","1722923","0.0-3.0-43.1-1.1","63fc00a210518ac818a9c529","A3","batch1","tol_toboard","726","","","","","","","","","tol_peg_3","726","726","0","[[1,2,0],[0,0],[3]]","2","[[2,3,0],[0,0],[1]]","11","0","","","","","","4","","","","",""
"","","","","","single-stim-button","318","1723908","0.0-3.0-43.2-0.2","63fc00a210518ac818a9c529","A3","batch1","tol_tohand","985","","","","","","","","","tol_peg_1","985","985","0","[[1,0,0],[0,0],[3]]","3","[[2,3,0],[0,0],[1]]","11","0","","","","","","4","","","","",""
"","","","","","single-stim-button","319","1725589","0.0-3.0-43.2-1.2","63fc00a210518ac818a9c529","A3","batch1","tol_toboard","1679","","","","","","","","","tol_peg_2","1679","1679","0","[[1,0,0],[2,0],[3]]","3","[[2,3,0],[0,0],[1]]","11","0","","","","","","4","","","","",""
"","","","","","single-stim-button","320","1726325","0.0-3.0-43.3-0.3","63fc00a210518ac818a9c529","A3","batch1","tol_tohand","735","","","","","","","","","tol_peg_1","735","735","0","[[0,0,0],[2,0],[3]]","4","[[2,3,0],[0,0],[1]]","11","0","","","","","","4","","","","",""
"","","","","","single-stim-button","321","1726886","0.0-3.0-43.3-1.3","63fc00a210518ac818a9c529","A3","batch1","tol_toboard","561","","","","","","","","","tol_peg_2","561","561","0","[[0,0,0],[2,1],[3]]","4","[[2,3,0],[0,0],[1]]","11","0","","","","","","4","","","","",""
"","","","","","single-stim-button","322","1735891","0.0-3.0-43.4-0.4","63fc00a210518ac818a9c529","A3","batch1","tol_tohand","9004","","","","","","","","","tol_peg_2","9004","9004","0","[[0,0,0],[2,0],[3]]","5","[[2,3,0],[0,0],[1]]","11","0","","","","","","4","","","","",""
"","","","","","single-stim-button","323","1736894","0.0-3.0-43.4-1.4","63fc00a210518ac818a9c529","A3","batch1","tol_toboard","1003","","","","","","","","","tol_peg_1","1003","1003","0","[[1,0,0],[2,0],[3]]","5","[[2,3,0],[0,0],[1]]","11","0","","","","","","4","","","","",""
"","","","","","single-stim-button","324","1738658","0.0-3.0-43.5-0.5","63fc00a210518ac818a9c529","A3","batch1","tol_tohand","1764","","","","","","","","","tol_peg_3","1764","1764","0","[[1,0,0],[2,0],[0]]","6","[[2,3,0],[0,0],[1]]","11","0","","","","","","4","","","","",""
"","","","","","single-stim-button","325","1739297","0.0-3.0-43.5-1.5","63fc00a210518ac818a9c529","A3","batch1","tol_toboard","639","","","","","","","","","tol_peg_1","639","639","0","[[1,3,0],[2,0],[0]]","6","[[2,3,0],[0,0],[1]]","11","0","","","","","","4","","","","",""
"","","","","","single-stim-button","326","1739795","0.0-3.0-43.6-0.6","63fc00a210518ac818a9c529","A3","batch1","tol_tohand","498","","","","","","","","","tol_peg_2","498","498","0","[[1,3,0],[0,0],[0]]","7","[[2,3,0],[0,0],[1]]","11","0","","","","","","4","","","","",""
"","","","","","single-stim-button","327","1740268","0.0-3.0-43.6-1.6","63fc00a210518ac818a9c529","A3","batch1","tol_toboard","473","","","","","","","","","tol_peg_3","473","473","0","[[1,3,0],[0,0],[2]]","7","[[2,3,0],[0,0],[1]]","11","0","","","","","","4","","","","",""
"","","","","","single-stim-button","328","1743834","0.0-3.0-43.7-0.7","63fc00a210518ac818a9c529","A3","batch1","tol_tohand","3565","","","","","","","","","tol_peg_1","3565","3565","0","[[1,0,0],[0,0],[2]]","8","[[2,3,0],[0,0],[1]]","11","0","","","","","","4","","","","",""
"","","","","","single-stim-button","329","1744749","0.0-3.0-43.7-1.7","63fc00a210518ac818a9c529","A3","batch1","tol_toboard","914","","","","","","","","","tol_peg_2","914","914","0","[[1,0,0],[3,0],[2]]","8","[[2,3,0],[0,0],[1]]","11","0","","","","","","4","","","","",""
"","","","","","single-stim-button","330","1745540","0.0-3.0-43.8-0.8","63fc00a210518ac818a9c529","A3","batch1","tol_tohand","791","","","","","","","","","tol_peg_1","791","791","0","[[0,0,0],[3,0],[2]]","9","[[2,3,0],[0,0],[1]]","11","0","","","","","","4","","","","",""
"","","","","","single-stim-button","331","1746092","0.0-3.0-43.8-1.8","63fc00a210518ac818a9c529","A3","batch1","tol_toboard","552","","","","","","","","","tol_peg_2","552","552","0","[[0,0,0],[3,1],[2]]","9","[[2,3,0],[0,0],[1]]","11","0","","","","","","4","","","","",""
"","","","","","single-stim-button","332","1746548","0.0-3.0-43.9-0.9","63fc00a210518ac818a9c529","A3","batch1","tol_tohand","456","","","","","","","","","tol_peg_3","456","456","0","[[0,0,0],[3,1],[0]]","10","[[2,3,0],[0,0],[1]]","11","0","","","","","","4","","","","",""
"","","","","","single-stim-button","333","1747124","0.0-3.0-43.9-1.9","63fc00a210518ac818a9c529","A3","batch1","tol_toboard","576","","","","","","","","","tol_peg_1","576","576","0","[[2,0,0],[3,1],[0]]","10","[[2,3,0],[0,0],[1]]","11","0","","","","","","4","","","","",""
"","","","","","single-stim-button","334","1747818","0.0-3.0-43.10-0.10","63fc00a210518ac818a9c529","A3","batch1","tol_tohand","693","","","","","","","","","tol_peg_2","693","693","0","[[2,0,0],[3,0],[0]]","11","[[2,3,0],[0,0],[1]]","11","0","","","","","","4","","","","",""
"","","","","","single-stim-button","335","1748655","0.0-3.0-43.10-1.10","63fc00a210518ac818a9c529","A3","batch1","tol_toboard","837","","","","","","","","","tol_peg_3","837","837","0","[[2,0,0],[3,0],[1]]","11","[[2,3,0],[0,0],[1]]","11","0","","","","","","4","","","","",""
"","","","","","single-stim-button","336","1749113","0.0-3.0-43.11-0.11","63fc00a210518ac818a9c529","A3","batch1","tol_tohand","458","","","","","","","","","tol_peg_2","458","458","0","[[2,0,0],[0,0],[1]]","12","[[2,3,0],[0,0],[1]]","11","0","","","","","","4","","","","",""
"","","","","","single-stim-button","337","1749735","0.0-3.0-43.11-1.11","63fc00a210518ac818a9c529","A3","batch1","tol_toboard","621","","","","","","","","","tol_peg_1","621","621","0","[[2,3,0],[0,0],[1]]","12","[[2,3,0],[0,0],[1]]","11","0","","","","","","4","","","","",""
"","","","","","poldrack-single-stim","338","1750741","0.0-3.0-44.0","63fc00a210518ac818a9c529","A3","batch1","tol_feedback","-1","","","","","true","","","","","1000","1000","500","","","","","","-1","none","true","12034","31461","","","","","",""
"","","","","","html-button-response","339","1752091","0.0-3.0-45.0","63fc00a210518ac818a9c529","A3","batch1","tol_trial_num","1348.0999999996275","<div class = centerbox><p class = center-block-text>problem <strong>13</strong> out of 25 problems</p></div>","0","","","","","","","","","","","","","","","","","","","","","","","","","",""
"","","","","","single-stim-button","340","1757855","0.0-3.0-46.0-0.0","63fc00a210518ac818a9c529","A3","batch1","tol_tohand","5764","","","","","","","","","tol_peg_1","5764","5764","0","[[1,0,0],[3,0],[0]]","1","[[0,0,0],[2,3],[1]]","12","0","","","","","","4","","","","",""
"","","","","","single-stim-button","341","1758723","0.0-3.0-46.0-1.0","63fc00a210518ac818a9c529","A3","batch1","tol_toboard","868","","","","","","","","","tol_peg_3","868","868","0","[[1,0,0],[3,0],[2]]","1","[[0,0,0],[2,3],[1]]","12","0","","","","","","4","","","","",""
"","","","","","single-stim-button","342","1772705","0.0-3.0-46.1-0.1","63fc00a210518ac818a9c529","A3","batch1","tol_tohand","13982","","","","","","","","","tol_peg_2","13982","13982","0","[[1,0,0],[0,0],[2]]","2","[[0,0,0],[2,3],[1]]","12","0","","","","","","4","","","","",""
"","","","","","single-stim-button","343","1773329","0.0-3.0-46.1-1.1","63fc00a210518ac818a9c529","A3","batch1","tol_toboard","624","","","","","","","","","tol_peg_1","624","624","0","[[1,3,0],[0,0],[2]]","2","[[0,0,0],[2,3],[1]]","12","0","","","","","","4","","","","",""
"","","","","","single-stim-button","344","1775459","0.0-3.0-46.2-0.2","63fc00a210518ac818a9c529","A3","batch1","tol_tohand","2130","","","","","","","","","tol_peg_3","2130","2130","0","[[1,3,0],[0,0],[0]]","3","[[0,0,0],[2,3],[1]]","12","0","","","","","","4","","","","",""
"","","","","","single-stim-button","345","1776004","0.0-3.0-46.2-1.2","63fc00a210518ac818a9c529","A3","batch1","tol_toboard","544","","","","","","","","","tol_peg_2","544","544","0","[[1,3,0],[2,0],[0]]","3","[[0,0,0],[2,3],[1]]","12","0","","","","","","4","","","","",""
"","","","","","single-stim-button","346","1778626","0.0-3.0-46.3-0.3","63fc00a210518ac818a9c529","A3","batch1","tol_tohand","2620","","","","","","","","","tol_peg_1","2620","2620","0","[[1,0,0],[2,0],[0]]","4","[[0,0,0],[2,3],[1]]","12","0","","","","","","4","","","","",""
"","","","","","single-stim-button","347","1779379","0.0-3.0-46.3-1.3","63fc00a210518ac818a9c529","A3","batch1","tol_toboard","753","","","","","","","","","tol_peg_2","753","753","0","[[1,0,0],[2,3],[0]]","4","[[0,0,0],[2,3],[1]]","12","0","","","","","","4","","","","",""
"","","","","","single-stim-button","348","1779888","0.0-3.0-46.4-0.4","63fc00a210518ac818a9c529","A3","batch1","tol_tohand","509","","","","","","","","","tol_peg_1","509","509","0","[[0,0,0],[2,3],[0]]","5","[[0,0,0],[2,3],[1]]","12","0","","","","","","4","","","","",""
"","","","","","single-stim-button","349","1780574","0.0-3.0-46.4-1.4","63fc00a210518ac818a9c529","A3","batch1","tol_toboard","686","","","","","","","","","tol_peg_3","686","686","0","[[0,0,0],[2,3],[1]]","5","[[0,0,0],[2,3],[1]]","12","0","","","","","","4","","","","",""
"","","","","","poldrack-single-stim","350","1781577","0.0-3.0-47.0","63fc00a210518ac818a9c529","A3","batch1","tol_feedback","-1","","","","","true","","","","","1000","1000","500","","","","","","-1","none","true","5764","25005","","","","","",""
"","","","","","html-button-response","351","1785214","0.0-3.0-48.0","63fc00a210518ac818a9c529","A3","batch1","attention_check","3635.9000000003725","<p class = block-text>How many balls are in your board<br></p>","1","","","true","","","","","","","","","","","","","","","","","","","","","","",""
"","","","","","html-button-response","352","1786750","0.0-3.0-49.0","63fc00a210518ac818a9c529","A3","batch1","tol_trial_num","1535","<div class = centerbox><p class = center-block-text>problem <strong>14</strong> out of 25 problems</p></div>","0","","","","","","","","","","","","","","","","","","","","","","","","","",""
"","","","","","single-stim-button","353","1792207","0.0-3.0-50.0-0.0","63fc00a210518ac818a9c529","A3","batch1","tol_tohand","5457","","","","","","","","","tol_peg_1","5457","5457","0","[[2,0,0],[3,0],[0]]","1","[[1,2,0],[3,0],[0]]","13","0","","","","","","4","","","","",""
"","","","","","single-stim-button","354","1792952","0.0-3.0-50.0-1.0","63fc00a210518ac818a9c529","A3","batch1","tol_toboard","745","","","","","","","","","tol_peg_2","745","745","0","[[2,0,0],[3,1],[0]]","1","[[1,2,0],[3,0],[0]]","13","0","","","","","","4","","","","",""
