"success","timeout","failed_images","failed_audio","failed_video","trial_type","trial_index","time_elapsed","internal_node_id","subject_id","study_id","session_id","view_history","rt","stimulus","response","task","correct","answer","item","fiar_detect_rt","fiar_detect_correct","total_correct_fiar_detect","post_trial_gap","choices","spm_correct","spm_rt","mouse_click","stim_duration","block_duration","timing_post_trial","current_position","tol_num_moves_made","tol_target","tol_problem_id","tol_rt","key_press","possible_responses","tol_correct","preplanning","tol_rt_per_trial","tol_min_moves"
"true","false","[]","[]","[]","preload","0","27543","0.0-0.0","63ff612a5b78c13aa28fa88c","B2","batch2","","","","","","","","","","","","","","","","","","","","","","","","","","","","","",""
"true","","","","","fullscreen","1","33605","0.0-1.0-0.0","63ff612a5b78c13aa28fa88c","B2","batch2","","","","","","","","","","","","","","","","","","","","","","","","","","","","","",""
"true","","","","","fullscreen","2","37521","0.0-2.0-0.0","63ff612a5b78c13aa28fa88c","B2","batch2","","","","","","","","","","","","","","","","","","","","","","","","","","","","","",""
"","","","","","instructions","3","79327","0.0-2.0-1.0-0.0","63ff612a5b78c13aa28fa88c","B2","batch2","[{""page_index"":0,""viewing_time"":28513.80000001192},{""page_index"":1,""viewing_time"":13242.599999964237}]","41805","","","","","","","","","","","","","","","","","","","","","","","","","","","",""
"","","","","","html-button-response","4","80872","0.0-2.0-1.0-1.0-0.0","63ff612a5b78c13aa28fa88c","B2","batch2","","1542.7999999523163","<p class=block-text> Let's answer a few questions <br>","0","pattern_enter_quiz","","","","","","","","","","","","","","","","","","","","","","","","",""
"","","","","","html-button-response","5","91195","0.0-2.0-1.0-1.0-1.0","63ff612a5b78c13aa28fa88c","B2","batch2","","10270.899999976158","<p class = block-text>True or False: You will have as much time as you want to make each choice. <br></p>","1","pattern_quiz","true","","","","","","","","","","","","","","","","","","","","","","","",""
"","","","","","html-button-response","6","95402","0.0-2.0-1.0-1.0-2.0","63ff612a5b78c13aa28fa88c","B2","batch2","","4157.300000011921","<p class = block-text>Correct! You should make your choice <strong> as fast as you can</strong>.</p>","0","pattern_quiz_feedback","","","","","","","","","","","","","","","","","","","","","","","","",""
"","","","","","html-button-response","7","104366","0.0-2.0-1.0-1.0-3.0","63ff612a5b78c13aa28fa88c","B2","batch2","","8962.699999988079","<p class = block-text>True or False: You will look for 4 pieces in black or white color connected in a row either horizontally, vertically or diagonally. <br></p>","0","pattern_quiz","true","","","","","","","","","","","","","","","","","","","","","","","",""
"","","","","","html-button-response","8","105497","0.0-2.0-1.0-1.0-4.0","63ff612a5b78c13aa28fa88c","B2","batch2","","1129.5","<p class = block-text>Correct! </p>","0","pattern_quiz_feedback","","","","","","","","","","","","","","","","","","","","","","","","",""
"","","","","","html-button-response","9","110246","0.0-2.0-2.0","63ff612a5b78c13aa28fa88c","B2","batch2","","4746.399999976158","<p class=block-text> Now that you've understood the game, let's do a few practice trials before we start!<br> <br>","0","pattern_enter_practice","","","","","","","","","","","","","","","","","","","","","","","","",""
"","","","","","image-keyboard-response","10","833179","0.0-2.0-3.0-0.0","63ff612a5b78c13aa28fa88c","B2","batch2","","386406.6999999881","stim/prac_yes_20_dia_b1.png","f","pattern_practice","true","f","","","","","","","","","","","","","","","","","","","","","","",""
"","","","","","html-keyboard-response","11","834206","0.0-2.0-3.0-1.0","63ff612a5b78c13aa28fa88c","B2","batch2","","null","<p style=""font-size:30px;color:green;"">Correct!</p>","null","pattern_feedback","","","","","","","","","","","","","","","","","","","","","","","","",""
"","","","","","image-keyboard-response","12","836146","0.0-2.0-3.0-0.1","63ff612a5b78c13aa28fa88c","B2","batch2","","1938.3999999761581","stim/prac_yes_18_hor_w1.png","f","pattern_practice","true","f","","","","","","","","","","","","","","","","","","","","","","",""
"","","","","","html-keyboard-response","13","837173","0.0-2.0-3.0-1.1","63ff612a5b78c13aa28fa88c","B2","batch2","","null","<p style=""font-size:30px;color:green;"">Correct!</p>","null","pattern_feedback","","","","","","","","","","","","","","","","","","","","","","","","",""
"","","","","","image-keyboard-response","14","841106","0.0-2.0-3.0-0.2","63ff612a5b78c13aa28fa88c","B2","batch2","","3932","stim/prac_no_16_1.png","j","pattern_practice","true","j","","","","","","","","","","","","","","","","","","","","","","",""
"","","","","","html-keyboard-response","15","842112","0.0-2.0-3.0-1.2","63ff612a5b78c13aa28fa88c","B2","batch2","","null","<p style=""font-size:30px;color:green;"">Correct!</p>","null","pattern_feedback","","","","","","","","","","","","","","","","","","","","","","","","",""
"","","","","","image-keyboard-response","16","855668","0.0-2.0-3.0-0.3","63ff612a5b78c13aa28fa88c","B2","batch2","","13554.200000047684","stim/prac_no_18_1.png","j","pattern_practice","true","j","","","","","","","","","","","","","","","","","","","","","","",""
"","","","","","html-keyboard-response","17","856690","0.0-2.0-3.0-1.3","63ff612a5b78c13aa28fa88c","B2","batch2","","null","<p style=""font-size:30px;color:green;"">Correct!</p>","null","pattern_feedback","","","","","","","","","","","","","","","","","","","","","","","","",""
"","","","","","image-keyboard-response","18","858898","0.0-2.0-3.0-0.4","63ff612a5b78c13aa28fa88c","B2","batch2","","2206.5","stim/prac_yes_16_ver_w1.png","f","pattern_practice","true","f","","","","","","","","","","","","","","","","","","","","","","",""
"","","","","","html-keyboard-response","19","859923","0.0-2.0-3.0-1.4","63ff612a5b78c13aa28fa88c","B2","batch2","","null","<p style=""font-size:30px;color:green;"">Correct!</p>","null","pattern_feedback","","","","","","","","","","","","","","","","","","","","","","","","",""
"","","","","","html-button-response","20","932237","0.0-2.0-4.0","63ff612a5b78c13aa28fa88c","B2","batch2","","72312.69999998808","<p class=block-text> Good job! You are done with practice trials!<br>
        You responded correctly on 100% of the trials.<br>
        Press the button below to start official trials. Now you won't see any feedback about your response</p>","0","pattern_enter_official_trials","","","","","","","","","","","","","","","","","","","","","","","","",""
"","","","","","html-keyboard-response","21","933048","0.0-2.0-5.0-0.0","63ff612a5b78c13aa28fa88c","B2","batch2","","null","<p class=block-text>Trial 1 out of 78</p>","null","pattern_show_trial_num","","","","","","","","","","","","","","","","","","","","","","","","",""
"","","","","","image-keyboard-response","22","939039","0.0-2.0-5.0-1.0","63ff612a5b78c13aa28fa88c","B2","batch2","","5988.599999964237","stim/no_53_1_b.png","f","pattern_response","false","j","pattern_33","5988.599999964237","false","0","","","","","","","","","","","","","","","","","","",""
"","","","","","html-keyboard-response","23","940346","0.0-2.0-5.0-0.1","63ff612a5b78c13aa28fa88c","B2","batch2","","null","<p class=block-text>Trial 2 out of 78</p>","null","pattern_show_trial_num","","","","","","","","","","","","","","","","","","","","","","","","",""
"","","","","","image-keyboard-response","24","951328","0.0-2.0-5.0-1.1","63ff612a5b78c13aa28fa88c","B2","batch2","","10981.299999952316","stim/no_39_1_w.png","j","pattern_response","true","j","pattern_21","10981.299999952316","true","1","","","","","","","","","","","","","","","","","","",""
"","","","","","html-keyboard-response","25","952642","0.0-2.0-5.0-0.2","63ff612a5b78c13aa28fa88c","B2","batch2","","null","<p class=block-text>Trial 3 out of 78</p>","null","pattern_show_trial_num","","","","","","","","","","","","","","","","","","","","","","","","",""
"","","","","","image-keyboard-response","26","955079","0.0-2.0-5.0-1.2","63ff612a5b78c13aa28fa88c","B2","batch2","","2434.5","stim/no_28_2.png","f","pattern_response","false","j","pattern_11","2434.5","false","1","","","","","","","","","","","","","","","","","","",""
"","","","","","html-keyboard-response","27","956392","0.0-2.0-5.0-0.3","63ff612a5b78c13aa28fa88c","B2","batch2","","null","<p class=block-text>Trial 4 out of 78</p>","null","pattern_show_trial_num","","","","","","","","","","","","","","","","","","","","","","","","",""
"","","","","","image-keyboard-response","28","960309","0.0-2.0-5.0-1.3","63ff612a5b78c13aa28fa88c","B2","batch2","","3915.099999964237","stim/no_37_2_w.png","f","pattern_response","false","j","pattern_19","3915.099999964237","false","1","","","","","","","","","","","","","","","","","","",""
"","","","","","html-keyboard-response","29","961627","0.0-2.0-5.0-0.4","63ff612a5b78c13aa28fa88c","B2","batch2","","null","<p class=block-text>Trial 5 out of 78</p>","null","pattern_show_trial_num","","","","","","","","","","","","","","","","","","","","","","","","",""
"","","","","","image-keyboard-response","30","965499","0.0-2.0-5.0-1.4","63ff612a5b78c13aa28fa88c","B2","batch2","","3870.300000011921","stim/no_18_1_b.png","f","pattern_response","false","j","pattern_05","3870.300000011921","false","1","","","","","","","","","","","","","","","","","","",""
"","","","","","html-keyboard-response","31","966814","0.0-2.0-5.0-0.5","63ff612a5b78c13aa28fa88c","B2","batch2","","null","<p class=block-text>Trial 6 out of 78</p>","null","pattern_show_trial_num","","","","","","","","","","","","","","","","","","","","","","","","",""
"","","","","","image-keyboard-response","32","978827","0.0-2.0-5.0-1.5","63ff612a5b78c13aa28fa88c","B2","batch2","","12011.400000035763","stim/no_51_1.png","f","pattern_response","false","j","pattern_31","12011.400000035763","false","1","","","","","","","","","","","","","","","","","","",""
"","","","","","html-keyboard-response","33","980142","0.0-2.0-5.0-0.6","63ff612a5b78c13aa28fa88c","B2","batch2","","null","<p class=block-text>Trial 7 out of 78</p>","null","pattern_show_trial_num","","","","","","","","","","","","","","","","","","","","","","","","",""
"","","","","","image-keyboard-response","34","1003954","0.0-2.0-5.0-1.6","63ff612a5b78c13aa28fa88c","B2","batch2","","23815.69999998808","stim/no_58_1_w.png","f","pattern_response","false","j","pattern_35","23815.69999998808","false","1","","","","","","","","","","","","","","","","","","",""
"","","","","","html-keyboard-response","35","1005277","0.0-2.0-5.0-0.7","63ff612a5b78c13aa28fa88c","B2","batch2","","null","<p class=block-text>Trial 8 out of 78</p>","null","pattern_show_trial_num","","","","","","","","","","","","","","","","","","","","","","","","",""
"","","","","","image-keyboard-response","36","1028562","0.0-2.0-5.0-1.7","63ff612a5b78c13aa28fa88c","B2","batch2","","23283.30000001192","stim/no_25_1_b.png","f","pattern_response","false","j","pattern_09","23283.30000001192","false","1","","","","","","","","","","","","","","","","","","",""
"","","","","","html-keyboard-response","37","1029888","0.0-2.0-5.0-0.8","63ff612a5b78c13aa28fa88c","B2","batch2","","null","<p class=block-text>Trial 9 out of 78</p>","null","pattern_show_trial_num","","","","","","","","","","","","","","","","","","","","","","","","",""
"","","","","","image-keyboard-response","38","1031434","0.0-2.0-5.0-1.8","63ff612a5b78c13aa28fa88c","B2","batch2","","1544.800000011921","stim/yes_23_ver_b1.png","f","pattern_response","true","f","pattern_48","1544.800000011921","true","2","","","","","","","","","","","","","","","","","","",""
"","","","","","html-keyboard-response","39","1032762","0.0-2.0-5.0-0.9","63ff612a5b78c13aa28fa88c","B2","batch2","","null","<p class=block-text>Trial 10 out of 78</p>","null","pattern_show_trial_num","","","","","","","","","","","","","","","","","","","","","","","","",""
"","","","","","image-keyboard-response","40","1034604","0.0-2.0-5.0-1.9","63ff612a5b78c13aa28fa88c","B2","batch2","","1840.699999988079","stim/yes_53_ver_b1_b.png","f","pattern_response","true","f","pattern_74","1840.699999988079","true","3","","","","","","","","","","","","","","","","","","",""
"","","","","","html-keyboard-response","41","1035918","0.0-2.0-5.0-0.10","63ff612a5b78c13aa28fa88c","B2","batch2","","null","<p class=block-text>Trial 11 out of 78</p>","null","pattern_show_trial_num","","","","","","","","","","","","","","","","","","","","","","","","",""
"","","","","","image-keyboard-response","42","1041962","0.0-2.0-5.0-1.10","63ff612a5b78c13aa28fa88c","B2","batch2","","6042.600000023842","stim/no_36_1_b.png","j","pattern_response","true","j","pattern_17","6042.600000023842","true","4","","","","","","","","","","","","","","","","","","",""
"","","","","","html-keyboard-response","43","1043277","0.0-2.0-5.0-0.11","63ff612a5b78c13aa28fa88c","B2","batch2","","null","<p class=block-text>Trial 12 out of 78</p>","null","pattern_show_trial_num","","","","","","","","","","","","","","","","","","","","","","","","",""
"","","","","","image-keyboard-response","44","1044732","0.0-2.0-5.0-1.11","63ff612a5b78c13aa28fa88c","B2","batch2","","1453.300000011921","stim/yes_37_hor_w1_w.png","f","pattern_response","true","f","pattern_60","1453.300000011921","true","5","","","","","","","","","","","","","","","","","","",""
"","","","","","html-keyboard-response","45","1046043","0.0-2.0-5.0-0.12","63ff612a5b78c13aa28fa88c","B2","batch2","","null","<p class=block-text>Trial 13 out of 78</p>","null","pattern_show_trial_num","","","","","","","","","","","","","","","","","","","","","","","","",""
"","","","","","image-keyboard-response","46","1047752","0.0-2.0-5.0-1.12","63ff612a5b78c13aa28fa88c","B2","batch2","","1707.699999988079","stim/no_22_1_b.png","j","pattern_response","true","j","pattern_07","1707.699999988079","true","6","","","","","","","","","","","","","","","","","","",""
"","","","","","html-keyboard-response","47","1049074","0.0-2.0-5.0-0.13","63ff612a5b78c13aa28fa88c","B2","batch2","","null","<p class=block-text>Trial 14 out of 78</p>","null","pattern_show_trial_num","","","","","","","","","","","","","","","","","","","","","","","","",""
"","","","","","image-keyboard-response","48","1051904","0.0-2.0-5.0-1.13","63ff612a5b78c13aa28fa88c","B2","batch2","","2828.599999964237","stim/yes_63_dia_b1.png","f","pattern_response","true","f","pattern_78","2828.599999964237","true","7","","","","","","","","","","","","","","","","","","",""
"","","","","","html-keyboard-response","49","1053230","0.0-2.0-5.0-0.14","63ff612a5b78c13aa28fa88c","B2","batch2","","null","<p class=block-text>Trial 15 out of 78</p>","null","pattern_show_trial_num","","","","","","","","","","","","","","","","","","","","","","","","",""
"","","","","","image-keyboard-response","50","1055352","0.0-2.0-5.0-1.14","63ff612a5b78c13aa28fa88c","B2","batch2","","2120.2000000476837","stim/yes_51_dia_b1.png","f","pattern_response","true","f","pattern_72","2120.2000000476837","true","8","","","","","","","","","","","","","","","","","","",""
"","","","","","html-keyboard-response","51","1056668","0.0-2.0-5.0-0.15","63ff612a5b78c13aa28fa88c","B2","batch2","","null","<p class=block-text>Trial 16 out of 78</p>","null","pattern_show_trial_num","","","","","","","","","","","","","","","","","","","","","","","","",""
"","","","","","image-keyboard-response","52","1058075","0.0-2.0-5.0-1.15","63ff612a5b78c13aa28fa88c","B2","batch2","","1405.0999999642372","stim/yes_26_dia_w2_w.png","f","pattern_response","true","f","pattern_50","1405.0999999642372","true","9","","","","","","","","","","","","","","","","","","",""
"","","","","","html-keyboard-response","53","1059387","0.0-2.0-5.0-0.16","63ff612a5b78c13aa28fa88c","B2","batch2","","null","<p class=block-text>Trial 17 out of 78</p>","null","pattern_show_trial_num","","","","","","","","","","","","","","","","","","","","","","","","",""
"","","","","","image-keyboard-response","54","1060974","0.0-2.0-5.0-1.16","63ff612a5b78c13aa28fa88c","B2","batch2","","1585.800000011921","stim/yes_17_ver_b1_b.png","f","pattern_response","true","f","pattern_46","1585.800000011921","true","10","","","","","","","","","","","","","","","","","","",""
"","","","","","html-keyboard-response","55","1062294","0.0-2.0-5.0-0.17","63ff612a5b78c13aa28fa88c","B2","batch2","","null","<p class=block-text>Trial 18 out of 78</p>","null","pattern_show_trial_num","","","","","","","","","","","","","","","","","","","","","","","","",""
"","","","","","image-keyboard-response","56","1064110","0.0-2.0-5.0-1.17","63ff612a5b78c13aa28fa88c","B2","batch2","","1814.7000000476837","stim/yes_58_dia_w1_w.png","f","pattern_response","true","f","pattern_76","1814.7000000476837","true","11","","","","","","","","","","","","","","","","","","",""
"","","","","","html-keyboard-response","57","1065433","0.0-2.0-5.0-0.18","63ff612a5b78c13aa28fa88c","B2","batch2","","null","<p class=block-text>Trial 19 out of 78</p>","null","pattern_show_trial_num","","","","","","","","","","","","","","","","","","","","","","","","",""
"","","","","","image-keyboard-response","58","1067314","0.0-2.0-5.0-1.18","63ff612a5b78c13aa28fa88c","B2","batch2","","1879.1000000238419","stim/yes_15_dia_b1u_b.png","f","pattern_response","true","f","pattern_44","1879.1000000238419","true","12","","","","","","","","","","","","","","","","","","",""
"","","","","","html-keyboard-response","59","1068637","0.0-2.0-5.0-0.19","63ff612a5b78c13aa28fa88c","B2","batch2","","null","<p class=block-text>Trial 20 out of 78</p>","null","pattern_show_trial_num","","","","","","","","","","","","","","","","","","","","","","","","",""
"","","","","","image-keyboard-response","60","1069722","0.0-2.0-5.0-1.19","63ff612a5b78c13aa28fa88c","B2","batch2","","1083.4000000357628","stim/yes_12_hor_w1_w.png","f","pattern_response","true","f","pattern_42","1083.4000000357628","true","13","","","","","","","","","","","","","","","","","","",""
"","","","","","html-keyboard-response","61","1071042","0.0-2.0-5.0-0.20","63ff612a5b78c13aa28fa88c","B2","batch2","","null","<p class=block-text>Trial 21 out of 78</p>","null","pattern_show_trial_num","","","","","","","","","","","","","","","","","","","","","","","","",""
"","","","","","image-keyboard-response","62","1073914","0.0-2.0-5.0-1.20","63ff612a5b78c13aa28fa88c","B2","batch2","","2870.599999964237","stim/no_47_1_b.png","f","pattern_response","false","j","pattern_27","2870.599999964237","false","13","","","","","","","","","","","","","","","","","","",""
"","","","","","html-keyboard-response","63","1075231","0.0-2.0-5.0-0.21","63ff612a5b78c13aa28fa88c","B2","batch2","","null","<p class=block-text>Trial 22 out of 78</p>","null","pattern_show_trial_num","","","","","","","","","","","","","","","","","","","","","","","","",""
"","","","","","image-keyboard-response","64","1076504","0.0-2.0-5.0-1.21","63ff612a5b78c13aa28fa88c","B2","batch2","","1270.8999999761581","stim/yes_36_ver_w1_w.png","f","pattern_response","true","f","pattern_58","1270.8999999761581","true","14","","","","","","","","","","","","","","","","","","",""
"","","","","","html-keyboard-response","65","1077824","0.0-2.0-5.0-0.22","63ff612a5b78c13aa28fa88c","B2","batch2","","null","<p class=block-text>Trial 23 out of 78</p>","null","pattern_show_trial_num","","","","","","","","","","","","","","","","","","","","","","","","",""
"","","","","","image-keyboard-response","66","1078964","0.0-2.0-5.0-1.22","63ff612a5b78c13aa28fa88c","B2","batch2","","1138.3999999761581","stim/no_67_1.png","f","pattern_response","false","j","pattern_39","1138.3999999761581","false","14","","","","","","","","","","","","","","","","","","",""
"","","","","","html-keyboard-response","67","1080293","0.0-2.0-5.0-0.23","63ff612a5b78c13aa28fa88c","B2","batch2","","null","<p class=block-text>Trial 24 out of 78</p>","null","pattern_show_trial_num","","","","","","","","","","","","","","","","","","","","","","","","",""
"","","","","","image-keyboard-response","68","1082494","0.0-2.0-5.0-1.23","63ff612a5b78c13aa28fa88c","B2","batch2","","2199.5","stim/no_12_1.png","j","pattern_response","true","j","pattern_01","2199.5","true","15","","","","","","","","","","","","","","","","","","",""
"","","","","","html-keyboard-response","69","1083808","0.0-2.0-5.0-0.24","63ff612a5b78c13aa28fa88c","B2","batch2","","null","<p class=block-text>Trial 25 out of 78</p>","null","pattern_show_trial_num","","","","","","","","","","","","","","","","","","","","","","","","",""
"","","","","","image-keyboard-response","70","1086114","0.0-2.0-5.0-1.24","63ff612a5b78c13aa28fa88c","B2","batch2","","2304.399999976158","stim/no_45_1_w.png","f","pattern_response","false","j","pattern_25","2304.399999976158","false","15","","","","","","","","","","","","","","","","","","",""
"","","","","","html-keyboard-response","71","1087448","0.0-2.0-5.0-0.25","63ff612a5b78c13aa28fa88c","B2","batch2","","null","<p class=block-text>Trial 26 out of 78</p>","null","pattern_show_trial_num","","","","","","","","","","","","","","","","","","","","","","","","",""
"","","","","","image-keyboard-response","72","1088994","0.0-2.0-5.0-1.25","63ff612a5b78c13aa28fa88c","B2","batch2","","1544.3999999761581","stim/yes_29_hor_b1_b.png","f","pattern_response","true","f","pattern_52","1544.3999999761581","true","16","","","","","","","","","","","","","","","","","","",""
"","","","","","html-keyboard-response","73","1090308","0.0-2.0-5.0-0.26","63ff612a5b78c13aa28fa88c","B2","batch2","","null","<p class=block-text>Trial 27 out of 78</p>","null","pattern_show_trial_num","","","","","","","","","","","","","","","","","","","","","","","","",""
"","","","","","image-keyboard-response","74","1091484","0.0-2.0-5.0-1.26","63ff612a5b78c13aa28fa88c","B2","batch2","","1174.5","stim/yes_70_ver_b1.png","f","pattern_response","true","f","pattern_80","1174.5","true","17","","","","","","","","","","","","","","","","","","",""
"","","","","","html-keyboard-response","75","1092809","0.0-2.0-5.0-0.27","63ff612a5b78c13aa28fa88c","B2","batch2","","null","<p class=block-text>Trial 28 out of 78</p>","null","pattern_show_trial_num","","","","","","","","","","","","","","","","","","","","","","","","",""
"","","","","","image-keyboard-response","76","1095094","0.0-2.0-5.0-1.27","63ff612a5b78c13aa28fa88c","B2","batch2","","2284","stim/yes_42_dia_w1_w.png","f","pattern_response","true","f","pattern_64","2284","true","18","","","","","","","","","","","","","","","","","","",""
"","","","","","html-keyboard-response","77","1096418","0.0-2.0-5.0-0.28","63ff612a5b78c13aa28fa88c","B2","batch2","","null","<p class=block-text>Trial 29 out of 78</p>","null","pattern_show_trial_num","","","","","","","","","","","","","","","","","","","","","","","","",""
"","","","","","image-keyboard-response","78","1103114","0.0-2.0-5.0-1.28","63ff612a5b78c13aa28fa88c","B2","batch2","","6694.699999988079","stim/no_30_1_b.png","j","pattern_response","true","j","pattern_13","6694.699999988079","true","19","","","","","","","","","","","","","","","","","","",""
"","","","","","html-keyboard-response","79","1104434","0.0-2.0-5.0-0.29","63ff612a5b78c13aa28fa88c","B2","batch2","","null","<p class=block-text>Trial 30 out of 78</p>","null","pattern_show_trial_num","","","","","","","","","","","","","","","","","","","","","","","","",""
"","","","","","image-keyboard-response","80","1106144","0.0-2.0-5.0-1.29","63ff612a5b78c13aa28fa88c","B2","batch2","","1708.199999988079","stim/yes_44_ver_w1_w.png","f","pattern_response","true","f","pattern_66","1708.199999988079","true","20","","","","","","","","","","","","","","","","","","",""
"","","","","","html-keyboard-response","81","1107464","0.0-2.0-5.0-0.30","63ff612a5b78c13aa28fa88c","B2","batch2","","null","<p class=block-text>Trial 31 out of 78</p>","null","pattern_show_trial_num","","","","","","","","","","","","","","","","","","","","","","","","",""
"","","","","","image-keyboard-response","82","1110294","0.0-2.0-5.0-1.30","63ff612a5b78c13aa28fa88c","B2","batch2","","2828.699999988079","stim/yes_49_hor_w1_b.png","f","pattern_response","true","f","pattern_70","2828.699999988079","true","21","","","","","","","","","","","","","","","","","","",""
"","","","","","html-keyboard-response","83","1111623","0.0-2.0-5.0-0.31","63ff612a5b78c13aa28fa88c","B2","batch2","","null","<p class=block-text>Trial 32 out of 78</p>","null","pattern_show_trial_num","","","","","","","","","","","","","","","","","","","","","","","","",""
"","","","","","image-keyboard-response","84","1113052","0.0-2.0-5.0-1.31","63ff612a5b78c13aa28fa88c","B2","batch2","","1427.2999999523163","stim/no_43_2_b.png","f","pattern_response","false","j","pattern_23","1427.2999999523163","false","21","","","","","","","","","","","","","","","","","","",""
"","","","","","html-keyboard-response","85","1114371","0.0-2.0-5.0-0.32","63ff612a5b78c13aa28fa88c","B2","batch2","","null","<p class=block-text>Trial 33 out of 78</p>","null","pattern_show_trial_num","","","","","","","","","","","","","","","","","","","","","","","","",""
"","","","","","image-keyboard-response","86","1118242","0.0-2.0-5.0-1.32","63ff612a5b78c13aa28fa88c","B2","batch2","","3869.699999988079","stim/yes_33_dia_w1_w.png","j","pattern_response","false","f","pattern_56","3869.699999988079","false","21","","","","","","","","","","","","","","","","","","",""
"","","","","","html-keyboard-response","87","1119559","0.0-2.0-5.0-0.33","63ff612a5b78c13aa28fa88c","B2","batch2","","null","<p class=block-text>Trial 34 out of 78</p>","null","pattern_show_trial_num","","","","","","","","","","","","","","","","","","","","","","","","",""
"","","","","","image-keyboard-response","88","1120892","0.0-2.0-5.0-1.33","63ff612a5b78c13aa28fa88c","B2","batch2","","1331.199999988079","stim/no_49_2_b.png","f","pattern_response","false","j","pattern_29","1331.199999988079","false","21","","","","","","","","","","","","","","","","","","",""
"","","","","","html-keyboard-response","89","1122214","0.0-2.0-5.0-0.34","63ff612a5b78c13aa28fa88c","B2","batch2","","null","<p class=block-text>Trial 35 out of 78</p>","null","pattern_show_trial_num","","","","","","","","","","","","","","","","","","","","","","","","",""
"","","","","","image-keyboard-response","90","1124797","0.0-2.0-5.0-1.34","63ff612a5b78c13aa28fa88c","B2","batch2","","2578","stim/no_33_1_b.png","f","pattern_response","false","j","pattern_15","2578","false","21","","","","","","","","","","","","","","","","","","",""
"","","","","","html-keyboard-response","91","1126123","0.0-2.0-5.0-0.35","63ff612a5b78c13aa28fa88c","B2","batch2","","null","<p class=block-text>Trial 36 out of 78</p>","null","pattern_show_trial_num","","","","","","","","","","","","","","","","","","","","","","","","",""
"","","","","","image-keyboard-response","92","1127337","0.0-2.0-5.0-1.35","63ff612a5b78c13aa28fa88c","B2","batch2","","1212.199999988079","stim/yes_39_hor_w1_w.png","f","pattern_response","true","f","pattern_62","1212.199999988079","true","22","","","","","","","","","","","","","","","","","","",""
"","","","","","html-keyboard-response","93","1128654","0.0-2.0-5.0-0.36","63ff612a5b78c13aa28fa88c","B2","batch2","","null","<p class=block-text>Trial 37 out of 78</p>","null","pattern_show_trial_num","","","","","","","","","","","","","","","","","","","","","","","","",""
"","","","","","image-keyboard-response","94","1129687","0.0-2.0-5.0-1.36","63ff612a5b78c13aa28fa88c","B2","batch2","","1031.5999999642372","stim/yes_46_ver_b1_b.png","f","pattern_response","true","f","pattern_68","1031.5999999642372","true","23","","","","","","","","","","","","","","","","","","",""
"","","","","","html-keyboard-response","95","1131014","0.0-2.0-5.0-0.37","63ff612a5b78c13aa28fa88c","B2","batch2","","null","<p class=block-text>Trial 38 out of 78</p>","null","pattern_show_trial_num","","","","","","","","","","","","","","","","","","","","","","","","",""
"","","","","","image-keyboard-response","96","1132777","0.0-2.0-5.0-1.37","63ff612a5b78c13aa28fa88c","B2","batch2","","1761.6000000238419","stim/yes_30_ver_b1_b.png","f","pattern_response","true","f","pattern_54","1761.6000000238419","true","24","","","","","","","","","","","","","","","","","","",""
"","","","","","html-keyboard-response","97","1134093","0.0-2.0-5.0-0.38","63ff612a5b78c13aa28fa88c","B2","batch2","","null","<p class=block-text>Trial 39 out of 78</p>","null","pattern_show_trial_num","","","","","","","","","","","","","","","","","","","","","","","","",""
"","","","","","image-keyboard-response","98","1137257","0.0-2.0-5.0-1.38","63ff612a5b78c13aa28fa88c","B2","batch2","","3162","stim/no_15_1_w.png","j","pattern_response","true","j","pattern_03","3162","true","25","","","","","","","","","","","","","","","","","","",""
"","","","","","image-keyboard-response","99","1141508","0.0-2.0-6.0","63ff612a5b78c13aa28fa88c","B2","batch2","","3742.699999988079","stim/empty_board.png","j","attention_check","true","j","","","","","500","[""f"",""j""]","","","","","","","","","","","","","","","","",""
"","","","","","html-keyboard-response","100","1142311","0.0-2.0-7.0-0.0","63ff612a5b78c13aa28fa88c","B2","batch2","","null","<p class=block-text>Trial 40 out of 78</p>","null","pattern_show_trial_num","","","","","","","","","","","","","","","","","","","","","","","","",""
"","","","","","image-keyboard-response","101","1143835","0.0-2.0-7.0-1.0","63ff612a5b78c13aa28fa88c","B2","batch2","","1522.2999999523163","stim/yes_14_hor_b1_w.png","f","pattern_response","true","f","pattern_43","1522.2999999523163","true","26","","","","","","","","","","","","","","","","","","",""
"","","","","","html-keyboard-response","102","1145155","0.0-2.0-7.0-0.1","63ff612a5b78c13aa28fa88c","B2","batch2","","null","<p class=block-text>Trial 41 out of 78</p>","null","pattern_show_trial_num","","","","","","","","","","","","","","","","","","","","","","","","",""
"","","","","","image-keyboard-response","103","1150157","0.0-2.0-7.0-1.1","63ff612a5b78c13aa28fa88c","B2","batch2","","5000.699999988079","stim/no_62_1_w.png","f","pattern_response","false","j","pattern_36","5000.699999988079","false","26","","","","","","","","","","","","","","","","","","",""
"","","","","","html-keyboard-response","104","1151483","0.0-2.0-7.0-0.2","63ff612a5b78c13aa28fa88c","B2","batch2","","null","<p class=block-text>Trial 42 out of 78</p>","null","pattern_show_trial_num","","","","","","","","","","","","","","","","","","","","","","","","",""
"","","","","","image-keyboard-response","105","1154757","0.0-2.0-7.0-1.2","63ff612a5b78c13aa28fa88c","B2","batch2","","3272.699999988079","stim/no_65_1_b.png","f","pattern_response","false","j","pattern_38","3272.699999988079","false","26","","","","","","","","","","","","","","","","","","",""
"","","","","","html-keyboard-response","106","1156077","0.0-2.0-7.0-0.3","63ff612a5b78c13aa28fa88c","B2","batch2","","null","<p class=block-text>Trial 43 out of 78</p>","null","pattern_show_trial_num","","","","","","","","","","","","","","","","","","","","","","","","",""
"","","","","","image-keyboard-response","107","1157248","0.0-2.0-7.0-1.3","63ff612a5b78c13aa28fa88c","B2","batch2","","1168.3999999761581","stim/yes_48_dia_w1_w.png","f","pattern_response","true","f","pattern_69","1168.3999999761581","true","27","","","","","","","","","","","","","","","","","","",""
"","","","","","html-keyboard-response","108","1158562","0.0-2.0-7.0-0.4","63ff612a5b78c13aa28fa88c","B2","batch2","","null","<p class=block-text>Trial 44 out of 78</p>","null","pattern_show_trial_num","","","","","","","","","","","","","","","","","","","","","","","","",""
"","","","","","image-keyboard-response","109","1160725","0.0-2.0-7.0-1.4","63ff612a5b78c13aa28fa88c","B2","batch2","","2162.5","stim/yes_35_dia_b1.png","f","pattern_response","true","f","pattern_57","2162.5","true","28","","","","","","","","","","","","","","","","","","",""
"","","","","","html-keyboard-response","110","1162045","0.0-2.0-7.0-0.5","63ff612a5b78c13aa28fa88c","B2","batch2","","null","<p class=block-text>Trial 45 out of 78</p>","null","pattern_show_trial_num","","","","","","","","","","","","","","","","","","","","","","","","",""
"","","","","","image-keyboard-response","111","1163557","0.0-2.0-7.0-1.5","63ff612a5b78c13aa28fa88c","B2","batch2","","1510.5999999642372","stim/no_50_1.png","f","pattern_response","false","j","pattern_30","1510.5999999642372","false","28","","","","","","","","","","","","","","","","","","",""
"","","","","","html-keyboard-response","112","1164874","0.0-2.0-7.0-0.6","63ff612a5b78c13aa28fa88c","B2","batch2","","null","<p class=block-text>Trial 46 out of 78</p>","null","pattern_show_trial_num","","","","","","","","","","","","","","","","","","","","","","","","",""
"","","","","","image-keyboard-response","113","1167707","0.0-2.0-7.0-1.6","63ff612a5b78c13aa28fa88c","B2","batch2","","2832.5","stim/no_55_1_w.png","f","pattern_response","false","j","pattern_34","2832.5","false","28","","","","","","","","","","","","","","","","","","",""
"","","","","","html-keyboard-response","114","1169014","0.0-2.0-7.0-0.7","63ff612a5b78c13aa28fa88c","B2","batch2","","null","<p class=block-text>Trial 47 out of 78</p>","null","pattern_show_trial_num","","","","","","","","","","","","","","","","","","","","","","","","",""
"","","","","","image-keyboard-response","115","1171437","0.0-2.0-7.0-1.7","63ff612a5b78c13aa28fa88c","B2","batch2","","2421.2999999523163","stim/yes_28_ver_b1.png","f","pattern_response","true","f","pattern_51","2421.2999999523163","true","29","","","","","","","","","","","","","","","","","","",""
"","","","","","html-keyboard-response","116","1172764","0.0-2.0-7.0-0.8","63ff612a5b78c13aa28fa88c","B2","batch2","","null","<p class=block-text>Trial 48 out of 78</p>","null","pattern_show_trial_num","","","","","","","","","","","","","","","","","","","","","","","","",""
"","","","","","image-keyboard-response","117","1175967","0.0-2.0-7.0-1.8","63ff612a5b78c13aa28fa88c","B2","batch2","","3200.699999988079","stim/yes_45_hor_b2_b.png","f","pattern_response","true","f","pattern_67","3200.699999988079","true","30","","","","","","","","","","","","","","","","","","",""
"","","","","","html-keyboard-response","118","1177296","0.0-2.0-7.0-0.9","63ff612a5b78c13aa28fa88c","B2","batch2","","null","<p class=block-text>Trial 49 out of 78</p>","null","pattern_show_trial_num","","","","","","","","","","","","","","","","","","","","","","","","",""
"","","","","","image-keyboard-response","119","1182585","0.0-2.0-7.0-1.9","63ff612a5b78c13aa28fa88c","B2","batch2","","5288","stim/no_29_1_b.png","j","pattern_response","true","j","pattern_12","5288","true","31","","","","","","","","","","","","","","","","","","",""
"","","","","","html-keyboard-response","120","1183904","0.0-2.0-7.0-0.10","63ff612a5b78c13aa28fa88c","B2","batch2","","null","<p class=block-text>Trial 50 out of 78</p>","null","pattern_show_trial_num","","","","","","","","","","","","","","","","","","","","","","","","",""
"","","","","","image-keyboard-response","121","1185318","0.0-2.0-7.0-1.10","63ff612a5b78c13aa28fa88c","B2","batch2","","1411.199999988079","stim/yes_22_ver_w1.png","f","pattern_response","true","f","pattern_47","1411.199999988079","true","32","","","","","","","","","","","","","","","","","","",""
"","","","","","html-keyboard-response","122","1186639","0.0-2.0-7.0-0.11","63ff612a5b78c13aa28fa88c","B2","batch2","","null","<p class=block-text>Trial 51 out of 78</p>","null","pattern_show_trial_num","","","","","","","","","","","","","","","","","","","","","","","","",""
"","","","","","image-keyboard-response","123","1188238","0.0-2.0-7.0-1.11","63ff612a5b78c13aa28fa88c","B2","batch2","","1597.1000000238419","stim/no_32_1_w.png","f","pattern_response","false","j","pattern_14","1597.1000000238419","false","32","","","","","","","","","","","","","","","","","","",""
"","","","","","html-keyboard-response","124","1189562","0.0-2.0-7.0-0.12","63ff612a5b78c13aa28fa88c","B2","batch2","","null","<p class=block-text>Trial 52 out of 78</p>","null","pattern_show_trial_num","","","","","","","","","","","","","","","","","","","","","","","","",""
"","","","","","image-keyboard-response","125","1193588","0.0-2.0-7.0-1.12","63ff612a5b78c13aa28fa88c","B2","batch2","","4024.900000035763","stim/no_36_2_w.png","f","pattern_response","false","j","pattern_18","4024.900000035763","false","32","","","","","","","","","","","","","","","","","","",""
"","","","","","html-keyboard-response","126","1194905","0.0-2.0-7.0-0.13","63ff612a5b78c13aa28fa88c","B2","batch2","","null","<p class=block-text>Trial 53 out of 78</p>","null","pattern_show_trial_num","","","","","","","","","","","","","","","","","","","","","","","","",""
"","","","","","image-keyboard-response","127","1196398","0.0-2.0-7.0-1.13","63ff612a5b78c13aa28fa88c","B2","batch2","","1490.5999999642372","stim/no_42_1_w.png","f","pattern_response","false","j","pattern_22","1490.5999999642372","false","32","","","","","","","","","","","","","","","","","","",""
"","","","","","html-keyboard-response","128","1197718","0.0-2.0-7.0-0.14","63ff612a5b78c13aa28fa88c","B2","batch2","","null","<p class=block-text>Trial 54 out of 78</p>","null","pattern_show_trial_num","","","","","","","","","","","","","","","","","","","","","","","","",""
"","","","","","image-keyboard-response","129","1200206","0.0-2.0-7.0-1.14","63ff612a5b78c13aa28fa88c","B2","batch2","","2486.800000011921","stim/no_17_1_w.png","j","pattern_response","true","j","pattern_04","2486.800000011921","true","33","","","","","","","","","","","","","","","","","","",""
"","","","","","html-keyboard-response","130","1201531","0.0-2.0-7.0-0.15","63ff612a5b78c13aa28fa88c","B2","batch2","","null","<p class=block-text>Trial 55 out of 78</p>","null","pattern_show_trial_num","","","","","","","","","","","","","","","","","","","","","","","","",""
"","","","","","image-keyboard-response","131","1203688","0.0-2.0-7.0-1.15","63ff612a5b78c13aa28fa88c","B2","batch2","","2155.699999988079","stim/yes_50_dia_w1.png","f","pattern_response","true","f","pattern_71","2155.699999988079","true","34","","","","","","","","","","","","","","","","","","",""
"","","","","","html-keyboard-response","132","1205015","0.0-2.0-7.0-0.16","63ff612a5b78c13aa28fa88c","B2","batch2","","null","<p class=block-text>Trial 56 out of 78</p>","null","pattern_show_trial_num","","","","","","","","","","","","","","","","","","","","","","","","",""
"","","","","","image-keyboard-response","133","1208628","0.0-2.0-7.0-1.16","63ff612a5b78c13aa28fa88c","B2","batch2","","3611.400000035763","stim/no_26_1_w.png","j","pattern_response","true","j","pattern_10","3611.400000035763","true","35","","","","","","","","","","","","","","","","","","",""
"","","","","","html-keyboard-response","134","1209952","0.0-2.0-7.0-0.17","63ff612a5b78c13aa28fa88c","B2","batch2","","null","<p class=block-text>Trial 57 out of 78</p>","null","pattern_show_trial_num","","","","","","","","","","","","","","","","","","","","","","","","",""
"","","","","","image-keyboard-response","135","1227788","0.0-2.0-7.0-1.17","63ff612a5b78c13aa28fa88c","B2","batch2","","17834.69999998808","stim/yes_67_hor_b1.png","f","pattern_response","true","f","pattern_79","17834.69999998808","true","36","","","","","","","","","","","","","","","","","","",""
"","","","","","html-keyboard-response","136","1229109","0.0-2.0-7.0-0.18","63ff612a5b78c13aa28fa88c","B2","batch2","","null","<p class=block-text>Trial 58 out of 78</p>","null","pattern_show_trial_num","","","","","","","","","","","","","","","","","","","","","","","","",""
"","","","","","image-keyboard-response","137","1231318","0.0-2.0-7.0-1.18","63ff612a5b78c13aa28fa88c","B2","batch2","","2207.300000011921","stim/yes_17_dia_w1.png","f","pattern_response","true","f","pattern_45","2207.300000011921","true","37","","","","","","","","","","","","","","","","","","",""
"","","","","","html-keyboard-response","138","1232640","0.0-2.0-7.0-0.19","63ff612a5b78c13aa28fa88c","B2","batch2","","null","<p class=block-text>Trial 59 out of 78</p>","null","pattern_show_trial_num","","","","","","","","","","","","","","","","","","","","","","","","",""
"","","","","","image-keyboard-response","139","1235048","0.0-2.0-7.0-1.19","63ff612a5b78c13aa28fa88c","B2","batch2","","2406.300000011921","stim/no_13_2_b.png","j","pattern_response","true","j","pattern_02","2406.300000011921","true","38","","","","","","","","","","","","","","","","","","",""
"","","","","","html-keyboard-response","140","1236374","0.0-2.0-7.0-0.20","63ff612a5b78c13aa28fa88c","B2","batch2","","null","<p class=block-text>Trial 60 out of 78</p>","null","pattern_show_trial_num","","","","","","","","","","","","","","","","","","","","","","","","",""
"","","","","","image-keyboard-response","141","1239698","0.0-2.0-7.0-1.20","63ff612a5b78c13aa28fa88c","B2","batch2","","3322.899999976158","stim/no_34_1_b.png","f","pattern_response","false","j","pattern_16","3322.899999976158","false","38","","","","","","","","","","","","","","","","","","",""
"","","","","","html-keyboard-response","142","1241015","0.0-2.0-7.0-0.21","63ff612a5b78c13aa28fa88c","B2","batch2","","null","<p class=block-text>Trial 61 out of 78</p>","null","pattern_show_trial_num","","","","","","","","","","","","","","","","","","","","","","","","",""
"","","","","","image-keyboard-response","143","1245018","0.0-2.0-7.0-1.21","63ff612a5b78c13aa28fa88c","B2","batch2","","4001.800000011921","stim/yes_60_ver_b1_b.png","f","pattern_response","true","f","pattern_77","4001.800000011921","true","39","","","","","","","","","","","","","","","","","","",""
"","","","","","html-keyboard-response","144","1246342","0.0-2.0-7.0-0.22","63ff612a5b78c13aa28fa88c","B2","batch2","","null","<p class=block-text>Trial 62 out of 78</p>","null","pattern_show_trial_num","","","","","","","","","","","","","","","","","","","","","","","","",""
"","","","","","image-keyboard-response","145","1250468","0.0-2.0-7.0-1.22","63ff612a5b78c13aa28fa88c","B2","batch2","","4124.300000011921","stim/no_23_1.png","j","pattern_response","true","j","pattern_08","4124.300000011921","true","40","","","","","","","","","","","","","","","","","","",""
"","","","","","html-keyboard-response","146","1251781","0.0-2.0-7.0-0.23","63ff612a5b78c13aa28fa88c","B2","batch2","","null","<p class=block-text>Trial 63 out of 78</p>","null","pattern_show_trial_num","","","","","","","","","","","","","","","","","","","","","","","","",""
"","","","","","image-keyboard-response","147","1262158","0.0-2.0-7.0-1.23","63ff612a5b78c13aa28fa88c","B2","batch2","","10375.900000035763","stim/no_38_1_b.png","j","pattern_response","true","j","pattern_20","10375.900000035763","true","41","","","","","","","","","","","","","","","","","","",""
"","","","","","html-keyboard-response","148","1263483","0.0-2.0-7.0-0.24","63ff612a5b78c13aa28fa88c","B2","batch2","","null","<p class=block-text>Trial 64 out of 78</p>","null","pattern_show_trial_num","","","","","","","","","","","","","","","","","","","","","","","","",""
"","","","","","image-keyboard-response","149","1265678","0.0-2.0-7.0-1.24","63ff612a5b78c13aa28fa88c","B2","batch2","","2193.400000035763","stim/yes_29_ver_w1.png","f","pattern_response","true","f","pattern_53","2193.400000035763","true","42","","","","","","","","","","","","","","","","","","",""
"","","","","","html-keyboard-response","150","1266999","0.0-2.0-7.0-0.25","63ff612a5b78c13aa28fa88c","B2","batch2","","null","<p class=block-text>Trial 65 out of 78</p>","null","pattern_show_trial_num","","","","","","","","","","","","","","","","","","","","","","","","",""
"","","","","","image-keyboard-response","151","1269136","0.0-2.0-7.0-1.25","63ff612a5b78c13aa28fa88c","B2","batch2","","2135.5","stim/yes_37_dia_w1.png","f","pattern_response","true","f","pattern_59","2135.5","true","43","","","","","","","","","","","","","","","","","","",""
"","","","","","html-keyboard-response","152","1270452","0.0-2.0-7.0-0.26","63ff612a5b78c13aa28fa88c","B2","batch2","","null","<p class=block-text>Trial 66 out of 78</p>","null","pattern_show_trial_num","","","","","","","","","","","","","","","","","","","","","","","","",""
"","","","","","image-keyboard-response","153","1272288","0.0-2.0-7.0-1.26","63ff612a5b78c13aa28fa88c","B2","batch2","","1834.7999999523163","stim/no_44_1.png","f","pattern_response","false","j","pattern_24","1834.7999999523163","false","43","","","","","","","","","","","","","","","","","","",""
"","","","","","html-keyboard-response","154","1273608","0.0-2.0-7.0-0.27","63ff612a5b78c13aa28fa88c","B2","batch2","","null","<p class=block-text>Trial 67 out of 78</p>","null","pattern_show_trial_num","","","","","","","","","","","","","","","","","","","","","","","","",""
"","","","","","image-keyboard-response","155","1276606","0.0-2.0-7.0-1.27","63ff612a5b78c13aa28fa88c","B2","batch2","","2997.199999988079","stim/no_52_1.png","f","pattern_response","false","j","pattern_32","2997.199999988079","false","43","","","","","","","","","","","","","","","","","","",""
"","","","","","html-keyboard-response","156","1277920","0.0-2.0-7.0-0.28","63ff612a5b78c13aa28fa88c","B2","batch2","","null","<p class=block-text>Trial 68 out of 78</p>","null","pattern_show_trial_num","","","","","","","","","","","","","","","","","","","","","","","","",""
"","","","","","image-keyboard-response","157","1279495","0.0-2.0-7.0-1.28","63ff612a5b78c13aa28fa88c","B2","batch2","","1572.3999999761581","stim/yes_38_hor_b1_b.png","f","pattern_response","true","f","pattern_61","1572.3999999761581","true","44","","","","","","","","","","","","","","","","","","",""
"","","","","","html-keyboard-response","158","1280812","0.0-2.0-7.0-0.29","63ff612a5b78c13aa28fa88c","B2","batch2","","null","<p class=block-text>Trial 69 out of 78</p>","null","pattern_show_trial_num","","","","","","","","","","","","","","","","","","","","","","","","",""
"","","","","","image-keyboard-response","159","1281958","0.0-2.0-7.0-1.29","63ff612a5b78c13aa28fa88c","B2","batch2","","1144.300000011921","stim/yes_25_hor_b1_b.png","f","pattern_response","true","f","pattern_49","1144.300000011921","true","45","","","","","","","","","","","","","","","","","","",""
"","","","","","html-keyboard-response","160","1283296","0.0-2.0-7.0-0.30","63ff612a5b78c13aa28fa88c","B2","batch2","","null","<p class=block-text>Trial 70 out of 78</p>","null","pattern_show_trial_num","","","","","","","","","","","","","","","","","","","","","","","","",""
"","","","","","image-keyboard-response","161","1285448","0.0-2.0-7.0-1.30","63ff612a5b78c13aa28fa88c","B2","batch2","","2151.600000023842","stim/no_48_1_w.png","f","pattern_response","false","j","pattern_28","2151.600000023842","false","45","","","","","","","","","","","","","","","","","","",""
"","","","","","html-keyboard-response","162","1286764","0.0-2.0-7.0-0.31","63ff612a5b78c13aa28fa88c","B2","batch2","","null","<p class=block-text>Trial 71 out of 78</p>","null","pattern_show_trial_num","","","","","","","","","","","","","","","","","","","","","","","","",""
"","","","","","image-keyboard-response","163","1288978","0.0-2.0-7.0-1.31","63ff612a5b78c13aa28fa88c","B2","batch2","","2212.5","stim/no_20_1_w.png","j","pattern_response","true","j","pattern_06","2212.5","true","46","","","","","","","","","","","","","","","","","","",""
"","","","","","html-keyboard-response","164","1290296","0.0-2.0-7.0-0.32","63ff612a5b78c13aa28fa88c","B2","batch2","","null","<p class=block-text>Trial 72 out of 78</p>","null","pattern_show_trial_num","","","","","","","","","","","","","","","","","","","","","","","","",""
"","","","","","image-keyboard-response","165","1291648","0.0-2.0-7.0-1.32","63ff612a5b78c13aa28fa88c","B2","batch2","","1350.4000000357628","stim/no_46_1_b.png","f","pattern_response","false","j","pattern_26","1350.4000000357628","false","46","","","","","","","","","","","","","","","","","","",""
"","","","","","html-keyboard-response","166","1292968","0.0-2.0-7.0-0.33","63ff612a5b78c13aa28fa88c","B2","batch2","","null","<p class=block-text>Trial 73 out of 78</p>","null","pattern_show_trial_num","","","","","","","","","","","","","","","","","","","","","","","","",""
"","","","","","image-keyboard-response","167","1296699","0.0-2.0-7.0-1.33","63ff612a5b78c13aa28fa88c","B2","batch2","","3729","stim/yes_31_hor_b1.png","f","pattern_response","true","f","pattern_55","3729","true","47","","","","","","","","","","","","","","","","","","",""
"","","","","","html-keyboard-response","168","1298015","0.0-2.0-7.0-0.34","63ff612a5b78c13aa28fa88c","B2","batch2","","null","<p class=block-text>Trial 74 out of 78</p>","null","pattern_show_trial_num","","","","","","","","","","","","","","","","","","","","","","","","",""
"","","","","","image-keyboard-response","169","1299128","0.0-2.0-7.0-1.34","63ff612a5b78c13aa28fa88c","B2","batch2","","1111","stim/no_70_2.png","f","pattern_response","false","j","pattern_40","1111","false","47","","","","","","","","","","","","","","","","","","",""
"","","","","","html-keyboard-response","170","1300452","0.0-2.0-7.0-0.35","63ff612a5b78c13aa28fa88c","B2","batch2","","null","<p class=block-text>Trial 75 out of 78</p>","null","pattern_show_trial_num","","","","","","","","","","","","","","","","","","","","","","","","",""
"","","","","","image-keyboard-response","171","1302327","0.0-2.0-7.0-1.35","63ff612a5b78c13aa28fa88c","B2","batch2","","1873.199999988079","stim/yes_43_ver_w1_w.png","f","pattern_response","true","f","pattern_65","1873.199999988079","true","48","","","","","","","","","","","","","","","","","","",""
"","","","","","html-keyboard-response","172","1303640","0.0-2.0-7.0-0.36","63ff612a5b78c13aa28fa88c","B2","batch2","","null","<p class=block-text>Trial 76 out of 78</p>","null","pattern_show_trial_num","","","","","","","","","","","","","","","","","","","","","","","","",""
"","","","","","image-keyboard-response","173","1310265","0.0-2.0-7.0-1.36","63ff612a5b78c13aa28fa88c","B2","batch2","","6626.800000011921","stim/yes_40_dia_b1_b.png","j","pattern_response","false","f","pattern_63","6626.800000011921","false","48","","","","","","","","","","","","","","","","","","",""
"","","","","","html-keyboard-response","174","1311588","0.0-2.0-7.0-0.37","63ff612a5b78c13aa28fa88c","B2","batch2","","null","<p class=block-text>Trial 77 out of 78</p>","null","pattern_show_trial_num","","","","","","","","","","","","","","","","","","","","","","","","",""
"","","","","","image-keyboard-response","175","1312894","0.0-2.0-7.0-1.37","63ff612a5b78c13aa28fa88c","B2","batch2","","1304.199999988079","stim/yes_55_hor_w1_w.png","f","pattern_response","true","f","pattern_75","1304.199999988079","true","49","","","","","","","","","","","","","","","","","","",""
"","","","","","html-keyboard-response","176","1314215","0.0-2.0-7.0-0.38","63ff612a5b78c13aa28fa88c","B2","batch2","","null","<p class=block-text>Trial 78 out of 78</p>","null","pattern_show_trial_num","","","","","","","","","","","","","","","","","","","","","","","","",""
"","","","","","image-keyboard-response","177","1315754","0.0-2.0-7.0-1.38","63ff612a5b78c13aa28fa88c","B2","batch2","","1538.300000011921","stim/yes_52_ver_w1.png","f","pattern_response","true","f","pattern_73","1538.300000011921","true","50","","","","","","","","","","","","","","","","","","",""
"","","","","","html-button-response","178","1357286","0.0-2.0-8.0","63ff612a5b78c13aa28fa88c","B2","batch2","","41025","<p class = block-text>This concludes the 4-in-a-row detection game.Thank you for your responses!<br>
            You responded correctly on 64% of the trials.<br>
            When you are ready, press ""Continue"" button to continue </p>","0","","","","","","","","","","","","","","","","","","","","","","","","","",""
"true","","","","","fullscreen","179","1362167","0.0-3.0-0.0","63ff612a5b78c13aa28fa88c","B2","batch2","","","","","spm_fullscreen","","","","","","","","","","","","","","","","","","","","","","","","",""
"","","","","","html-button-response","180","1382659","0.0-3.0-1.0","63ff612a5b78c13aa28fa88c","B2","batch2","","20487.5","<p class = block-text><b>Instructions</b> <br>This is a widely used intelligence test in research. <br>In this test, a figure with a missing piece will be presented.<br>Below the figure are alternative pieces to complete the figure, only one of which is correct.<br> Different figures might involve different principles for obtaining the missing piece<br>Your job is to select the most logical piece to complete the figure.</p>","0","","","","","","","","","","","","","","","","","","","","","","","","","",""
"","","","","","html-keyboard-response","181","1383467","0.0-3.0-2.0-0.0","63ff612a5b78c13aa28fa88c","B2","batch2","","null","<p class=block-text>Trial 1 out of 60</p>","null","spm_show_trial_num","","","","","","","","","","","","","","","","","","","","","","","","",""
"","","","","","image-button-response","182","1391167","0.0-3.0-2.0-1.0","63ff612a5b78c13aa28fa88c","B2","batch2","","7697.300000011921","img/question_1_1.jpeg","3","spm_respsonse","1","4","mat_01","","","","","","1","7697.300000011921","","","","","","","","","","","","","","",""
"","","","","","html-keyboard-response","183","1392233","0.0-3.0-2.0-0.1","63ff612a5b78c13aa28fa88c","B2","batch2","","null","<p class=block-text>Trial 2 out of 60</p>","null","spm_show_trial_num","","","","","","","","","","","","","","","","","","","","","","","","",""
"","","","","","image-button-response","184","1396115","0.0-3.0-2.0-1.1","63ff612a5b78c13aa28fa88c","B2","batch2","","3880.100000023842","img/question_1_2.jpeg","4","spm_respsonse","1","5","mat_02","","","","","","1","3880.100000023842","","","","","","","","","","","","","","",""
"","","","","","html-keyboard-response","185","1397186","0.0-3.0-2.0-0.2","63ff612a5b78c13aa28fa88c","B2","batch2","","null","<p class=block-text>Trial 3 out of 60</p>","null","spm_show_trial_num","","","","","","","","","","","","","","","","","","","","","","","","",""
"","","","","","image-button-response","186","1401079","0.0-3.0-2.0-1.2","63ff612a5b78c13aa28fa88c","B2","batch2","","3891","img/question_1_3.jpeg","0","spm_respsonse","1","1","mat_03","","","","","","1","3891","","","","","","","","","","","","","","",""
"","","","","","html-keyboard-response","187","1402146","0.0-3.0-2.0-0.3","63ff612a5b78c13aa28fa88c","B2","batch2","","null","<p class=block-text>Trial 4 out of 60</p>","null","spm_show_trial_num","","","","","","","","","","","","","","","","","","","","","","","","",""
"","","","","","image-button-response","188","1405917","0.0-3.0-2.0-1.3","63ff612a5b78c13aa28fa88c","B2","batch2","","3768.5","img/question_1_4.jpeg","1","spm_respsonse","1","2","mat_04","","","","","","1","3768.5","","","","","","","","","","","","","","",""
"","","","","","html-keyboard-response","189","1406983","0.0-3.0-2.0-0.4","63ff612a5b78c13aa28fa88c","B2","batch2","","null","<p class=block-text>Trial 5 out of 60</p>","null","spm_show_trial_num","","","","","","","","","","","","","","","","","","","","","","","","",""
"","","","","","image-button-response","190","1413879","0.0-3.0-2.0-1.4","63ff612a5b78c13aa28fa88c","B2","batch2","","6894.5","img/question_1_5.jpeg","5","spm_respsonse","1","6","mat_05","","","","","","1","6894.5","","","","","","","","","","","","","","",""
"","","","","","html-keyboard-response","191","1414952","0.0-3.0-2.0-0.5","63ff612a5b78c13aa28fa88c","B2","batch2","","null","<p class=block-text>Trial 6 out of 60</p>","null","spm_show_trial_num","","","","","","","","","","","","","","","","","","","","","","","","",""
"","","","","","image-button-response","192","1419680","0.0-3.0-2.0-1.5","63ff612a5b78c13aa28fa88c","B2","batch2","","4725.199999988079","img/question_1_6.jpeg","2","spm_respsonse","1","3","mat_06","","","","","","1","4725.199999988079","","","","","","","","","","","","","","",""
"","","","","","html-keyboard-response","193","1420749","0.0-3.0-2.0-0.6","63ff612a5b78c13aa28fa88c","B2","batch2","","null","<p class=block-text>Trial 7 out of 60</p>","null","spm_show_trial_num","","","","","","","","","","","","","","","","","","","","","","","","",""
"","","","","","image-button-response","194","1429318","0.0-3.0-2.0-1.6","63ff612a5b78c13aa28fa88c","B2","batch2","","8567","img/question_1_7.jpeg","5","spm_respsonse","1","6","mat_07","","","","","","1","8567","","","","","","","","","","","","","","",""
"","","","","","html-keyboard-response","195","1430390","0.0-3.0-2.0-0.7","63ff612a5b78c13aa28fa88c","B2","batch2","","null","<p class=block-text>Trial 8 out of 60</p>","null","spm_show_trial_num","","","","","","","","","","","","","","","","","","","","","","","","",""
"","","","","","image-button-response","196","1435659","0.0-3.0-2.0-1.7","63ff612a5b78c13aa28fa88c","B2","batch2","","5267.699999988079","img/question_1_8.jpeg","1","spm_respsonse","1","2","mat_08","","","","","","1","5267.699999988079","","","","","","","","","","","","","","",""
"","","","","","html-keyboard-response","197","1436732","0.0-3.0-2.0-0.8","63ff612a5b78c13aa28fa88c","B2","batch2","","null","<p class=block-text>Trial 9 out of 60</p>","null","spm_show_trial_num","","","","","","","","","","","","","","","","","","","","","","","","",""
"","","","","","image-button-response","198","1442450","0.0-3.0-2.0-1.8","63ff612a5b78c13aa28fa88c","B2","batch2","","5715.199999988079","img/question_1_9.jpeg","0","spm_respsonse","1","1","mat_09","","","","","","1","5715.199999988079","","","","","","","","","","","","","","",""
"","","","","","html-keyboard-response","199","1443514","0.0-3.0-2.0-0.9","63ff612a5b78c13aa28fa88c","B2","batch2","","null","<p class=block-text>Trial 10 out of 60</p>","null","spm_show_trial_num","","","","","","","","","","","","","","","","","","","","","","","","",""
"","","","","","image-button-response","200","1448339","0.0-3.0-2.0-1.9","63ff612a5b78c13aa28fa88c","B2","batch2","","4822.900000035763","img/question_1_10.jpeg","2","spm_respsonse","1","3","mat_10","","","","","","1","4822.900000035763","","","","","","","","","","","","","","",""
"","","","","","html-keyboard-response","201","1449405","0.0-3.0-2.0-0.10","63ff612a5b78c13aa28fa88c","B2","batch2","","null","<p class=block-text>Trial 11 out of 60</p>","null","spm_show_trial_num","","","","","","","","","","","","","","","","","","","","","","","","",""
"","","","","","image-button-response","202","1453576","0.0-3.0-2.0-1.10","63ff612a5b78c13aa28fa88c","B2","batch2","","4169.100000023842","img/question_1_11.jpeg","4","spm_respsonse","0","4","mat_11","","","","","","0","4169.100000023842","","","","","","","","","","","","","","",""
"","","","","","html-keyboard-response","203","1454654","0.0-3.0-2.0-0.11","63ff612a5b78c13aa28fa88c","B2","batch2","","null","<p class=block-text>Trial 12 out of 60</p>","null","spm_show_trial_num","","","","","","","","","","","","","","","","","","","","","","","","",""
"","","","","","image-button-response","204","1465047","0.0-3.0-2.0-1.11","63ff612a5b78c13aa28fa88c","B2","batch2","","10390.899999976158","img/question_1_12.jpeg","4","spm_respsonse","1","5","mat_12","","","","","","1","10390.899999976158","","","","","","","","","","","","","","",""
"","","","","","html-keyboard-response","205","1466123","0.0-3.0-2.0-0.12","63ff612a5b78c13aa28fa88c","B2","batch2","","null","<p class=block-text>Trial 13 out of 60</p>","null","spm_show_trial_num","","","","","","","","","","","","","","","","","","","","","","","","",""
"","","","","","image-button-response","206","1468849","0.0-3.0-2.0-1.12","63ff612a5b78c13aa28fa88c","B2","batch2","","2723.7000000476837","img/question_2_1.jpeg","1","spm_respsonse","1","2","mat_13","","","","","","1","2723.7000000476837","","","","","","","","","","","","","","",""
"","","","","","html-keyboard-response","207","1469920","0.0-3.0-2.0-0.13","63ff612a5b78c13aa28fa88c","B2","batch2","","null","<p class=block-text>Trial 14 out of 60</p>","null","spm_show_trial_num","","","","","","","","","","","","","","","","","","","","","","","","",""
"","","","","","image-button-response","208","1482569","0.0-3.0-2.0-1.13","63ff612a5b78c13aa28fa88c","B2","batch2","","12647.199999988079","img/question_2_2.jpeg","5","spm_respsonse","1","6","mat_14","","","","","","1","12647.199999988079","","","","","","","","","","","","","","",""
"","","","","","html-keyboard-response","209","1483639","0.0-3.0-2.0-0.14","63ff612a5b78c13aa28fa88c","B2","batch2","","null","<p class=block-text>Trial 15 out of 60</p>","null","spm_show_trial_num","","","","","","","","","","","","","","","","","","","","","","","","",""
"","","","","","image-button-response","210","1486688","0.0-3.0-2.0-1.14","63ff612a5b78c13aa28fa88c","B2","batch2","","3047.100000023842","img/question_2_3.jpeg","0","spm_respsonse","1","1","mat_15","","","","","","1","3047.100000023842","","","","","","","","","","","","","","",""
"","","","","","html-keyboard-response","211","1487768","0.0-3.0-2.0-0.15","63ff612a5b78c13aa28fa88c","B2","batch2","","null","<p class=block-text>Trial 16 out of 60</p>","null","spm_show_trial_num","","","","","","","","","","","","","","","","","","","","","","","","",""
"","","","","","image-button-response","212","1494368","0.0-3.0-2.0-1.15","63ff612a5b78c13aa28fa88c","B2","batch2","","6598.299999952316","img/question_2_4.jpeg","1","spm_respsonse","1","2","mat_16","","","","","","1","6598.299999952316","","","","","","","","","","","","","","",""
"","","","","","html-keyboard-response","213","1495435","0.0-3.0-2.0-0.16","63ff612a5b78c13aa28fa88c","B2","batch2","","null","<p class=block-text>Trial 17 out of 60</p>","null","spm_show_trial_num","","","","","","","","","","","","","","","","","","","","","","","","",""
"","","","","","image-button-response","214","1502857","0.0-3.0-2.0-1.16","63ff612a5b78c13aa28fa88c","B2","batch2","","7420.199999988079","img/question_2_5.jpeg","0","spm_respsonse","1","1","mat_17","","","","","","1","7420.199999988079","","","","","","","","","","","","","","",""
"","","","","","html-keyboard-response","215","1503921","0.0-3.0-2.0-0.17","63ff612a5b78c13aa28fa88c","B2","batch2","","null","<p class=block-text>Trial 18 out of 60</p>","null","spm_show_trial_num","","","","","","","","","","","","","","","","","","","","","","","","",""
"","","","","","image-button-response","216","1513200","0.0-3.0-2.0-1.17","63ff612a5b78c13aa28fa88c","B2","batch2","","9277.199999988079","img/question_2_6.jpeg","2","spm_respsonse","1","3","mat_18","","","","","","1","9277.199999988079","","","","","","","","","","","","","","",""
"","","","","","html-keyboard-response","217","1514279","0.0-3.0-2.0-0.18","63ff612a5b78c13aa28fa88c","B2","batch2","","null","<p class=block-text>Trial 19 out of 60</p>","null","spm_show_trial_num","","","","","","","","","","","","","","","","","","","","","","","","",""
"","","","","","image-button-response","218","1525728","0.0-3.0-2.0-1.18","63ff612a5b78c13aa28fa88c","B2","batch2","","11446.399999976158","img/question_2_7.jpeg","5","spm_respsonse","0","5","mat_19","","","","","","0","11446.399999976158","","","","","","","","","","","","","","",""
"","","","","","html-keyboard-response","219","1526789","0.0-3.0-2.0-0.19","63ff612a5b78c13aa28fa88c","B2","batch2","","null","<p class=block-text>Trial 20 out of 60</p>","null","spm_show_trial_num","","","","","","","","","","","","","","","","","","","","","","","","",""
"","","","","","image-button-response","220","1535259","0.0-3.0-2.0-1.19","63ff612a5b78c13aa28fa88c","B2","batch2","","8468.300000011921","img/question_2_8.jpeg","3","spm_respsonse","0","6","mat_20","","","","","","0","8468.300000011921","","","","","","","","","","","","","","",""
"","","","","","html-keyboard-response","221","1536326","0.0-3.0-2.0-0.20","63ff612a5b78c13aa28fa88c","B2","batch2","","null","<p class=block-text>Trial 21 out of 60</p>","null","spm_show_trial_num","","","","","","","","","","","","","","","","","","","","","","","","",""
"","","","","","image-button-response","222","1543267","0.0-3.0-2.0-1.20","63ff612a5b78c13aa28fa88c","B2","batch2","","6939.199999988079","img/question_2_9.jpeg","3","spm_respsonse","1","4","mat_21","","","","","","1","6939.199999988079","","","","","","","","","","","","","","",""
"","","","","","html-keyboard-response","223","1544342","0.0-3.0-2.0-0.21","63ff612a5b78c13aa28fa88c","B2","batch2","","null","<p class=block-text>Trial 22 out of 60</p>","null","spm_show_trial_num","","","","","","","","","","","","","","","","","","","","","","","","",""
"","","","","","image-button-response","224","1561069","0.0-3.0-2.0-1.21","63ff612a5b78c13aa28fa88c","B2","batch2","","16725.69999998808","img/question_2_10.jpeg","2","spm_respsonse","1","3","mat_22","","","","","","1","16725.69999998808","","","","","","","","","","","","","","",""
"","","","","","html-keyboard-response","225","1562139","0.0-3.0-2.0-0.22","63ff612a5b78c13aa28fa88c","B2","batch2","","null","<p class=block-text>Trial 23 out of 60</p>","null","spm_show_trial_num","","","","","","","","","","","","","","","","","","","","","","","","",""
"","","","","","image-button-response","226","1571186","0.0-3.0-2.0-1.22","63ff612a5b78c13aa28fa88c","B2","batch2","","9045.5","img/question_2_11.jpeg","3","spm_respsonse","1","4","mat_23","","","","","","1","9045.5","","","","","","","","","","","","","","",""
"","","","","","html-keyboard-response","227","1572262","0.0-3.0-2.0-0.23","63ff612a5b78c13aa28fa88c","B2","batch2","","null","<p class=block-text>Trial 24 out of 60</p>","null","spm_show_trial_num","","","","","","","","","","","","","","","","","","","","","","","","",""
"","","","","","image-button-response","228","1589739","0.0-3.0-2.0-1.23","63ff612a5b78c13aa28fa88c","B2","batch2","","17474.700000047684","img/question_2_12.jpeg","2","spm_respsonse","0","5","mat_24","","","","","","0","17474.700000047684","","","","","","","","","","","","","","",""
"","","","","","html-button-response","229","1593529","0.0-3.0-3.0","63ff612a5b78c13aa28fa88c","B2","batch2","","3515","<p class = block-text>Attention check: Please choose 1<br></p>","0","attention_check","true","","","","","","","","","","","","","","","","","","","","","","","",""
"","","","","","html-keyboard-response","230","1594342","0.0-3.0-4.0-0.0","63ff612a5b78c13aa28fa88c","B2","batch2","","null","<p class=block-text>Trial 25 out of 60</p>","null","spm_show_trial_num","","","","","","","","","","","","","","","","","","","","","","","","",""
"","","","","","image-button-response","231","1598668","0.0-3.0-4.0-1.0","63ff612a5b78c13aa28fa88c","B2","batch2","","4323.100000023842","img/question_3_1.jpeg","7","spm_respsonse","1","8","mat_25","","","","","","1","4323.100000023842","","","","","","","","","","","","","","",""
"","","","","","html-keyboard-response","232","1599732","0.0-3.0-4.0-0.1","63ff612a5b78c13aa28fa88c","B2","batch2","","null","<p class=block-text>Trial 26 out of 60</p>","null","spm_show_trial_num","","","","","","","","","","","","","","","","","","","","","","","","",""
"","","","","","image-button-response","233","1605229","0.0-3.0-4.0-1.1","63ff612a5b78c13aa28fa88c","B2","batch2","","5495.600000023842","img/question_3_2.jpeg","1","spm_respsonse","1","2","mat_26","","","","","","1","5495.600000023842","","","","","","","","","","","","","","",""
"","","","","","html-keyboard-response","234","1606295","0.0-3.0-4.0-0.2","63ff612a5b78c13aa28fa88c","B2","batch2","","null","<p class=block-text>Trial 27 out of 60</p>","null","spm_show_trial_num","","","","","","","","","","","","","","","","","","","","","","","","",""
"","","","","","image-button-response","235","1613706","0.0-3.0-4.0-1.2","63ff612a5b78c13aa28fa88c","B2","batch2","","7408.800000011921","img/question_3_3.jpeg","2","spm_respsonse","1","3","mat_27","","","","","","1","7408.800000011921","","","","","","","","","","","","","","",""
"","","","","","html-keyboard-response","236","1614779","0.0-3.0-4.0-0.3","63ff612a5b78c13aa28fa88c","B2","batch2","","null","<p class=block-text>Trial 28 out of 60</p>","null","spm_show_trial_num","","","","","","","","","","","","","","","","","","","","","","","","",""
"","","","","","image-button-response","237","1620709","0.0-3.0-4.0-1.3","63ff612a5b78c13aa28fa88c","B2","batch2","","5928.100000023842","img/question_3_4.jpeg","7","spm_respsonse","1","8","mat_28","","","","","","1","5928.100000023842","","","","","","","","","","","","","","",""
"","","","","","html-keyboard-response","238","1621779","0.0-3.0-4.0-0.4","63ff612a5b78c13aa28fa88c","B2","batch2","","null","<p class=block-text>Trial 29 out of 60</p>","null","spm_show_trial_num","","","","","","","","","","","","","","","","","","","","","","","","",""
"","","","","","image-button-response","239","1625169","0.0-3.0-4.0-1.4","63ff612a5b78c13aa28fa88c","B2","batch2","","3388","img/question_3_5.jpeg","6","spm_respsonse","1","7","mat_29","","","","","","1","3388","","","","","","","","","","","","","","",""
"","","","","","html-keyboard-response","240","1626247","0.0-3.0-4.0-0.5","63ff612a5b78c13aa28fa88c","B2","batch2","","null","<p class=block-text>Trial 30 out of 60</p>","null","spm_show_trial_num","","","","","","","","","","","","","","","","","","","","","","","","",""
"","","","","","image-button-response","241","1647317","0.0-3.0-4.0-1.5","63ff612a5b78c13aa28fa88c","B2","batch2","","21068.599999964237","img/question_3_6.jpeg","1","spm_respsonse","0","4","mat_30","","","","","","0","21068.599999964237","","","","","","","","","","","","","","",""
"","","","","","html-keyboard-response","242","1648387","0.0-3.0-4.0-0.6","63ff612a5b78c13aa28fa88c","B2","batch2","","null","<p class=block-text>Trial 31 out of 60</p>","null","spm_show_trial_num","","","","","","","","","","","","","","","","","","","","","","","","",""
"","","","","","image-button-response","243","1657179","0.0-3.0-4.0-1.6","63ff612a5b78c13aa28fa88c","B2","batch2","","8789.800000011921","img/question_3_7.jpeg","4","spm_respsonse","1","5","mat_31","","","","","","1","8789.800000011921","","","","","","","","","","","","","","",""
"","","","","","html-keyboard-response","244","1658247","0.0-3.0-4.0-0.7","63ff612a5b78c13aa28fa88c","B2","batch2","","null","<p class=block-text>Trial 32 out of 60</p>","null","spm_show_trial_num","","","","","","","","","","","","","","","","","","","","","","","","",""
"","","","","","image-button-response","245","1663139","0.0-3.0-4.0-1.7","63ff612a5b78c13aa28fa88c","B2","batch2","","4889","img/question_3_8.jpeg","3","spm_respsonse","0","1","mat_32","","","","","","0","4889","","","","","","","","","","","","","","",""
"","","","","","html-keyboard-response","246","1664216","0.0-3.0-4.0-0.8","63ff612a5b78c13aa28fa88c","B2","batch2","","null","<p class=block-text>Trial 33 out of 60</p>","null","spm_show_trial_num","","","","","","","","","","","","","","","","","","","","","","","","",""
"","","","","","image-button-response","247","1671616","0.0-3.0-4.0-1.8","63ff612a5b78c13aa28fa88c","B2","batch2","","7397.5","img/question_3_9.jpeg","6","spm_respsonse","1","7","mat_33","","","","","","1","7397.5","","","","","","","","","","","","","","",""
"","","","","","html-keyboard-response","248","1672677","0.0-3.0-4.0-0.9","63ff612a5b78c13aa28fa88c","B2","batch2","","null","<p class=block-text>Trial 34 out of 60</p>","null","spm_show_trial_num","","","","","","","","","","","","","","","","","","","","","","","","",""
"","","","","","image-button-response","249","1677367","0.0-3.0-4.0-1.9","63ff612a5b78c13aa28fa88c","B2","batch2","","4687.599999964237","img/question_3_10.jpeg","3","spm_respsonse","0","6","mat_34","","","","","","0","4687.599999964237","","","","","","","","","","","","","","",""
"","","","","","html-keyboard-response","250","1678434","0.0-3.0-4.0-0.10","63ff612a5b78c13aa28fa88c","B2","batch2","","null","<p class=block-text>Trial 35 out of 60</p>","null","spm_show_trial_num","","","","","","","","","","","","","","","","","","","","","","","","",""
"","","","","","image-button-response","251","1691869","0.0-3.0-4.0-1.10","63ff612a5b78c13aa28fa88c","B2","batch2","","13432.100000023842","img/question_3_11.jpeg","3","spm_respsonse","0","1","mat_35","","","","","","0","13432.100000023842","","","","","","","","","","","","","","",""
"","","","","","html-keyboard-response","252","1692935","0.0-3.0-4.0-0.11","63ff612a5b78c13aa28fa88c","B2","batch2","","null","<p class=block-text>Trial 36 out of 60</p>","null","spm_show_trial_num","","","","","","","","","","","","","","","","","","","","","","","","",""
"","","","","","image-button-response","253","1702549","0.0-3.0-4.0-1.11","63ff612a5b78c13aa28fa88c","B2","batch2","","9612.300000011921","img/question_3_12.jpeg","7","spm_respsonse","0","2","mat_36","","","","","","0","9612.300000011921","","","","","","","","","","","","","","",""
"","","","","","html-keyboard-response","254","1703622","0.0-3.0-4.0-0.12","63ff612a5b78c13aa28fa88c","B2","batch2","","null","<p class=block-text>Trial 37 out of 60</p>","null","spm_show_trial_num","","","","","","","","","","","","","","","","","","","","","","","","",""
"","","","","","image-button-response","255","1709799","0.0-3.0-4.0-1.12","63ff612a5b78c13aa28fa88c","B2","batch2","","6175.399999976158","img/question_4_1.jpeg","2","spm_respsonse","1","3","mat_37","","","","","","1","6175.399999976158","","","","","","","","","","","","","","",""
"","","","","","html-keyboard-response","256","1710872","0.0-3.0-4.0-0.13","63ff612a5b78c13aa28fa88c","B2","batch2","","null","<p class=block-text>Trial 38 out of 60</p>","null","spm_show_trial_num","","","","","","","","","","","","","","","","","","","","","","","","",""
"","","","","","image-button-response","257","1720816","0.0-3.0-4.0-1.13","63ff612a5b78c13aa28fa88c","B2","batch2","","9942.400000035763","img/question_4_2.jpeg","1","spm_respsonse","0","4","mat_38","","","","","","0","9942.400000035763","","","","","","","","","","","","","","",""
"","","","","","html-keyboard-response","258","1721887","0.0-3.0-4.0-0.14","63ff612a5b78c13aa28fa88c","B2","batch2","","null","<p class=block-text>Trial 39 out of 60</p>","null","spm_show_trial_num","","","","","","","","","","","","","","","","","","","","","","","","",""
"","","","","","image-button-response","259","1731809","0.0-3.0-4.0-1.14","63ff612a5b78c13aa28fa88c","B2","batch2","","9920.199999988079","img/question_4_3.jpeg","2","spm_respsonse","1","3","mat_39","","","","","","1","9920.199999988079","","","","","","","","","","","","","","",""
"","","","","","html-keyboard-response","260","1732871","0.0-3.0-4.0-0.15","63ff612a5b78c13aa28fa88c","B2","batch2","","null","<p class=block-text>Trial 40 out of 60</p>","null","spm_show_trial_num","","","","","","","","","","","","","","","","","","","","","","","","",""
"","","","","","image-button-response","261","1750939","0.0-3.0-4.0-1.15","63ff612a5b78c13aa28fa88c","B2","batch2","","18065.19999998808","img/question_4_4.jpeg","6","spm_respsonse","1","7","mat_40","","","","","","1","18065.19999998808","","","","","","","","","","","","","","",""
"","","","","","html-keyboard-response","262","1751995","0.0-3.0-4.0-0.16","63ff612a5b78c13aa28fa88c","B2","batch2","","null","<p class=block-text>Trial 41 out of 60</p>","null","spm_show_trial_num","","","","","","","","","","","","","","","","","","","","","","","","",""
"","","","","","image-button-response","263","1760309","0.0-3.0-4.0-1.16","63ff612a5b78c13aa28fa88c","B2","batch2","","8311.400000035763","img/question_4_5.jpeg","7","spm_respsonse","1","8","mat_41","","","","","","1","8311.400000035763","","","","","","","","","","","","","","",""
"","","","","","html-keyboard-response","264","1761361","0.0-3.0-4.0-0.17","63ff612a5b78c13aa28fa88c","B2","batch2","","null","<p class=block-text>Trial 42 out of 60</p>","null","spm_show_trial_num","","","","","","","","","","","","","","","","","","","","","","","","",""
"","","","","","image-button-response","265","1777119","0.0-3.0-4.0-1.17","63ff612a5b78c13aa28fa88c","B2","batch2","","15755.799999952316","img/question_4_6.jpeg","5","spm_respsonse","1","6","mat_42","","","","","","1","15755.799999952316","","","","","","","","","","","","","","",""
"","","","","","html-keyboard-response","266","1778173","0.0-3.0-4.0-0.18","63ff612a5b78c13aa28fa88c","B2","batch2","","null","<p class=block-text>Trial 43 out of 60</p>","null","spm_show_trial_num","","","","","","","","","","","","","","","","","","","","","","","","",""
"","","","","","image-button-response","267","1803549","0.0-3.0-4.0-1.18","63ff612a5b78c13aa28fa88c","B2","batch2","","25373.80000001192","img/question_4_7.jpeg","7","spm_respsonse","0","5","mat_43","","","","","","0","25373.80000001192","","","","","","","","","","","","","","",""
"","","","","","html-keyboard-response","268","1804611","0.0-3.0-4.0-0.19","63ff612a5b78c13aa28fa88c","B2","batch2","","null","<p class=block-text>Trial 44 out of 60</p>","null","spm_show_trial_num","","","","","","","","","","","","","","","","","","","","","","","","",""
"","","","","","image-button-response","269","1817199","0.0-3.0-4.0-1.19","63ff612a5b78c13aa28fa88c","B2","batch2","","12586.100000023842","img/question_4_8.jpeg","3","spm_respsonse","1","4","mat_44","","","","","","1","12586.100000023842","","","","","","","","","","","","","","",""
"","","","","","html-keyboard-response","270","1818252","0.0-3.0-4.0-0.20","63ff612a5b78c13aa28fa88c","B2","batch2","","null","<p class=block-text>Trial 45 out of 60</p>","null","spm_show_trial_num","","","","","","","","","","","","","","","","","","","","","","","","",""
"","","","","","image-button-response","271","1829617","0.0-3.0-4.0-1.20","63ff612a5b78c13aa28fa88c","B2","batch2","","11363.5","img/question_4_9.jpeg","4","spm_respsonse","0","1","mat_45","","","","","","0","11363.5","","","","","","","","","","","","","","",""
"","","","","","html-keyboard-response","272","1830683","0.0-3.0-4.0-0.21","63ff612a5b78c13aa28fa88c","B2","batch2","","null","<p class=block-text>Trial 46 out of 60</p>","null","spm_show_trial_num","","","","","","","","","","","","","","","","","","","","","","","","",""
"","","","","","image-button-response","273","1850299","0.0-3.0-4.0-1.21","63ff612a5b78c13aa28fa88c","B2","batch2","","19614.400000035763","img/question_4_10.jpeg","1","spm_respsonse","1","2","mat_46","","","","","","1","19614.400000035763","","","","","","","","","","","","","","",""
"","","","","","html-keyboard-response","274","1851371","0.0-3.0-4.0-0.22","63ff612a5b78c13aa28fa88c","B2","batch2","","null","<p class=block-text>Trial 47 out of 60</p>","null","spm_show_trial_num","","","","","","","","","","","","","","","","","","","","","","","","",""
"","","","","","image-button-response","275","1859799","0.0-3.0-4.0-1.22","63ff612a5b78c13aa28fa88c","B2","batch2","","8426.5","img/question_4_11.jpeg","1","spm_respsonse","0","5","mat_47","","","","","","0","8426.5","","","","","","","","","","","","","","",""
"","","","","","html-keyboard-response","276","1860870","0.0-3.0-4.0-0.23","63ff612a5b78c13aa28fa88c","B2","batch2","","null","<p class=block-text>Trial 48 out of 60</p>","null","spm_show_trial_num","","","","","","","","","","","","","","","","","","","","","","","","",""
"","","","","","image-button-response","277","1872297","0.0-3.0-4.0-1.23","63ff612a5b78c13aa28fa88c","B2","batch2","","11424.900000035763","img/question_4_12.jpeg","0","spm_respsonse","0","6","mat_48","","","","","","0","11424.900000035763","","","","","","","","","","","","","","",""
"","","","","","html-keyboard-response","278","1873370","0.0-3.0-4.0-0.24","63ff612a5b78c13aa28fa88c","B2","batch2","","null","<p class=block-text>Trial 49 out of 60</p>","null","spm_show_trial_num","","","","","","","","","","","","","","","","","","","","","","","","",""
"","","","","","image-button-response","279","1885115","0.0-3.0-4.0-1.24","63ff612a5b78c13aa28fa88c","B2","batch2","","11742.699999988079","img/question_5_1.jpeg","2","spm_respsonse","0","7","mat_49","","","","","","0","11742.699999988079","","","","","","","","","","","","","","",""
"","","","","","html-keyboard-response","280","1886183","0.0-3.0-4.0-0.25","63ff612a5b78c13aa28fa88c","B2","batch2","","null","<p class=block-text>Trial 50 out of 60</p>","null","spm_show_trial_num","","","","","","","","","","","","","","","","","","","","","","","","",""
"","","","","","image-button-response","281","1896769","0.0-3.0-4.0-1.25","63ff612a5b78c13aa28fa88c","B2","batch2","","10584.799999952316","img/question_5_2.jpeg","5","spm_respsonse","1","6","mat_50","","","","","","1","10584.799999952316","","","","","","","","","","","","","","",""
"","","","","","html-keyboard-response","282","1897843","0.0-3.0-4.0-0.26","63ff612a5b78c13aa28fa88c","B2","batch2","","null","<p class=block-text>Trial 51 out of 60</p>","null","spm_show_trial_num","","","","","","","","","","","","","","","","","","","","","","","","",""
"","","","","","image-button-response","283","1926720","0.0-3.0-4.0-1.26","63ff612a5b78c13aa28fa88c","B2","batch2","","28874.399999976158","img/question_5_3.jpeg","7","spm_respsonse","1","8","mat_51","","","","","","1","28874.399999976158","","","","","","","","","","","","","","",""
"","","","","","html-keyboard-response","284","1927780","0.0-3.0-4.0-0.27","63ff612a5b78c13aa28fa88c","B2","batch2","","null","<p class=block-text>Trial 52 out of 60</p>","null","spm_show_trial_num","","","","","","","","","","","","","","","","","","","","","","","","",""
"","","","","","image-button-response","285","1931067","0.0-3.0-4.0-1.27","63ff612a5b78c13aa28fa88c","B2","batch2","","3284.7999999523163","img/question_5_4.jpeg","3","spm_respsonse","0","2","mat_52","","","","","","0","3284.7999999523163","","","","","","","","","","","","","","",""
"","","","","","html-keyboard-response","286","1932124","0.0-3.0-4.0-0.28","63ff612a5b78c13aa28fa88c","B2","batch2","","null","<p class=block-text>Trial 53 out of 60</p>","null","spm_show_trial_num","","","","","","","","","","","","","","","","","","","","","","","","",""
"","","","","","image-button-response","287","1934365","0.0-3.0-4.0-1.28","63ff612a5b78c13aa28fa88c","B2","batch2","","2239.199999988079","img/question_5_5.jpeg","5","spm_respsonse","0","1","mat_53","","","","","","0","2239.199999988079","","","","","","","","","","","","","","",""
"","","","","","html-keyboard-response","288","1935418","0.0-3.0-4.0-0.29","63ff612a5b78c13aa28fa88c","B2","batch2","","null","<p class=block-text>Trial 54 out of 60</p>","null","spm_show_trial_num","","","","","","","","","","","","","","","","","","","","","","","","",""
"","","","","","image-button-response","289","1947997","0.0-3.0-4.0-1.29","63ff612a5b78c13aa28fa88c","B2","batch2","","12576.5","img/question_5_6.jpeg","7","spm_respsonse","0","5","mat_54","","","","","","0","12576.5","","","","","","","","","","","","","","",""
"","","","","","html-keyboard-response","290","1949048","0.0-3.0-4.0-0.30","63ff612a5b78c13aa28fa88c","B2","batch2","","null","<p class=block-text>Trial 55 out of 60</p>","null","spm_show_trial_num","","","","","","","","","","","","","","","","","","","","","","","","",""
"","","","","","image-button-response","291","1955627","0.0-3.0-4.0-1.30","63ff612a5b78c13aa28fa88c","B2","batch2","","6577.700000047684","img/question_5_7.jpeg","7","spm_respsonse","0","1","mat_55","","","","","","0","6577.700000047684","","","","","","","","","","","","","","",""
"","","","","","html-keyboard-response","292","1956697","0.0-3.0-4.0-0.31","63ff612a5b78c13aa28fa88c","B2","batch2","","null","<p class=block-text>Trial 56 out of 60</p>","null","spm_show_trial_num","","","","","","","","","","","","","","","","","","","","","","","","",""
"","","","","","image-button-response","293","1977667","0.0-3.0-4.0-1.31","63ff612a5b78c13aa28fa88c","B2","batch2","","20968.19999998808","img/question_5_8.jpeg","1","spm_respsonse","0","6","mat_56","","","","","","0","20968.19999998808","","","","","","","","","","","","","","",""
"","","","","","html-keyboard-response","294","1978745","0.0-3.0-4.0-0.32","63ff612a5b78c13aa28fa88c","B2","batch2","","null","<p class=block-text>Trial 57 out of 60</p>","null","spm_show_trial_num","","","","","","","","","","","","","","","","","","","","","","","","",""
"","","","","","image-button-response","295","1992809","0.0-3.0-4.0-1.32","63ff612a5b78c13aa28fa88c","B2","batch2","","14061.800000011921","img/question_5_9.jpeg","3","spm_respsonse","0","3","mat_57","","","","","","0","14061.800000011921","","","","","","","","","","","","","","",""
"","","","","","html-keyboard-response","296","1993885","0.0-3.0-4.0-0.33","63ff612a5b78c13aa28fa88c","B2","batch2","","null","<p class=block-text>Trial 58 out of 60</p>","null","spm_show_trial_num","","","","","","","","","","","","","","","","","","","","","","","","",""
"","","","","","image-button-response","297","1999489","0.0-3.0-4.0-1.33","63ff612a5b78c13aa28fa88c","B2","batch2","","5601.800000011921","img/question_5_10.jpeg","6","spm_respsonse","0","2","mat_58","","","","","","0","5601.800000011921","","","","","","","","","","","","","","",""
"","","","","","html-keyboard-response","298","2000558","0.0-3.0-4.0-0.34","63ff612a5b78c13aa28fa88c","B2","batch2","","null","<p class=block-text>Trial 59 out of 60</p>","null","spm_show_trial_num","","","","","","","","","","","","","","","","","","","","","","","","",""
"","","","","","image-button-response","299","2004497","0.0-3.0-4.0-1.34","63ff612a5b78c13aa28fa88c","B2","batch2","","3937.300000011921","img/question_5_11.jpeg","6","spm_respsonse","0","4","mat_59","","","","","","0","3937.300000011921","","","","","","","","","","","","","","",""
"","","","","","html-keyboard-response","300","2005573","0.0-3.0-4.0-0.35","63ff612a5b78c13aa28fa88c","B2","batch2","","null","<p class=block-text>Trial 60 out of 60</p>","null","spm_show_trial_num","","","","","","","","","","","","","","","","","","","","","","","","",""
"","","","","","image-button-response","301","2013187","0.0-3.0-4.0-1.35","63ff612a5b78c13aa28fa88c","B2","batch2","","7612","img/question_5_12.jpeg","2","spm_respsonse","0","5","mat_60","","","","","","0","7612","","","","","","","","","","","","","","",""
"","","","","","html-button-response","302","2019457","0.0-3.0-5.0","63ff612a5b78c13aa28fa88c","B2","batch2","","6007.699999988079","<p class= block-text>This concludes the Standard Progressive Matrix game. Thank you for your responses!<br> When you are ready, click the button continue</p>","0","spm_goodbye","","","","","","","","","","","","","","","","","","","","","","","","",""
"true","","","","","fullscreen","303","2024010","0.0-4.0-0.0","63ff612a5b78c13aa28fa88c","B2","batch2","","","","","","","","","","","","","","","","","","","","","","","","","","","","","",""
"","","","","","instructions","304","2157677","0.0-4.0-1.0-0.0-0.0","63ff612a5b78c13aa28fa88c","B2","batch2","[{""page_index"":0,""viewing_time"":27299.80000001192},{""page_index"":1,""viewing_time"":13069.899999976158},{""page_index"":2,""viewing_time"":10188.800000011921},{""page_index"":3,""viewing_time"":32300.5},{""page_index"":4,""viewing_time"":18469.80000001192},{""page_index"":5,""viewing_time"":25160.19999998808},{""page_index"":6,""viewing_time"":7178}]","133667.30000001192","","","tol-instructions","","","","","","","","","","","","","","","","","","","","","","","","",""
"","","","","","html-button-response","305","2159439","0.0-4.0-1.0-1.0-0.0","63ff612a5b78c13aa28fa88c","B2","batch2","","1761.1000000238419","<p class=block-text> Let's answer a few questions <br>","0","tol_enter_quiz","","","","","","","","","","","","","","","","","","","","","","","","",""
"","","","","","html-button-response","306","2171007","0.0-4.0-1.0-1.0-1.0","63ff612a5b78c13aa28fa88c","B2","batch2","","11567.300000011921","<p class = block-text>True or False: You can only move the ball on top of a peg. <br></p>","0","tol_quiz","true","","","","","","","","","","","","","","","","","","","","","","","",""
"","","","","","html-button-response","307","2172489","0.0-4.0-1.0-1.0-2.0","63ff612a5b78c13aa28fa88c","B2","batch2","","1480.7999999523163","<p class = block-text>Correct! You can only move the ball on top of a peg.</p>","0","tol_quiz_feedback","","","","","","","","","","","","","","","","","","","","","","","","",""
"","","","","","html-button-response","308","2178089","0.0-4.0-1.0-1.0-3.0","63ff612a5b78c13aa28fa88c","B2","batch2","","5599.199999988079","<p class = block-text>True or False: You should try to match your board with the target board with fewest moves possible. <br></p>","0","tol_quiz","true","","","","","","","","","","","","","","","","","","","","","","","",""
"","","","","","html-button-response","309","2179339","0.0-4.0-1.0-1.0-4.0","63ff612a5b78c13aa28fa88c","B2","batch2","","1249.1000000238419","<p class = block-text>Correct! </p>","0","tol_quiz_feedback","","","","","","","","","","","","","","","","","","","","","","","","",""
"","","","","","html-button-response","310","2181457","0.0-4.0-2.0","63ff612a5b78c13aa28fa88c","B2","batch2","","2116.5","<p class=block-text> Now that you've understood the game, let's practice a few easier examples before we start!<br> <br>","0","","","","","","","","","","","","","","","","","","","","","","","","","",""
"","","","","","single-stim-button","311","2186861","0.0-4.0-3.0-0.0","63ff612a5b78c13aa28fa88c","B2","batch2","","5402","","","tol_practice","","","","","","","","","","","tol_peg_2","5402","5402","0","[[1,2,0],[0,0],[0]]","1","[[1,2,0],[0,0],[3]]","practice","5402","","","","","",""
"","","","","","single-stim-button","312","2188729","0.0-4.0-3.0-1.0","63ff612a5b78c13aa28fa88c","B2","batch2","","1867","","","tol_practice","","","","","","","","","","","tol_peg_3","1867","1867","0","[[1,2,0],[0,0],[3]]","1","[[1,2,0],[0,0],[3]]","practice","1867","","","","","",""
"","","","","","poldrack-single-stim","313","2189744","0.0-4.0-4.0","63ff612a5b78c13aa28fa88c","B2","batch2","","-1","","","tol_feedback","true","","","","","","","","","","","1000","1000","500","","","","","","-1","none","true","","0",""
"","","","","","single-stim-button","314","2202270","0.0-4.0-5.0-0.0","63ff612a5b78c13aa28fa88c","B2","batch2","","12524","","","tol_practice","","","","","","","","","","","tol_peg_1","12524","12524","0","[[1,0,0],[3,0],[0]]","2","[[0,0,0],[3,1],[2]]","practice","12524","","","","","",""
"","","","","","single-stim-button","315","2204120","0.0-4.0-5.0-1.0","63ff612a5b78c13aa28fa88c","B2","batch2","","1850","","","tol_practice","","","","","","","","","","","tol_peg_3","1850","1850","0","[[1,0,0],[3,0],[2]]","2","[[0,0,0],[3,1],[2]]","practice","1850","","","","","",""
"","","","","","single-stim-button","316","2206381","0.0-4.0-5.1-0.1","63ff612a5b78c13aa28fa88c","B2","batch2","","2261","","","tol_practice","","","","","","","","","","","tol_peg_1","2261","2261","0","[[0,0,0],[3,0],[2]]","3","[[0,0,0],[3,1],[2]]","practice","2261","","","","","",""
"","","","","","single-stim-button","317","2208280","0.0-4.0-5.1-1.1","63ff612a5b78c13aa28fa88c","B2","batch2","","1898","","","tol_practice","","","","","","","","","","","tol_peg_2","1898","1898","0","[[0,0,0],[3,1],[2]]","3","[[0,0,0],[3,1],[2]]","practice","1898","","","","","",""
"","","","","","poldrack-single-stim","318","2209291","0.0-4.0-6.0","63ff612a5b78c13aa28fa88c","B2","batch2","","-1","","","tol_feedback","true","","","","","","","","","","","1000","1000","500","","","","","","-1","none","true","","0",""
"","","","","","single-stim-button","319","2218507","0.0-4.0-7.0-0.0","63ff612a5b78c13aa28fa88c","B2","batch2","","9216","","","tol_practice","","","","","","","","","","","tol_peg_2","9216","9216","0","[[1,2,0],[0,0],[0]]","4","[[1,0,0],[2,0],[3]]","practice","9216","","","","","",""
"","","","","","single-stim-button","320","2220019","0.0-4.0-7.0-1.0","63ff612a5b78c13aa28fa88c","B2","batch2","","1511","","","tol_practice","","","","","","","","","","","tol_peg_3","1511","1511","0","[[1,2,0],[0,0],[3]]","4","[[1,0,0],[2,0],[3]]","practice","1511","","","","","",""
"","","","","","single-stim-button","321","2221887","0.0-4.0-7.1-0.1","63ff612a5b78c13aa28fa88c","B2","batch2","","1867","","","tol_practice","","","","","","","","","","","tol_peg_1","1867","1867","0","[[1,0,0],[0,0],[3]]","5","[[1,0,0],[2,0],[3]]","practice","1867","","","","","",""
"","","","","","single-stim-button","322","2223828","0.0-4.0-7.1-1.1","63ff612a5b78c13aa28fa88c","B2","batch2","","1940","","","tol_practice","","","","","","","","","","","tol_peg_2","1940","1940","0","[[1,0,0],[2,0],[3]]","5","[[1,0,0],[2,0],[3]]","practice","1940","","","","","",""
"","","","","","poldrack-single-stim","323","2224837","0.0-4.0-8.0","63ff612a5b78c13aa28fa88c","B2","batch2","","-1","","","tol_feedback","true","","","","","","","","","","","1000","1000","500","","","","","","-1","none","true","","0",""
"","","","","","html-button-response","324","2232968","0.0-4.0-9.0","63ff612a5b78c13aa28fa88c","B2","batch2","","8130.899999976158","<div class = centerbox><p class = center-block-text>Great job! You are done with practice trials<br>You are about to start official trials.<br> <br> Problem <strong>1</strong> out of 25 problems</p></div>","0","tol_instruction","","","","","","","","","","","","","","","","","","","","","","","","",""
"","","","","","single-stim-button","325","2245198","0.0-4.0-10.0-0.0","63ff612a5b78c13aa28fa88c","B2","batch2","","11218","","","tol_tohand","","","","","","","","","","","tol_peg_2","11218","11218","0","[[1,2,0],[0,0],[0]]","1","[[1,3,0],[2,0],[0]]","0","0","","","","","","3"
"","","","","","single-stim-button","326","2247269","0.0-4.0-10.0-1.0","63ff612a5b78c13aa28fa88c","B2","batch2","","2071","","","tol_toboard","","","","","","","","","","","tol_peg_3","2071","2071","0","[[1,2,0],[0,0],[3]]","1","[[1,3,0],[2,0],[0]]","0","0","","","","","","3"
"","","","","","single-stim-button","327","2249049","0.0-4.0-10.1-0.1","63ff612a5b78c13aa28fa88c","B2","batch2","","1778","","","tol_tohand","","","","","","","","","","","tol_peg_1","1778","1778","0","[[1,0,0],[0,0],[3]]","2","[[1,3,0],[2,0],[0]]","0","0","","","","","","3"
"","","","","","single-stim-button","328","2251819","0.0-4.0-10.1-1.1","63ff612a5b78c13aa28fa88c","B2","batch2","","2770","","","tol_toboard","","","","","","","","","","","tol_peg_2","2770","2770","0","[[1,0,0],[2,0],[3]]","2","[[1,3,0],[2,0],[0]]","0","0","","","","","","3"
"","","","","","single-stim-button","329","2253527","0.0-4.0-10.2-0.2","63ff612a5b78c13aa28fa88c","B2","batch2","","1707","","","tol_tohand","","","","","","","","","","","tol_peg_3","1707","1707","0","[[1,0,0],[2,0],[0]]","3","[[1,3,0],[2,0],[0]]","0","0","","","","","","3"
"","","","","","single-stim-button","330","2255609","0.0-4.0-10.2-1.2","63ff612a5b78c13aa28fa88c","B2","batch2","","2081","","","tol_toboard","","","","","","","","","","","tol_peg_1","2081","2081","0","[[1,3,0],[2,0],[0]]","3","[[1,3,0],[2,0],[0]]","0","0","","","","","","3"
"","","","","","poldrack-single-stim","331","2256610","0.0-4.0-11.0","63ff612a5b78c13aa28fa88c","B2","batch2","","-1","","","tol_feedback","true","","","","","","","","","","","1000","1000","500","","","","","","-1","none","true","11218","14703",""
"","","","","","html-button-response","332","2258228","0.0-4.0-12.0","63ff612a5b78c13aa28fa88c","B2","batch2","","1616.6000000238419","<div class = centerbox><p class = center-block-text>problem <strong>2</strong> out of 25 problems</p></div>","0","tol_trial_num","","","","","","","","","","","","","","","","","","","","","","","","",""
"","","","","","single-stim-button","333","2265019","0.0-4.0-13.0-0.0","63ff612a5b78c13aa28fa88c","B2","batch2","","6791","","","tol_tohand","","","","","","","","","","","tol_peg_1","6791","6791","0","[[1,0,0],[3,0],[0]]","1","[[2,1,3],[0,0],[0]]","1","0","","","","","","5"
"","","","","","single-stim-button","334","2268179","0.0-4.0-13.0-1.0","63ff612a5b78c13aa28fa88c","B2","batch2","","3159","","","tol_toboard","","","","","","","","","","","tol_peg_3","3159","3159","0","[[1,0,0],[3,0],[2]]","1","[[2,1,3],[0,0],[0]]","1","0","","","","","","5"
"","","","","","single-stim-button","335","2272619","0.0-4.0-13.1-0.1","63ff612a5b78c13aa28fa88c","B2","batch2","","4439","","","tol_tohand","","","","","","","","","","","tol_peg_1","4439","4439","0","[[0,0,0],[3,0],[2]]","2","[[2,1,3],[0,0],[0]]","1","0","","","","","","5"
"","","","","","single-stim-button","336","2276149","0.0-4.0-13.1-1.1","63ff612a5b78c13aa28fa88c","B2","batch2","","3529","","","tol_toboard","","","","","","","","","","","tol_peg_2","3529","3529","0","[[0,0,0],[3,1],[2]]","2","[[2,1,3],[0,0],[0]]","1","0","","","","","","5"
"","","","","","single-stim-button","337","2277739","0.0-4.0-13.2-0.2","63ff612a5b78c13aa28fa88c","B2","batch2","","1590","","","tol_tohand","","","","","","","","","","","tol_peg_3","1590","1590","0","[[0,0,0],[3,1],[0]]","3","[[2,1,3],[0,0],[0]]","1","0","","","","","","5"
"","","","","","single-stim-button","338","2279859","0.0-4.0-13.2-1.2","63ff612a5b78c13aa28fa88c","B2","batch2","","2119","","","tol_toboard","","","","","","","","","","","tol_peg_1","2119","2119","0","[[2,0,0],[3,1],[0]]","3","[[2,1,3],[0,0],[0]]","1","0","","","","","","5"
"","","","","","single-stim-button","339","2281369","0.0-4.0-13.3-0.3","63ff612a5b78c13aa28fa88c","B2","batch2","","1510","","","tol_tohand","","","","","","","","","","","tol_peg_2","1510","1510","0","[[2,0,0],[3,0],[0]]","4","[[2,1,3],[0,0],[0]]","1","0","","","","","","5"
"","","","","","single-stim-button","340","2282309","0.0-4.0-13.3-1.3","63ff612a5b78c13aa28fa88c","B2","batch2","","940","","","tol_toboard","","","","","","","","","","","tol_peg_1","940","940","0","[[2,1,0],[3,0],[0]]","4","[[2,1,3],[0,0],[0]]","1","0","","","","","","5"
"","","","","","single-stim-button","341","2283919","0.0-4.0-13.4-0.4","63ff612a5b78c13aa28fa88c","B2","batch2","","1609","","","tol_tohand","","","","","","","","","","","tol_peg_2","1609","1609","0","[[2,1,0],[0,0],[0]]","5","[[2,1,3],[0,0],[0]]","1","0","","","","","","5"
"","","","","","single-stim-button","342","2285109","0.0-4.0-13.4-1.4","63ff612a5b78c13aa28fa88c","B2","batch2","","1190","","","tol_toboard","","","","","","","","","","","tol_peg_1","1190","1190","0","[[2,1,3],[0,0],[0]]","5","[[2,1,3],[0,0],[0]]","1","0","","","","","","5"
"","","","","","poldrack-single-stim","343","2286119","0.0-4.0-14.0","63ff612a5b78c13aa28fa88c","B2","batch2","","-1","","","tol_feedback","true","","","","","","","","","","","1000","1000","500","","","","","","-1","none","true","6791","15939",""
"","","","","","html-button-response","344","2354027","0.0-4.0-15.0","63ff612a5b78c13aa28fa88c","B2","batch2","","67906.89999997616","<div class = centerbox><p class = center-block-text>problem <strong>3</strong> out of 25 problems</p></div>","0","tol_trial_num","","","","","","","","","","","","","","","","","","","","","","","","",""
"","","","","","single-stim-button","345","2366899","0.0-4.0-16.0-0.0","63ff612a5b78c13aa28fa88c","B2","batch2","","12872","","","tol_tohand","","","","","","","","","","","tol_peg_1","12872","12872","0","[[2,0,0],[0,0],[1]]","1","[[1,2,0],[3,0],[0]]","2","0","","","","","","4"
"","","","","","single-stim-button","346","2368649","0.0-4.0-16.0-1.0","63ff612a5b78c13aa28fa88c","B2","batch2","","1749","","","tol_toboard","","","","","","","","","","","tol_peg_2","1749","1749","0","[[2,0,0],[3,0],[1]]","1","[[1,2,0],[3,0],[0]]","2","0","","","","","","4"
