"success","timeout","failed_images","failed_audio","failed_video","trial_type","trial_index","time_elapsed","internal_node_id","subject_id","study_id","session_id","view_history","rt","task","stimulus","response","correct","mouse_click","stim_duration","block_duration","timing_post_trial","current_position","tol_num_moves_made","tol_target","tol_problem_id","tol_rt","key_press","possible_responses","tol_correct","preplanning","tol_rt_per_trial","tol_min_moves","item","answer","spm_correct","spm_rt","fiar_detect_rt","fiar_detect_correct","total_correct_fiar_detect","post_trial_gap","choices"
"true","false","[]","[]","[]","preload","0","6052","0.0-0.0","63ffb67634be3d959f3ff793","A3","batch1","","","","","","","","","","","","","","","","","","","","","","","","","","","","","",""
"true","","","","","fullscreen","1","15606","0.0-1.0-0.0","63ffb67634be3d959f3ff793","A3","batch1","","","","","","","","","","","","","","","","","","","","","","","","","","","","","",""
"true","","","","","fullscreen","2","20329","0.0-2.0-0.0","63ffb67634be3d959f3ff793","A3","batch1","","","","","","","","","","","","","","","","","","","","","","","","","","","","","",""
"","","","","","instructions","3","82940","0.0-2.0-1.0-0.0-0.0","63ffb67634be3d959f3ff793","A3","batch1","[{""page_index"":0,""viewing_time"":18634.100000023842},{""page_index"":1,""viewing_time"":7815.799999952316},{""page_index"":2,""viewing_time"":6906.100000023842},{""page_index"":3,""viewing_time"":8074.199999928474},{""page_index"":4,""viewing_time"":6299.800000071526},{""page_index"":5,""viewing_time"":12612.299999952316},{""page_index"":6,""viewing_time"":2267.600000023842}]","62610.199999928474","tol-instructions","","","","","","","","","","","","","","","","","","","","","","","","","","",""
"","","","","","html-button-response","4","84040","0.0-2.0-1.0-1.0-0.0","63ffb67634be3d959f3ff793","A3","batch1","","1099.3999999761581","tol_enter_quiz","<p class=block-text> Let's answer a few questions <br>","0","","","","","","","","","","","","","","","","","","","","","","","","",""
"","","","","","html-button-response","5","87788","0.0-2.0-1.0-1.0-1.0","63ffb67634be3d959f3ff793","A3","batch1","","3746.7000000476837","tol_quiz","<p class = block-text>True or False: You can only move the ball on top of a peg. <br></p>","0","true","","","","","","","","","","","","","","","","","","","","","","","",""
"","","","","","html-button-response","6","89170","0.0-2.0-1.0-1.0-2.0","63ffb67634be3d959f3ff793","A3","batch1","","1380.9000000953674","tol_quiz_feedback","<p class = block-text>Correct! You can only move the ball on top of a peg.</p>","0","","","","","","","","","","","","","","","","","","","","","","","","",""
"","","","","","html-button-response","7","92068","0.0-2.0-1.0-1.0-3.0","63ffb67634be3d959f3ff793","A3","batch1","","2897.4000000953674","tol_quiz","<p class = block-text>True or False: You should try to match your board with the target board with fewest moves possible. <br></p>","0","true","","","","","","","","","","","","","","","","","","","","","","","",""
"","","","","","html-button-response","8","93152","0.0-2.0-1.0-1.0-4.0","63ffb67634be3d959f3ff793","A3","batch1","","1083.5","tol_quiz_feedback","<p class = block-text>Correct! </p>","0","","","","","","","","","","","","","","","","","","","","","","","","",""
"","","","","","html-button-response","9","94501","0.0-2.0-2.0","63ffb67634be3d959f3ff793","A3","batch1","","1348.1000000238419","","<p class=block-text> Now that you've understood the game, let's practice a few easier examples before we start!<br> <br>","0","","","","","","","","","","","","","","","","","","","","","","","","",""
"","","","","","single-stim-button","10","96899","0.0-2.0-3.0-0.0","63ffb67634be3d959f3ff793","A3","batch1","","2396","tol_practice","","","","tol_peg_2","2396","2396","0","[[1,2,0],[0,0],[0]]","1","[[1,2,0],[0,0],[3]]","practice","2396","","","","","","","","","","","","","","",""
"","","","","","single-stim-button","11","98240","0.0-2.0-3.0-1.0","63ffb67634be3d959f3ff793","A3","batch1","","1341","tol_practice","","","","tol_peg_3","1341","1341","0","[[1,2,0],[0,0],[3]]","1","[[1,2,0],[0,0],[3]]","practice","1341","","","","","","","","","","","","","","",""
"","","","","","poldrack-single-stim","12","99246","0.0-2.0-4.0","63ffb67634be3d959f3ff793","A3","batch1","","-1","tol_feedback","","","true","","1000","1000","500","","","","","","-1","none","true","","0","","","","","","","","","",""
"","","","","","single-stim-button","13","102209","0.0-2.0-5.0-0.0","63ffb67634be3d959f3ff793","A3","batch1","","2961","tol_practice","","","","tol_peg_1","2961","2961","0","[[1,0,0],[3,0],[0]]","2","[[0,0,0],[3,1],[2]]","practice","2961","","","","","","","","","","","","","","",""
"","","","","","single-stim-button","14","103292","0.0-2.0-5.0-1.0","63ffb67634be3d959f3ff793","A3","batch1","","1083","tol_practice","","","","tol_peg_3","1083","1083","0","[[1,0,0],[3,0],[2]]","2","[[0,0,0],[3,1],[2]]","practice","1083","","","","","","","","","","","","","","",""
"","","","","","single-stim-button","15","104430","0.0-2.0-5.1-0.1","63ffb67634be3d959f3ff793","A3","batch1","","1136","tol_practice","","","","tol_peg_1","1136","1136","0","[[0,0,0],[3,0],[2]]","3","[[0,0,0],[3,1],[2]]","practice","1136","","","","","","","","","","","","","","",""
"","","","","","single-stim-button","16","105208","0.0-2.0-5.1-1.1","63ffb67634be3d959f3ff793","A3","batch1","","777","tol_practice","","","","tol_peg_2","777","777","0","[[0,0,0],[3,1],[2]]","3","[[0,0,0],[3,1],[2]]","practice","777","","","","","","","","","","","","","","",""
"","","","","","poldrack-single-stim","17","106211","0.0-2.0-6.0","63ffb67634be3d959f3ff793","A3","batch1","","-1","tol_feedback","","","true","","1000","1000","500","","","","","","-1","none","true","","0","","","","","","","","","",""
"","","","","","single-stim-button","18","110040","0.0-2.0-7.0-0.0","63ffb67634be3d959f3ff793","A3","batch1","","3829","tol_practice","","","","tol_peg_2","3829","3829","0","[[1,2,0],[0,0],[0]]","4","[[1,0,0],[2,0],[3]]","practice","3829","","","","","","","","","","","","","","",""
"","","","","","single-stim-button","19","110888","0.0-2.0-7.0-1.0","63ffb67634be3d959f3ff793","A3","batch1","","847","tol_practice","","","","tol_peg_3","847","847","0","[[1,2,0],[0,0],[3]]","4","[[1,0,0],[2,0],[3]]","practice","847","","","","","","","","","","","","","","",""
"","","","","","single-stim-button","20","111681","0.0-2.0-7.1-0.1","63ffb67634be3d959f3ff793","A3","batch1","","793","tol_practice","","","","tol_peg_1","793","793","0","[[1,0,0],[0,0],[3]]","5","[[1,0,0],[2,0],[3]]","practice","793","","","","","","","","","","","","","","",""
"","","","","","single-stim-button","21","112568","0.0-2.0-7.1-1.1","63ffb67634be3d959f3ff793","A3","batch1","","886","tol_practice","","","","tol_peg_2","886","886","0","[[1,0,0],[2,0],[3]]","5","[[1,0,0],[2,0],[3]]","practice","886","","","","","","","","","","","","","","",""
"","","","","","poldrack-single-stim","22","113583","0.0-2.0-8.0","63ffb67634be3d959f3ff793","A3","batch1","","-1","tol_feedback","","","true","","1000","1000","500","","","","","","-1","none","true","","0","","","","","","","","","",""
"","","","","","html-button-response","23","116261","0.0-2.0-9.0","63ffb67634be3d959f3ff793","A3","batch1","","2677.600000023842","tol_instruction","<div class = centerbox><p class = center-block-text>Great job! You are done with practice trials<br>You are about to start official trials.<br> <br> Problem <strong>1</strong> out of 25 problems</p></div>","0","","","","","","","","","","","","","","","","","","","","","","","","",""
"","","","","","single-stim-button","24","120252","0.0-2.0-10.0-0.0","63ffb67634be3d959f3ff793","A3","batch1","","2979","tol_tohand","","","","tol_peg_2","2979","2979","0","[[1,2,0],[0,0],[0]]","1","[[1,3,0],[2,0],[0]]","0","0","","","","","","3","","","","","","","","",""
"","","","","","single-stim-button","25","120872","0.0-2.0-10.0-1.0","63ffb67634be3d959f3ff793","A3","batch1","","620","tol_toboard","","","","tol_peg_3","620","620","0","[[1,2,0],[0,0],[3]]","1","[[1,3,0],[2,0],[0]]","0","0","","","","","","3","","","","","","","","",""
"","","","","","single-stim-button","26","121690","0.0-2.0-10.1-0.1","63ffb67634be3d959f3ff793","A3","batch1","","817","tol_tohand","","","","tol_peg_1","817","817","0","[[1,0,0],[0,0],[3]]","2","[[1,3,0],[2,0],[0]]","0","0","","","","","","3","","","","","","","","",""
"","","","","","single-stim-button","27","122359","0.0-2.0-10.1-1.1","63ffb67634be3d959f3ff793","A3","batch1","","668","tol_toboard","","","","tol_peg_2","668","668","0","[[1,0,0],[2,0],[3]]","2","[[1,3,0],[2,0],[0]]","0","0","","","","","","3","","","","","","","","",""
"","","","","","single-stim-button","28","123293","0.0-2.0-10.2-0.2","63ffb67634be3d959f3ff793","A3","batch1","","934","tol_tohand","","","","tol_peg_3","934","934","0","[[1,0,0],[2,0],[0]]","3","[[1,3,0],[2,0],[0]]","0","0","","","","","","3","","","","","","","","",""
"","","","","","single-stim-button","29","124022","0.0-2.0-10.2-1.2","63ffb67634be3d959f3ff793","A3","batch1","","729","tol_toboard","","","","tol_peg_1","729","729","0","[[1,3,0],[2,0],[0]]","3","[[1,3,0],[2,0],[0]]","0","0","","","","","","3","","","","","","","","",""
"","","","","","poldrack-single-stim","30","125036","0.0-2.0-11.0","63ffb67634be3d959f3ff793","A3","batch1","","-1","tol_feedback","","","true","","1000","1000","500","","","","","","-1","none","true","2979","4730","","","","","","","","","",""
"","","","","","html-button-response","31","126120","0.0-2.0-12.0","63ffb67634be3d959f3ff793","A3","batch1","","1082.8000000715256","tol_trial_num","<div class = centerbox><p class = center-block-text>problem <strong>2</strong> out of 25 problems</p></div>","0","","","","","","","","","","","","","","","","","","","","","","","","",""
"","","","","","single-stim-button","32","130464","0.0-2.0-13.0-0.0","63ffb67634be3d959f3ff793","A3","batch1","","4344","tol_tohand","","","","tol_peg_1","4344","4344","0","[[1,0,0],[3,0],[0]]","1","[[2,1,3],[0,0],[0]]","1","0","","","","","","5","","","","","","","","",""
"","","","","","single-stim-button","33","131581","0.0-2.0-13.0-1.0","63ffb67634be3d959f3ff793","A3","batch1","","1116","tol_toboard","","","","tol_peg_3","1116","1116","0","[[1,0,0],[3,0],[2]]","1","[[2,1,3],[0,0],[0]]","1","0","","","","","","5","","","","","","","","",""
"","","","","","single-stim-button","34","132332","0.0-2.0-13.1-0.1","63ffb67634be3d959f3ff793","A3","batch1","","751","tol_tohand","","","","tol_peg_1","751","751","0","[[0,0,0],[3,0],[2]]","2","[[2,1,3],[0,0],[0]]","1","0","","","","","","5","","","","","","","","",""
"","","","","","single-stim-button","35","132979","0.0-2.0-13.1-1.1","63ffb67634be3d959f3ff793","A3","batch1","","647","tol_toboard","","","","tol_peg_2","647","647","0","[[0,0,0],[3,1],[2]]","2","[[2,1,3],[0,0],[0]]","1","0","","","","","","5","","","","","","","","",""
"","","","","","single-stim-button","36","133764","0.0-2.0-13.2-0.2","63ffb67634be3d959f3ff793","A3","batch1","","785","tol_tohand","","","","tol_peg_3","785","785","0","[[0,0,0],[3,1],[0]]","3","[[2,1,3],[0,0],[0]]","1","0","","","","","","5","","","","","","","","",""
"","","","","","single-stim-button","37","134594","0.0-2.0-13.2-1.2","63ffb67634be3d959f3ff793","A3","batch1","","829","tol_toboard","","","","tol_peg_1","829","829","0","[[2,0,0],[3,1],[0]]","3","[[2,1,3],[0,0],[0]]","1","0","","","","","","5","","","","","","","","",""
"","","","","","single-stim-button","38","135295","0.0-2.0-13.3-0.3","63ffb67634be3d959f3ff793","A3","batch1","","701","tol_tohand","","","","tol_peg_2","701","701","0","[[2,0,0],[3,0],[0]]","4","[[2,1,3],[0,0],[0]]","1","0","","","","","","5","","","","","","","","",""
"","","","","","single-stim-button","39","135930","0.0-2.0-13.3-1.3","63ffb67634be3d959f3ff793","A3","batch1","","635","tol_toboard","","","","tol_peg_1","635","635","0","[[2,1,0],[3,0],[0]]","4","[[2,1,3],[0,0],[0]]","1","0","","","","","","5","","","","","","","","",""
"","","","","","single-stim-button","40","136550","0.0-2.0-13.4-0.4","63ffb67634be3d959f3ff793","A3","batch1","","620","tol_tohand","","","","tol_peg_2","620","620","0","[[2,1,0],[0,0],[0]]","5","[[2,1,3],[0,0],[0]]","1","0","","","","","","5","","","","","","","","",""
"","","","","","single-stim-button","41","137266","0.0-2.0-13.4-1.4","63ffb67634be3d959f3ff793","A3","batch1","","716","tol_toboard","","","","tol_peg_1","716","716","0","[[2,1,3],[0,0],[0]]","5","[[2,1,3],[0,0],[0]]","1","0","","","","","","5","","","","","","","","",""
"","","","","","poldrack-single-stim","42","138268","0.0-2.0-14.0","63ffb67634be3d959f3ff793","A3","batch1","","-1","tol_feedback","","","true","","1000","1000","500","","","","","","-1","none","true","4344","7201","","","","","","","","","",""
"","","","","","html-button-response","43","139567","0.0-2.0-15.0","63ffb67634be3d959f3ff793","A3","batch1","","1297.6000000238419","tol_trial_num","<div class = centerbox><p class = center-block-text>problem <strong>3</strong> out of 25 problems</p></div>","0","","","","","","","","","","","","","","","","","","","","","","","","",""
"","","","","","single-stim-button","44","143030","0.0-2.0-16.0-0.0","63ffb67634be3d959f3ff793","A3","batch1","","3463","tol_tohand","","","","tol_peg_1","3463","3463","0","[[2,0,0],[0,0],[1]]","1","[[1,2,0],[3,0],[0]]","2","0","","","","","","4","","","","","","","","",""
"","","","","","single-stim-button","45","143856","0.0-2.0-16.0-1.0","63ffb67634be3d959f3ff793","A3","batch1","","825","tol_toboard","","","","tol_peg_2","825","825","0","[[2,0,0],[3,0],[1]]","1","[[1,2,0],[3,0],[0]]","2","0","","","","","","4","","","","","","","","",""
"","","","","","single-stim-button","46","144782","0.0-2.0-16.1-0.1","63ffb67634be3d959f3ff793","A3","batch1","","926","tol_tohand","","","","tol_peg_1","926","926","0","[[0,0,0],[3,0],[1]]","2","[[1,2,0],[3,0],[0]]","2","0","","","","","","4","","","","","","","","",""
"","","","","","single-stim-button","47","145300","0.0-2.0-16.1-1.1","63ffb67634be3d959f3ff793","A3","batch1","","517","tol_toboard","","","","tol_peg_2","517","517","0","[[0,0,0],[3,2],[1]]","2","[[1,2,0],[3,0],[0]]","2","0","","","","","","4","","","","","","","","",""
"","","","","","single-stim-button","48","146416","0.0-2.0-16.2-0.2","63ffb67634be3d959f3ff793","A3","batch1","","1116","tol_tohand","","","","tol_peg_3","1116","1116","0","[[0,0,0],[3,2],[0]]","3","[[1,2,0],[3,0],[0]]","2","0","","","","","","4","","","","","","","","",""
"","","","","","single-stim-button","49","147304","0.0-2.0-16.2-1.2","63ffb67634be3d959f3ff793","A3","batch1","","888","tol_toboard","","","","tol_peg_1","888","888","0","[[1,0,0],[3,2],[0]]","3","[[1,2,0],[3,0],[0]]","2","0","","","","","","4","","","","","","","","",""
"","","","","","single-stim-button","50","147830","0.0-2.0-16.3-0.3","63ffb67634be3d959f3ff793","A3","batch1","","526","tol_tohand","","","","tol_peg_2","526","526","0","[[1,0,0],[3,0],[0]]","4","[[1,2,0],[3,0],[0]]","2","0","","","","","","4","","","","","","","","",""
"","","","","","single-stim-button","51","148380","0.0-2.0-16.3-1.3","63ffb67634be3d959f3ff793","A3","batch1","","550","tol_toboard","","","","tol_peg_1","550","550","0","[[1,2,0],[3,0],[0]]","4","[[1,2,0],[3,0],[0]]","2","0","","","","","","4","","","","","","","","",""
"","","","","","poldrack-single-stim","52","149383","0.0-2.0-17.0","63ffb67634be3d959f3ff793","A3","batch1","","-1","tol_feedback","","","true","","1000","1000","500","","","","","","-1","none","true","3463","6031","","","","","","","","","",""
"","","","","","html-button-response","53","150351","0.0-2.0-18.0","63ffb67634be3d959f3ff793","A3","batch1","","967","tol_trial_num","<div class = centerbox><p class = center-block-text>problem <strong>4</strong> out of 25 problems</p></div>","0","","","","","","","","","","","","","","","","","","","","","","","","",""
"","","","","","single-stim-button","54","154514","0.0-2.0-19.0-0.0","63ffb67634be3d959f3ff793","A3","batch1","","4163","tol_tohand","","","","tol_peg_2","4163","4163","0","[[3,0,0],[2,0],[0]]","1","[[3,0,0],[1,0],[2]]","3","0","","","","","","3","","","","","","","","",""
"","","","","","single-stim-button","55","155166","0.0-2.0-19.0-1.0","63ffb67634be3d959f3ff793","A3","batch1","","651","tol_toboard","","","","tol_peg_1","651","651","0","[[3,1,0],[2,0],[0]]","1","[[3,0,0],[1,0],[2]]","3","0","","","","","","3","","","","","","","","",""
"","","","","","single-stim-button","56","155794","0.0-2.0-19.1-0.1","63ffb67634be3d959f3ff793","A3","batch1","","627","tol_tohand","","","","tol_peg_2","627","627","0","[[3,1,0],[0,0],[0]]","2","[[3,0,0],[1,0],[2]]","3","0","","","","","","3","","","","","","","","",""
"","","","","","single-stim-button","57","156438","0.0-2.0-19.1-1.1","63ffb67634be3d959f3ff793","A3","batch1","","643","tol_toboard","","","","tol_peg_3","643","643","0","[[3,1,0],[0,0],[2]]","2","[[3,0,0],[1,0],[2]]","3","0","","","","","","3","","","","","","","","",""
"","","","","","single-stim-button","58","157004","0.0-2.0-19.2-0.2","63ffb67634be3d959f3ff793","A3","batch1","","565","tol_tohand","","","","tol_peg_1","565","565","0","[[3,0,0],[0,0],[2]]","3","[[3,0,0],[1,0],[2]]","3","0","","","","","","3","","","","","","","","",""
"","","","","","single-stim-button","59","157624","0.0-2.0-19.2-1.2","63ffb67634be3d959f3ff793","A3","batch1","","620","tol_toboard","","","","tol_peg_2","620","620","0","[[3,0,0],[1,0],[2]]","3","[[3,0,0],[1,0],[2]]","3","0","","","","","","3","","","","","","","","",""
"","","","","","poldrack-single-stim","60","158629","0.0-2.0-20.0","63ffb67634be3d959f3ff793","A3","batch1","","-1","tol_feedback","","","true","","1000","1000","500","","","","","","-1","none","true","4163","5355","","","","","","","","","",""
"","","","","","html-button-response","61","159760","0.0-2.0-21.0","63ffb67634be3d959f3ff793","A3","batch1","","1130","tol_trial_num","<div class = centerbox><p class = center-block-text>problem <strong>5</strong> out of 25 problems</p></div>","0","","","","","","","","","","","","","","","","","","","","","","","","",""
"","","","","","single-stim-button","62","166296","0.0-2.0-22.0-0.0","63ffb67634be3d959f3ff793","A3","batch1","","6536","tol_tohand","","","","tol_peg_3","6536","6536","0","[[1,0,0],[2,0],[0]]","1","[[0,0,0],[1,2],[3]]","4","0","","","","","","7","","","","","","","","",""
"","","","","","single-stim-button","63","167340","0.0-2.0-22.0-1.0","63ffb67634be3d959f3ff793","A3","batch1","","1044","tol_toboard","","","","tol_peg_1","1044","1044","0","[[1,3,0],[2,0],[0]]","1","[[0,0,0],[1,2],[3]]","4","0","","","","","","7","","","","","","","","",""
"","","","","","single-stim-button","64","176712","0.0-2.0-22.1-0.1","63ffb67634be3d959f3ff793","A3","batch1","","9371","tol_tohand","","","","tol_peg_1","9371","9371","0","[[1,0,0],[2,0],[0]]","2","[[0,0,0],[1,2],[3]]","4","0","","","","","","7","","","","","","","","",""
"","","","","","single-stim-button","65","177490","0.0-2.0-22.1-1.1","63ffb67634be3d959f3ff793","A3","batch1","","777","tol_toboard","","","","tol_peg_2","777","777","0","[[1,0,0],[2,3],[0]]","2","[[0,0,0],[1,2],[3]]","4","0","","","","","","7","","","","","","","","",""
"","","","","","single-stim-button","66","180444","0.0-2.0-22.2-0.2","63ffb67634be3d959f3ff793","A3","batch1","","2954","tol_tohand","","","","tol_peg_2","2954","2954","0","[[1,0,0],[2,0],[0]]","3","[[0,0,0],[1,2],[3]]","4","0","","","","","","7","","","","","","","","",""
"","","","","","single-stim-button","67","181566","0.0-2.0-22.2-1.2","63ffb67634be3d959f3ff793","A3","batch1","","1122","tol_toboard","","","","tol_peg_1","1122","1122","0","[[1,3,0],[2,0],[0]]","3","[[0,0,0],[1,2],[3]]","4","0","","","","","","7","","","","","","","","",""
"","","","","","single-stim-button","68","182194","0.0-2.0-22.3-0.3","63ffb67634be3d959f3ff793","A3","batch1","","627","tol_tohand","","","","tol_peg_1","627","627","0","[[1,0,0],[2,0],[0]]","4","[[0,0,0],[1,2],[3]]","4","0","","","","","","7","","","","","","","","",""
"","","","","","single-stim-button","69","182902","0.0-2.0-22.3-1.3","63ffb67634be3d959f3ff793","A3","batch1","","708","tol_toboard","","","","tol_peg_3","708","708","0","[[1,0,0],[2,0],[3]]","4","[[0,0,0],[1,2],[3]]","4","0","","","","","","7","","","","","","","","",""
"","","","","","single-stim-button","70","189549","0.0-2.0-22.4-0.4","63ffb67634be3d959f3ff793","A3","batch1","","6647","tol_tohand","","","","tol_peg_2","6647","6647","0","[[1,0,0],[0,0],[3]]","5","[[0,0,0],[1,2],[3]]","4","0","","","","","","7","","","","","","","","",""
"","","","","","single-stim-button","71","190262","0.0-2.0-22.4-1.4","63ffb67634be3d959f3ff793","A3","batch1","","713","tol_toboard","","","","tol_peg_1","713","713","0","[[1,2,0],[0,0],[3]]","5","[[0,0,0],[1,2],[3]]","4","0","","","","","","7","","","","","","","","",""
"","","","","","single-stim-button","72","192030","0.0-2.0-22.5-0.5","63ffb67634be3d959f3ff793","A3","batch1","","1768","tol_tohand","","","","tol_peg_3","1768","1768","0","[[1,2,0],[0,0],[0]]","6","[[0,0,0],[1,2],[3]]","4","0","","","","","","7","","","","","","","","",""
"","","","","","single-stim-button","73","193122","0.0-2.0-22.5-1.5","63ffb67634be3d959f3ff793","A3","batch1","","1092","tol_toboard","","","","tol_peg_1","1092","1092","0","[[1,2,3],[0,0],[0]]","6","[[0,0,0],[1,2],[3]]","4","0","","","","","","7","","","","","","","","",""
"","","","","","single-stim-button","74","194684","0.0-2.0-22.6-0.6","63ffb67634be3d959f3ff793","A3","batch1","","1562","tol_tohand","","","","tol_peg_1","1562","1562","0","[[1,2,0],[0,0],[0]]","7","[[0,0,0],[1,2],[3]]","4","0","","","","","","7","","","","","","","","",""
"","","","","","single-stim-button","75","195556","0.0-2.0-22.6-1.6","63ffb67634be3d959f3ff793","A3","batch1","","872","tol_toboard","","","","tol_peg_2","872","872","0","[[1,2,0],[3,0],[0]]","7","[[0,0,0],[1,2],[3]]","4","0","","","","","","7","","","","","","","","",""
"","","","","","single-stim-button","76","197788","0.0-2.0-22.7-0.7","63ffb67634be3d959f3ff793","A3","batch1","","2232","tol_tohand","","","","tol_peg_2","2232","2232","0","[[1,2,0],[0,0],[0]]","8","[[0,0,0],[1,2],[3]]","4","0","","","","","","7","","","","","","","","",""
"","","","","","single-stim-button","77","198298","0.0-2.0-22.7-1.7","63ffb67634be3d959f3ff793","A3","batch1","","510","tol_toboard","","","","tol_peg_1","510","510","0","[[1,2,3],[0,0],[0]]","8","[[0,0,0],[1,2],[3]]","4","0","","","","","","7","","","","","","","","",""
"","","","","","single-stim-button","78","199414","0.0-2.0-22.8-0.8","63ffb67634be3d959f3ff793","A3","batch1","","1116","tol_tohand","","","","tol_peg_1","1116","1116","0","[[1,2,0],[0,0],[0]]","9","[[0,0,0],[1,2],[3]]","4","0","","","","","","7","","","","","","","","",""
"","","","","","single-stim-button","79","200222","0.0-2.0-22.8-1.8","63ffb67634be3d959f3ff793","A3","batch1","","808","tol_toboard","","","","tol_peg_3","808","808","0","[[1,2,0],[0,0],[3]]","9","[[0,0,0],[1,2],[3]]","4","0","","","","","","7","","","","","","","","",""
"","","","","","single-stim-button","80","202020","0.0-2.0-22.9-0.9","63ffb67634be3d959f3ff793","A3","batch1","","1798","tol_tohand","","","","tol_peg_1","1798","1798","0","[[1,0,0],[0,0],[3]]","10","[[0,0,0],[1,2],[3]]","4","0","","","","","","7","","","","","","","","",""
"","","","","","single-stim-button","81","202744","0.0-2.0-22.9-1.9","63ffb67634be3d959f3ff793","A3","batch1","","724","tol_toboard","","","","tol_peg_2","724","724","0","[[1,0,0],[2,0],[3]]","10","[[0,0,0],[1,2],[3]]","4","0","","","","","","7","","","","","","","","",""
"","","","","","single-stim-button","82","204518","0.0-2.0-22.10-0.10","63ffb67634be3d959f3ff793","A3","batch1","","1774","tol_tohand","","","","tol_peg_1","1774","1774","0","[[0,0,0],[2,0],[3]]","11","[[0,0,0],[1,2],[3]]","4","0","","","","","","7","","","","","","","","",""
"","","","","","single-stim-button","83","205036","0.0-2.0-22.10-1.10","63ffb67634be3d959f3ff793","A3","batch1","","518","tol_toboard","","","","tol_peg_2","518","518","0","[[0,0,0],[2,1],[3]]","11","[[0,0,0],[1,2],[3]]","4","0","","","","","","7","","","","","","","","",""
"","","","","","single-stim-button","84","205619","0.0-2.0-22.11-0.11","63ffb67634be3d959f3ff793","A3","batch1","","582","tol_tohand","","","","tol_peg_3","582","582","0","[[0,0,0],[2,1],[0]]","12","[[0,0,0],[1,2],[3]]","4","0","","","","","","7","","","","","","","","",""
"","","","","","single-stim-button","85","206442","0.0-2.0-22.11-1.11","63ffb67634be3d959f3ff793","A3","batch1","","823","tol_toboard","","","","tol_peg_1","823","823","0","[[3,0,0],[2,1],[0]]","12","[[0,0,0],[1,2],[3]]","4","0","","","","","","7","","","","","","","","",""
"","","","","","single-stim-button","86","206938","0.0-2.0-22.12-0.12","63ffb67634be3d959f3ff793","A3","batch1","","495","tol_tohand","","","","tol_peg_2","495","495","0","[[3,0,0],[2,0],[0]]","13","[[0,0,0],[1,2],[3]]","4","0","","","","","","7","","","","","","","","",""
"","","","","","single-stim-button","87","207684","0.0-2.0-22.12-1.12","63ffb67634be3d959f3ff793","A3","batch1","","746","tol_toboard","","","","tol_peg_1","746","746","0","[[3,1,0],[2,0],[0]]","13","[[0,0,0],[1,2],[3]]","4","0","","","","","","7","","","","","","","","",""
"","","","","","single-stim-button","88","208830","0.0-2.0-22.13-0.13","63ffb67634be3d959f3ff793","A3","batch1","","1146","tol_tohand","","","","tol_peg_2","1146","1146","0","[[3,1,0],[0,0],[0]]","14","[[0,0,0],[1,2],[3]]","4","0","","","","","","7","","","","","","","","",""
"","","","","","single-stim-button","89","209670","0.0-2.0-22.13-1.13","63ffb67634be3d959f3ff793","A3","batch1","","840","tol_toboard","","","","tol_peg_3","840","840","0","[[3,1,0],[0,0],[2]]","14","[[0,0,0],[1,2],[3]]","4","0","","","","","","7","","","","","","","","",""
"","","","","","single-stim-button","90","210213","0.0-2.0-22.14-0.14","63ffb67634be3d959f3ff793","A3","batch1","","543","tol_tohand","","","","tol_peg_1","543","543","0","[[3,0,0],[0,0],[2]]","15","[[0,0,0],[1,2],[3]]","4","0","","","","","","7","","","","","","","","",""
"","","","","","single-stim-button","91","210818","0.0-2.0-22.14-1.14","63ffb67634be3d959f3ff793","A3","batch1","","605","tol_toboard","","","","tol_peg_2","605","605","0","[[3,0,0],[1,0],[2]]","15","[[0,0,0],[1,2],[3]]","4","0","","","","","","7","","","","","","","","",""
"","","","","","single-stim-button","92","211352","0.0-2.0-22.15-0.15","63ffb67634be3d959f3ff793","A3","batch1","","534","tol_tohand","","","","tol_peg_3","534","534","0","[[3,0,0],[1,0],[0]]","16","[[0,0,0],[1,2],[3]]","4","0","","","","","","7","","","","","","","","",""
"","","","","","single-stim-button","93","212058","0.0-2.0-22.15-1.15","63ffb67634be3d959f3ff793","A3","batch1","","706","tol_toboard","","","","tol_peg_2","706","706","0","[[3,0,0],[1,2],[0]]","16","[[0,0,0],[1,2],[3]]","4","0","","","","","","7","","","","","","","","",""
"","","","","","single-stim-button","94","212804","0.0-2.0-22.16-0.16","63ffb67634be3d959f3ff793","A3","batch1","","746","tol_tohand","","","","tol_peg_1","746","746","0","[[0,0,0],[1,2],[0]]","17","[[0,0,0],[1,2],[3]]","4","0","","","","","","7","","","","","","","","",""
"","","","","","single-stim-button","95","213472","0.0-2.0-22.16-1.16","63ffb67634be3d959f3ff793","A3","batch1","","668","tol_toboard","","","","tol_peg_3","668","668","0","[[0,0,0],[1,2],[3]]","17","[[0,0,0],[1,2],[3]]","4","0","","","","","","7","","","","","","","","",""
"","","","","","poldrack-single-stim","96","214475","0.0-2.0-23.0","63ffb67634be3d959f3ff793","A3","batch1","","-1","tol_feedback","","","true","","1000","1000","500","","","","","","-1","none","true","6536","40431","","","","","","","","","",""
"","","","","","html-button-response","97","215506","0.0-2.0-24.0","63ffb67634be3d959f3ff793","A3","batch1","","1030.3999999761581","tol_trial_num","<div class = centerbox><p class = center-block-text>problem <strong>6</strong> out of 25 problems</p></div>","0","","","","","","","","","","","","","","","","","","","","","","","","",""
"","","","","","single-stim-button","98","220674","0.0-2.0-25.0-0.0","63ffb67634be3d959f3ff793","A3","batch1","","5167","tol_tohand","","","","tol_peg_3","5167","5167","0","[[0,0,0],[1,2],[0]]","1","[[1,0,0],[2,3],[0]]","5","0","","","","","","6","","","","","","","","",""
"","","","","","single-stim-button","99","221516","0.0-2.0-25.0-1.0","63ffb67634be3d959f3ff793","A3","batch1","","842","tol_toboard","","","","tol_peg_1","842","842","0","[[3,0,0],[1,2],[0]]","1","[[1,0,0],[2,3],[0]]","5","0","","","","","","6","","","","","","","","",""
"","","","","","single-stim-button","100","222222","0.0-2.0-25.1-0.1","63ffb67634be3d959f3ff793","A3","batch1","","706","tol_tohand","","","","tol_peg_2","706","706","0","[[3,0,0],[1,0],[0]]","2","[[1,0,0],[2,3],[0]]","5","0","","","","","","6","","","","","","","","",""
"","","","","","single-stim-button","101","223550","0.0-2.0-25.1-1.1","63ffb67634be3d959f3ff793","A3","batch1","","1328","tol_toboard","","","","tol_peg_1","1328","1328","0","[[3,2,0],[1,0],[0]]","2","[[1,0,0],[2,3],[0]]","5","0","","","","","","6","","","","","","","","",""
"","","","","","single-stim-button","102","225120","0.0-2.0-25.2-0.2","63ffb67634be3d959f3ff793","A3","batch1","","1570","tol_tohand","","","","tol_peg_2","1570","1570","0","[[3,2,0],[0,0],[0]]","3","[[1,0,0],[2,3],[0]]","5","0","","","","","","6","","","","","","","","",""
"","","","","","single-stim-button","103","226032","0.0-2.0-25.2-1.2","63ffb67634be3d959f3ff793","A3","batch1","","912","tol_toboard","","","","tol_peg_3","912","912","0","[[3,2,0],[0,0],[1]]","3","[[1,0,0],[2,3],[0]]","5","0","","","","","","6","","","","","","","","",""
"","","","","","single-stim-button","104","226982","0.0-2.0-25.3-0.3","63ffb67634be3d959f3ff793","A3","batch1","","949","tol_tohand","","","","tol_peg_1","949","949","0","[[3,0,0],[0,0],[1]]","4","[[1,0,0],[2,3],[0]]","5","0","","","","","","6","","","","","","","","",""
"","","","","","single-stim-button","105","227563","0.0-2.0-25.3-1.3","63ffb67634be3d959f3ff793","A3","batch1","","581","tol_toboard","","","","tol_peg_2","581","581","0","[[3,0,0],[2,0],[1]]","4","[[1,0,0],[2,3],[0]]","5","0","","","","","","6","","","","","","","","",""
"","","","","","single-stim-button","106","228176","0.0-2.0-25.4-0.4","63ffb67634be3d959f3ff793","A3","batch1","","613","tol_tohand","","","","tol_peg_1","613","613","0","[[0,0,0],[2,0],[1]]","5","[[1,0,0],[2,3],[0]]","5","0","","","","","","6","","","","","","","","",""
"","","","","","single-stim-button","107","228788","0.0-2.0-25.4-1.4","63ffb67634be3d959f3ff793","A3","batch1","","611","tol_toboard","","","","tol_peg_2","611","611","0","[[0,0,0],[2,3],[1]]","5","[[1,0,0],[2,3],[0]]","5","0","","","","","","6","","","","","","","","",""
"","","","","","single-stim-button","108","229408","0.0-2.0-25.5-0.5","63ffb67634be3d959f3ff793","A3","batch1","","620","tol_tohand","","","","tol_peg_3","620","620","0","[[0,0,0],[2,3],[0]]","6","[[1,0,0],[2,3],[0]]","5","0","","","","","","6","","","","","","","","",""
"","","","","","single-stim-button","109","230296","0.0-2.0-25.5-1.5","63ffb67634be3d959f3ff793","A3","batch1","","888","tol_toboard","","","","tol_peg_1","888","888","0","[[1,0,0],[2,3],[0]]","6","[[1,0,0],[2,3],[0]]","5","0","","","","","","6","","","","","","","","",""
"","","","","","poldrack-single-stim","110","231297","0.0-2.0-26.0","63ffb67634be3d959f3ff793","A3","batch1","","-1","tol_feedback","","","true","","1000","1000","500","","","","","","-1","none","true","5167","9625","","","","","","","","","",""
"","","","","","html-button-response","111","232738","0.0-2.0-27.0","63ffb67634be3d959f3ff793","A3","batch1","","1439.7999999523163","tol_trial_num","<div class = centerbox><p class = center-block-text>problem <strong>7</strong> out of 25 problems</p></div>","0","","","","","","","","","","","","","","","","","","","","","","","","",""
"","","","","","single-stim-button","112","237522","0.0-2.0-28.0-0.0","63ffb67634be3d959f3ff793","A3","batch1","","4784","tol_tohand","","","","tol_peg_3","4784","4784","0","[[2,1,0],[0,0],[0]]","1","[[1,2,0],[3,0],[0]]","6","0","","","","","","5","","","","","","","","",""
"","","","","","single-stim-button","113","238472","0.0-2.0-28.0-1.0","63ffb67634be3d959f3ff793","A3","batch1","","950","tol_toboard","","","","tol_peg_2","950","950","0","[[2,1,0],[3,0],[0]]","1","[[1,2,0],[3,0],[0]]","6","0","","","","","","5","","","","","","","","",""
"","","","","","single-stim-button","114","239612","0.0-2.0-28.1-0.1","63ffb67634be3d959f3ff793","A3","batch1","","1140","tol_tohand","","","","tol_peg_1","1140","1140","0","[[2,0,0],[3,0],[0]]","2","[[1,2,0],[3,0],[0]]","6","0","","","","","","5","","","","","","","","",""
"","","","","","single-stim-button","115","241176","0.0-2.0-28.1-1.1","63ffb67634be3d959f3ff793","A3","batch1","","1564","tol_toboard","","","","tol_peg_3","1564","1564","0","[[2,0,0],[3,0],[1]]","2","[[1,2,0],[3,0],[0]]","6","0","","","","","","5","","","","","","","","",""
"","","","","","single-stim-button","116","242156","0.0-2.0-28.2-0.2","63ffb67634be3d959f3ff793","A3","batch1","","980","tol_tohand","","","","tol_peg_1","980","980","0","[[0,0,0],[3,0],[1]]","3","[[1,2,0],[3,0],[0]]","6","0","","","","","","5","","","","","","","","",""
"","","","","","single-stim-button","117","242746","0.0-2.0-28.2-1.2","63ffb67634be3d959f3ff793","A3","batch1","","590","tol_toboard","","","","tol_peg_2","590","590","0","[[0,0,0],[3,2],[1]]","3","[[1,2,0],[3,0],[0]]","6","0","","","","","","5","","","","","","","","",""
"","","","","","single-stim-button","118","243822","0.0-2.0-28.3-0.3","63ffb67634be3d959f3ff793","A3","batch1","","1076","tol_tohand","","","","tol_peg_3","1076","1076","0","[[0,0,0],[3,2],[0]]","4","[[1,2,0],[3,0],[0]]","6","0","","","","","","5","","","","","","","","",""
"","","","","","single-stim-button","119","244686","0.0-2.0-28.3-1.3","63ffb67634be3d959f3ff793","A3","batch1","","864","tol_toboard","","","","tol_peg_1","864","864","0","[[1,0,0],[3,2],[0]]","4","[[1,2,0],[3,0],[0]]","6","0","","","","","","5","","","","","","","","",""
"","","","","","single-stim-button","120","245314","0.0-2.0-28.4-0.4","63ffb67634be3d959f3ff793","A3","batch1","","628","tol_tohand","","","","tol_peg_2","628","628","0","[[1,0,0],[3,0],[0]]","5","[[1,2,0],[3,0],[0]]","6","0","","","","","","5","","","","","","","","",""
"","","","","","single-stim-button","121","246124","0.0-2.0-28.4-1.4","63ffb67634be3d959f3ff793","A3","batch1","","810","tol_toboard","","","","tol_peg_1","810","810","0","[[1,2,0],[3,0],[0]]","5","[[1,2,0],[3,0],[0]]","6","0","","","","","","5","","","","","","","","",""
"","","","","","poldrack-single-stim","122","247129","0.0-2.0-29.0","63ffb67634be3d959f3ff793","A3","batch1","","-1","tol_feedback","","","true","","1000","1000","500","","","","","","-1","none","true","4784","8608","","","","","","","","","",""
"","","","","","html-button-response","123","248236","0.0-2.0-30.0","63ffb67634be3d959f3ff793","A3","batch1","","1106.3000000715256","tol_trial_num","<div class = centerbox><p class = center-block-text>problem <strong>8</strong> out of 25 problems</p></div>","0","","","","","","","","","","","","","","","","","","","","","","","","",""
"","","","","","single-stim-button","124","253130","0.0-2.0-31.0-0.0","63ffb67634be3d959f3ff793","A3","batch1","","4893","tol_tohand","","","","tol_peg_3","4893","4893","0","[[0,0,0],[2,3],[0]]","1","[[1,2,0],[3,0],[0]]","7","0","","","","","","4","","","","","","","","",""
"","","","","","single-stim-button","125","253914","0.0-2.0-31.0-1.0","63ffb67634be3d959f3ff793","A3","batch1","","784","tol_toboard","","","","tol_peg_1","784","784","0","[[1,0,0],[2,3],[0]]","1","[[1,2,0],[3,0],[0]]","7","0","","","","","","4","","","","","","","","",""
"","","","","","single-stim-button","126","254456","0.0-2.0-31.1-0.1","63ffb67634be3d959f3ff793","A3","batch1","","542","tol_tohand","","","","tol_peg_2","542","542","0","[[1,0,0],[2,0],[0]]","2","[[1,2,0],[3,0],[0]]","7","0","","","","","","4","","","","","","","","",""
"","","","","","single-stim-button","127","255320","0.0-2.0-31.1-1.1","63ffb67634be3d959f3ff793","A3","batch1","","864","tol_toboard","","","","tol_peg_3","864","864","0","[[1,0,0],[2,0],[3]]","2","[[1,2,0],[3,0],[0]]","7","0","","","","","","4","","","","","","","","",""
"","","","","","single-stim-button","128","256139","0.0-2.0-31.2-0.2","63ffb67634be3d959f3ff793","A3","batch1","","819","tol_tohand","","","","tol_peg_2","819","819","0","[[1,0,0],[0,0],[3]]","3","[[1,2,0],[3,0],[0]]","7","0","","","","","","4","","","","","","","","",""
"","","","","","single-stim-button","129","256875","0.0-2.0-31.2-1.2","63ffb67634be3d959f3ff793","A3","batch1","","736","tol_toboard","","","","tol_peg_1","736","736","0","[[1,2,0],[0,0],[3]]","3","[[1,2,0],[3,0],[0]]","7","0","","","","","","4","","","","","","","","",""
"","","","","","single-stim-button","130","257874","0.0-2.0-31.3-0.3","63ffb67634be3d959f3ff793","A3","batch1","","998","tol_tohand","","","","tol_peg_3","998","998","0","[[1,2,0],[0,0],[0]]","4","[[1,2,0],[3,0],[0]]","7","0","","","","","","4","","","","","","","","",""
"","","","","","single-stim-button","131","258754","0.0-2.0-31.3-1.3","63ffb67634be3d959f3ff793","A3","batch1","","879","tol_toboard","","","","tol_peg_2","879","879","0","[[1,2,0],[3,0],[0]]","4","[[1,2,0],[3,0],[0]]","7","0","","","","","","4","","","","","","","","",""
"","","","","","poldrack-single-stim","132","259755","0.0-2.0-32.0","63ffb67634be3d959f3ff793","A3","batch1","","-1","tol_feedback","","","true","","1000","1000","500","","","","","","-1","none","true","4893","7252","","","","","","","","","",""
"","","","","","html-button-response","133","260646","0.0-2.0-33.0","63ffb67634be3d959f3ff793","A3","batch1","","890.2000000476837","tol_trial_num","<div class = centerbox><p class = center-block-text>problem <strong>9</strong> out of 25 problems</p></div>","0","","","","","","","","","","","","","","","","","","","","","","","","",""
"","","","","","single-stim-button","134","267630","0.0-2.0-34.0-0.0","63ffb67634be3d959f3ff793","A3","batch1","","6984","tol_tohand","","","","tol_peg_3","6984","6984","0","[[3,2,0],[0,0],[0]]","1","[[2,1,0],[3,0],[0]]","8","0","","","","","","6","","","","","","","","",""
"","","","","","single-stim-button","135","268345","0.0-2.0-34.0-1.0","63ffb67634be3d959f3ff793","A3","batch1","","714","tol_toboard","","","","tol_peg_2","714","714","0","[[3,2,0],[1,0],[0]]","1","[[2,1,0],[3,0],[0]]","8","0","","","","","","6","","","","","","","","",""
"","","","","","single-stim-button","136","269224","0.0-2.0-34.1-0.1","63ffb67634be3d959f3ff793","A3","batch1","","878","tol_tohand","","","","tol_peg_1","878","878","0","[[3,0,0],[1,0],[0]]","2","[[2,1,0],[3,0],[0]]","8","0","","","","","","6","","","","","","","","",""
"","","","","","single-stim-button","137","270448","0.0-2.0-34.1-1.1","63ffb67634be3d959f3ff793","A3","batch1","","1224","tol_toboard","","","","tol_peg_3","1224","1224","0","[[3,0,0],[1,0],[2]]","2","[[2,1,0],[3,0],[0]]","8","0","","","","","","6","","","","","","","","",""
"","","","","","single-stim-button","138","271784","0.0-2.0-34.2-0.2","63ffb67634be3d959f3ff793","A3","batch1","","1336","tol_tohand","","","","tol_peg_1","1336","1336","0","[[0,0,0],[1,0],[2]]","3","[[2,1,0],[3,0],[0]]","8","0","","","","","","6","","","","","","","","",""
"","","","","","single-stim-button","139","272372","0.0-2.0-34.2-1.2","63ffb67634be3d959f3ff793","A3","batch1","","587","tol_toboard","","","","tol_peg_2","587","587","0","[[0,0,0],[1,3],[2]]","3","[[2,1,0],[3,0],[0]]","8","0","","","","","","6","","","","","","","","",""
"","","","","","single-stim-button","140","273292","0.0-2.0-34.3-0.3","63ffb67634be3d959f3ff793","A3","batch1","","919","tol_tohand","","","","tol_peg_3","919","919","0","[[0,0,0],[1,3],[0]]","4","[[2,1,0],[3,0],[0]]","8","0","","","","","","6","","","","","","","","",""
"","","","","","single-stim-button","141","274234","0.0-2.0-34.3-1.3","63ffb67634be3d959f3ff793","A3","batch1","","942","tol_toboard","","","","tol_peg_1","942","942","0","[[2,0,0],[1,3],[0]]","4","[[2,1,0],[3,0],[0]]","8","0","","","","","","6","","","","","","","","",""
"","","","","","single-stim-button","142","275270","0.0-2.0-34.4-0.4","63ffb67634be3d959f3ff793","A3","batch1","","1036","tol_tohand","","","","tol_peg_2","1036","1036","0","[[2,0,0],[1,0],[0]]","5","[[2,1,0],[3,0],[0]]","8","0","","","","","","6","","","","","","","","",""
"","","","","","single-stim-button","143","275994","0.0-2.0-34.4-1.4","63ffb67634be3d959f3ff793","A3","batch1","","723","tol_toboard","","","","tol_peg_3","723","723","0","[[2,0,0],[1,0],[3]]","5","[[2,1,0],[3,0],[0]]","8","0","","","","","","6","","","","","","","","",""
"","","","","","single-stim-button","144","276598","0.0-2.0-34.5-0.5","63ffb67634be3d959f3ff793","A3","batch1","","604","tol_tohand","","","","tol_peg_2","604","604","0","[[2,0,0],[0,0],[3]]","6","[[2,1,0],[3,0],[0]]","8","0","","","","","","6","","","","","","","","",""
"","","","","","single-stim-button","145","277297","0.0-2.0-34.5-1.5","63ffb67634be3d959f3ff793","A3","batch1","","699","tol_toboard","","","","tol_peg_1","699","699","0","[[2,1,0],[0,0],[3]]","6","[[2,1,0],[3,0],[0]]","8","0","","","","","","6","","","","","","","","",""
"","","","","","single-stim-button","146","278089","0.0-2.0-34.6-0.6","63ffb67634be3d959f3ff793","A3","batch1","","791","tol_tohand","","","","tol_peg_3","791","791","0","[[2,1,0],[0,0],[0]]","7","[[2,1,0],[3,0],[0]]","8","0","","","","","","6","","","","","","","","",""
"","","","","","single-stim-button","147","280415","0.0-2.0-34.6-1.6","63ffb67634be3d959f3ff793","A3","batch1","","2325","tol_toboard","","","","tol_peg_2","2325","2325","0","[[2,1,0],[3,0],[0]]","7","[[2,1,0],[3,0],[0]]","8","0","","","","","","6","","","","","","","","",""
"","","","","","poldrack-single-stim","148","281416","0.0-2.0-35.0","63ffb67634be3d959f3ff793","A3","batch1","","-1","tol_feedback","","","true","","1000","1000","500","","","","","","-1","none","true","6984","12548","","","","","","","","","",""
"","","","","","html-button-response","149","282440","0.0-2.0-36.0","63ffb67634be3d959f3ff793","A3","batch1","","1022.2999999523163","tol_trial_num","<div class = centerbox><p class = center-block-text>problem <strong>10</strong> out of 25 problems</p></div>","0","","","","","","","","","","","","","","","","","","","","","","","","",""
"","","","","","single-stim-button","150","288968","0.0-2.0-37.0-0.0","63ffb67634be3d959f3ff793","A3","batch1","","6528","tol_tohand","","","","tol_peg_2","6528","6528","0","[[3,0,0],[0,0],[2]]","1","[[3,0,0],[2,1],[0]]","9","0","","","","","","3","","","","","","","","",""
"","","","","","single-stim-button","151","289644","0.0-2.0-37.0-1.0","63ffb67634be3d959f3ff793","A3","batch1","","675","tol_toboard","","","","tol_peg_1","675","675","0","[[3,1,0],[0,0],[2]]","1","[[3,0,0],[2,1],[0]]","9","0","","","","","","3","","","","","","","","",""
"","","","","","single-stim-button","152","290451","0.0-2.0-37.1-0.1","63ffb67634be3d959f3ff793","A3","batch1","","807","tol_tohand","","","","tol_peg_3","807","807","0","[[3,1,0],[0,0],[0]]","2","[[3,0,0],[2,1],[0]]","9","0","","","","","","3","","","","","","","","",""
"","","","","","single-stim-button","153","291222","0.0-2.0-37.1-1.1","63ffb67634be3d959f3ff793","A3","batch1","","771","tol_toboard","","","","tol_peg_2","771","771","0","[[3,1,0],[2,0],[0]]","2","[[3,0,0],[2,1],[0]]","9","0","","","","","","3","","","","","","","","",""
"","","","","","single-stim-button","154","291866","0.0-2.0-37.2-0.2","63ffb67634be3d959f3ff793","A3","batch1","","644","tol_tohand","","","","tol_peg_1","644","644","0","[[3,0,0],[2,0],[0]]","3","[[3,0,0],[2,1],[0]]","9","0","","","","","","3","","","","","","","","",""
"","","","","","single-stim-button","155","292557","0.0-2.0-37.2-1.2","63ffb67634be3d959f3ff793","A3","batch1","","691","tol_toboard","","","","tol_peg_2","691","691","0","[[3,0,0],[2,1],[0]]","3","[[3,0,0],[2,1],[0]]","9","0","","","","","","3","","","","","","","","",""
"","","","","","poldrack-single-stim","156","293559","0.0-2.0-38.0","63ffb67634be3d959f3ff793","A3","batch1","","-1","tol_feedback","","","true","","1000","1000","500","","","","","","-1","none","true","6528","7979","","","","","","","","","",""
"","","","","","html-button-response","157","294426","0.0-2.0-39.0","63ffb67634be3d959f3ff793","A3","batch1","","866.2999999523163","tol_trial_num","<div class = centerbox><p class = center-block-text>problem <strong>11</strong> out of 25 problems</p></div>","0","","","","","","","","","","","","","","","","","","","","","","","","",""
"","","","","","single-stim-button","158","316632","0.0-2.0-40.0-0.0","63ffb67634be3d959f3ff793","A3","batch1","","22206","tol_tohand","","","","tol_peg_1","22206","22206","0","[[1,0,0],[3,0],[0]]","1","[[2,0,0],[1,3],[0]]","10","0","","","","","","6","","","","","","","","",""
"","","","","","single-stim-button","159","318170","0.0-2.0-40.0-1.0","63ffb67634be3d959f3ff793","A3","batch1","","1537","tol_toboard","","","","tol_peg_3","1537","1537","0","[[1,0,0],[3,0],[2]]","1","[[2,0,0],[1,3],[0]]","10","0","","","","","","6","","","","","","","","",""
"","","","","","single-stim-button","160","319905","0.0-2.0-40.1-0.1","63ffb67634be3d959f3ff793","A3","batch1","","1735","tol_tohand","","","","tol_peg_1","1735","1735","0","[[0,0,0],[3,0],[2]]","2","[[2,0,0],[1,3],[0]]","10","0","","","","","","6","","","","","","","","",""
"","","","","","single-stim-button","161","320527","0.0-2.0-40.1-1.1","63ffb67634be3d959f3ff793","A3","batch1","","621","tol_toboard","","","","tol_peg_2","621","621","0","[[0,0,0],[3,1],[2]]","2","[[2,0,0],[1,3],[0]]","10","0","","","","","","6","","","","","","","","",""
"","","","","","single-stim-button","162","321241","0.0-2.0-40.2-0.2","63ffb67634be3d959f3ff793","A3","batch1","","713","tol_tohand","","","","tol_peg_3","713","713","0","[[0,0,0],[3,1],[0]]","3","[[2,0,0],[1,3],[0]]","10","0","","","","","","6","","","","","","","","",""
"","","","","","single-stim-button","163","322387","0.0-2.0-40.2-1.2","63ffb67634be3d959f3ff793","A3","batch1","","1146","tol_toboard","","","","tol_peg_1","1146","1146","0","[[2,0,0],[3,1],[0]]","3","[[2,0,0],[1,3],[0]]","10","0","","","","","","6","","","","","","","","",""
"","","","","","single-stim-button","164","323001","0.0-2.0-40.3-0.3","63ffb67634be3d959f3ff793","A3","batch1","","613","tol_tohand","","","","tol_peg_2","613","613","0","[[2,0,0],[3,0],[0]]","4","[[2,0,0],[1,3],[0]]","10","0","","","","","","6","","","","","","","","",""
"","","","","","single-stim-button","165","323466","0.0-2.0-40.3-1.3","63ffb67634be3d959f3ff793","A3","batch1","","463","tol_toboard","","","","tol_peg_1","463","463","0","[[2,1,0],[3,0],[0]]","4","[[2,0,0],[1,3],[0]]","10","0","","","","","","6","","","","","","","","",""
"","","","","","single-stim-button","166","324227","0.0-2.0-40.4-0.4","63ffb67634be3d959f3ff793","A3","batch1","","761","tol_tohand","","","","tol_peg_2","761","761","0","[[2,1,0],[0,0],[0]]","5","[[2,0,0],[1,3],[0]]","10","0","","","","","","6","","","","","","","","",""
"","","","","","single-stim-button","167","324926","0.0-2.0-40.4-1.4","63ffb67634be3d959f3ff793","A3","batch1","","697","tol_toboard","","","","tol_peg_3","697","697","0","[[2,1,0],[0,0],[3]]","5","[[2,0,0],[1,3],[0]]","10","0","","","","","","6","","","","","","","","",""
"","","","","","single-stim-button","168","325689","0.0-2.0-40.5-0.5","63ffb67634be3d959f3ff793","A3","batch1","","762","tol_tohand","","","","tol_peg_1","762","762","0","[[2,0,0],[0,0],[3]]","6","[[2,0,0],[1,3],[0]]","10","0","","","","","","6","","","","","","","","",""
"","","","","","single-stim-button","169","326299","0.0-2.0-40.5-1.5","63ffb67634be3d959f3ff793","A3","batch1","","610","tol_toboard","","","","tol_peg_2","610","610","0","[[2,0,0],[1,0],[3]]","6","[[2,0,0],[1,3],[0]]","10","0","","","","","","6","","","","","","","","",""
"","","","","","single-stim-button","170","327015","0.0-2.0-40.6-0.6","63ffb67634be3d959f3ff793","A3","batch1","","715","tol_tohand","","","","tol_peg_3","715","715","0","[[2,0,0],[1,0],[0]]","7","[[2,0,0],[1,3],[0]]","10","0","","","","","","6","","","","","","","","",""
"","","","","","single-stim-button","171","327722","0.0-2.0-40.6-1.6","63ffb67634be3d959f3ff793","A3","batch1","","706","tol_toboard","","","","tol_peg_2","706","706","0","[[2,0,0],[1,3],[0]]","7","[[2,0,0],[1,3],[0]]","10","0","","","","","","6","","","","","","","","",""
"","","","","","poldrack-single-stim","172","328735","0.0-2.0-41.0","63ffb67634be3d959f3ff793","A3","batch1","","-1","tol_feedback","","","true","","1000","1000","500","","","","","","-1","none","true","22206","27505","","","","","","","","","",""
"","","","","","html-button-response","173","329975","0.0-2.0-42.0","63ffb67634be3d959f3ff793","A3","batch1","","1239.6000000238419","tol_trial_num","<div class = centerbox><p class = center-block-text>problem <strong>12</strong> out of 25 problems</p></div>","0","","","","","","","","","","","","","","","","","","","","","","","","",""
"","","","","","single-stim-button","174","338279","0.0-2.0-43.0-0.0","63ffb67634be3d959f3ff793","A3","batch1","","8303","tol_tohand","","","","tol_peg_1","8303","8303","0","[[1,0,0],[3,0],[0]]","1","[[2,3,0],[0,0],[1]]","11","0","","","","","","4","","","","","","","","",""
"","","","","","single-stim-button","175","339009","0.0-2.0-43.0-1.0","63ffb67634be3d959f3ff793","A3","batch1","","729","tol_toboard","","","","tol_peg_2","729","729","0","[[1,0,0],[3,2],[0]]","1","[[2,3,0],[0,0],[1]]","11","0","","","","","","4","","","","","","","","",""
"","","","","","single-stim-button","176","347118","0.0-2.0-43.1-0.1","63ffb67634be3d959f3ff793","A3","batch1","","8109","tol_tohand","","","","tol_peg_2","8109","8109","0","[[1,0,0],[3,0],[0]]","2","[[2,3,0],[0,0],[1]]","11","0","","","","","","4","","","","","","","","",""
"","","","","","single-stim-button","177","347855","0.0-2.0-43.1-1.1","63ffb67634be3d959f3ff793","A3","batch1","","737","tol_toboard","","","","tol_peg_3","737","737","0","[[1,0,0],[3,0],[2]]","2","[[2,3,0],[0,0],[1]]","11","0","","","","","","4","","","","","","","","",""
"","","","","","single-stim-button","178","348955","0.0-2.0-43.2-0.2","63ffb67634be3d959f3ff793","A3","batch1","","1099","tol_tohand","","","","tol_peg_1","1099","1099","0","[[0,0,0],[3,0],[2]]","3","[[2,3,0],[0,0],[1]]","11","0","","","","","","4","","","","","","","","",""
"","","","","","single-stim-button","179","349741","0.0-2.0-43.2-1.2","63ffb67634be3d959f3ff793","A3","batch1","","785","tol_toboard","","","","tol_peg_2","785","785","0","[[0,0,0],[3,1],[2]]","3","[[2,3,0],[0,0],[1]]","11","0","","","","","","4","","","","","","","","",""
"","","","","","single-stim-button","180","351075","0.0-2.0-43.3-0.3","63ffb67634be3d959f3ff793","A3","batch1","","1333","tol_tohand","","","","tol_peg_3","1333","1333","0","[[0,0,0],[3,1],[0]]","4","[[2,3,0],[0,0],[1]]","11","0","","","","","","4","","","","","","","","",""
"","","","","","single-stim-button","181","351910","0.0-2.0-43.3-1.3","63ffb67634be3d959f3ff793","A3","batch1","","835","tol_toboard","","","","tol_peg_1","835","835","0","[[2,0,0],[3,1],[0]]","4","[[2,3,0],[0,0],[1]]","11","0","","","","","","4","","","","","","","","",""
"","","","","","single-stim-button","182","352412","0.0-2.0-43.4-0.4","63ffb67634be3d959f3ff793","A3","batch1","","502","tol_tohand","","","","tol_peg_2","502","502","0","[[2,0,0],[3,0],[0]]","5","[[2,3,0],[0,0],[1]]","11","0","","","","","","4","","","","","","","","",""
"","","","","","single-stim-button","183","353213","0.0-2.0-43.4-1.4","63ffb67634be3d959f3ff793","A3","batch1","","801","tol_toboard","","","","tol_peg_3","801","801","0","[[2,0,0],[3,0],[1]]","5","[[2,3,0],[0,0],[1]]","11","0","","","","","","4","","","","","","","","",""
"","","","","","single-stim-button","184","353935","0.0-2.0-43.5-0.5","63ffb67634be3d959f3ff793","A3","batch1","","721","tol_tohand","","","","tol_peg_2","721","721","0","[[2,0,0],[0,0],[1]]","6","[[2,3,0],[0,0],[1]]","11","0","","","","","","4","","","","","","","","",""
"","","","","","single-stim-button","185","354650","0.0-2.0-43.5-1.5","63ffb67634be3d959f3ff793","A3","batch1","","714","tol_toboard","","","","tol_peg_1","714","714","0","[[2,3,0],[0,0],[1]]","6","[[2,3,0],[0,0],[1]]","11","0","","","","","","4","","","","","","","","",""
"","","","","","poldrack-single-stim","186","355666","0.0-2.0-44.0","63ffb67634be3d959f3ff793","A3","batch1","","-1","tol_feedback","","","true","","1000","1000","500","","","","","","-1","none","true","8303","20067","","","","","","","","","",""
"","","","","","html-button-response","187","356833","0.0-2.0-45.0","63ffb67634be3d959f3ff793","A3","batch1","","1166.5","tol_trial_num","<div class = centerbox><p class = center-block-text>problem <strong>13</strong> out of 25 problems</p></div>","0","","","","","","","","","","","","","","","","","","","","","","","","",""
"","","","","","single-stim-button","188","361617","0.0-2.0-46.0-0.0","63ffb67634be3d959f3ff793","A3","batch1","","4783","tol_tohand","","","","tol_peg_1","4783","4783","0","[[1,0,0],[3,0],[0]]","1","[[0,0,0],[2,3],[1]]","12","0","","","","","","4","","","","","","","","",""
"","","","","","single-stim-button","189","362428","0.0-2.0-46.0-1.0","63ffb67634be3d959f3ff793","A3","batch1","","810","tol_toboard","","","","tol_peg_2","810","810","0","[[1,0,0],[3,2],[0]]","1","[[0,0,0],[2,3],[1]]","12","0","","","","","","4","","","","","","","","",""
"","","","","","single-stim-button","190","363667","0.0-2.0-46.1-0.1","63ffb67634be3d959f3ff793","A3","batch1","","1239","tol_tohand","","","","tol_peg_1","1239","1239","0","[[0,0,0],[3,2],[0]]","2","[[0,0,0],[2,3],[1]]","12","0","","","","","","4","","","","","","","","",""
"","","","","","single-stim-button","191","364743","0.0-2.0-46.1-1.1","63ffb67634be3d959f3ff793","A3","batch1","","1075","tol_toboard","","","","tol_peg_3","1075","1075","0","[[0,0,0],[3,2],[1]]","2","[[0,0,0],[2,3],[1]]","12","0","","","","","","4","","","","","","","","",""
"","","","","","single-stim-button","192","368060","0.0-2.0-46.2-0.2","63ffb67634be3d959f3ff793","A3","batch1","","3316","tol_tohand","","","","tol_peg_2","3316","3316","0","[[0,0,0],[3,0],[1]]","3","[[0,0,0],[2,3],[1]]","12","0","","","","","","4","","","","","","","","",""
"","","","","","single-stim-button","193","370447","0.0-2.0-46.2-1.2","63ffb67634be3d959f3ff793","A3","batch1","","2386","tol_toboard","","","","tol_peg_2","2386","2386","0","[[0,0,0],[3,2],[1]]","3","[[0,0,0],[2,3],[1]]","12","0","","","","","","4","","","","","","","","",""
"","","","","","single-stim-button","194","371107","0.0-2.0-46.3-0.3","63ffb67634be3d959f3ff793","A3","batch1","","659","tol_tohand","","","","tol_peg_2","659","659","0","[[0,0,0],[3,0],[1]]","4","[[0,0,0],[2,3],[1]]","12","0","","","","","","4","","","","","","","","",""
"","","","","","single-stim-button","195","371547","0.0-2.0-46.3-1.3","63ffb67634be3d959f3ff793","A3","batch1","","439","tol_toboard","","","","tol_peg_2","439","439","0","[[0,0,0],[3,2],[1]]","4","[[0,0,0],[2,3],[1]]","12","0","","","","","","4","","","","","","","","",""
"","","","","","single-stim-button","196","372309","0.0-2.0-46.4-0.4","63ffb67634be3d959f3ff793","A3","batch1","","761","tol_tohand","","","","tol_peg_3","761","761","0","[[0,0,0],[3,2],[0]]","5","[[0,0,0],[2,3],[1]]","12","0","","","","","","4","","","","","","","","",""
"","","","","","single-stim-button","197","373150","0.0-2.0-46.4-1.4","63ffb67634be3d959f3ff793","A3","batch1","","840","tol_toboard","","","","tol_peg_1","840","840","0","[[1,0,0],[3,2],[0]]","5","[[0,0,0],[2,3],[1]]","12","0","","","","","","4","","","","","","","","",""
"","","","","","single-stim-button","198","374641","0.0-2.0-46.5-0.5","63ffb67634be3d959f3ff793","A3","batch1","","1491","tol_tohand","","","","tol_peg_2","1491","1491","0","[[1,0,0],[3,0],[0]]","6","[[0,0,0],[2,3],[1]]","12","0","","","","","","4","","","","","","","","",""
"","","","","","single-stim-button","199","375631","0.0-2.0-46.5-1.5","63ffb67634be3d959f3ff793","A3","batch1","","989","tol_toboard","","","","tol_peg_3","989","989","0","[[1,0,0],[3,0],[2]]","6","[[0,0,0],[2,3],[1]]","12","0","","","","","","4","","","","","","","","",""
"","","","","","single-stim-button","200","376724","0.0-2.0-46.6-0.6","63ffb67634be3d959f3ff793","A3","batch1","","1091","tol_tohand","","","","tol_peg_2","1091","1091","0","[[1,0,0],[0,0],[2]]","7","[[0,0,0],[2,3],[1]]","12","0","","","","","","4","","","","","","","","",""
"","","","","","single-stim-button","201","377501","0.0-2.0-46.6-1.6","63ffb67634be3d959f3ff793","A3","batch1","","777","tol_toboard","","","","tol_peg_1","777","777","0","[[1,3,0],[0,0],[2]]","7","[[0,0,0],[2,3],[1]]","12","0","","","","","","4","","","","","","","","",""
"","","","","","single-stim-button","202","378208","0.0-2.0-46.7-0.7","63ffb67634be3d959f3ff793","A3","batch1","","705","tol_tohand","","","","tol_peg_3","705","705","0","[[1,3,0],[0,0],[0]]","8","[[0,0,0],[2,3],[1]]","12","0","","","","","","4","","","","","","","","",""
"","","","","","single-stim-button","203","378940","0.0-2.0-46.7-1.7","63ffb67634be3d959f3ff793","A3","batch1","","731","tol_toboard","","","","tol_peg_2","731","731","0","[[1,3,0],[2,0],[0]]","8","[[0,0,0],[2,3],[1]]","12","0","","","","","","4","","","","","","","","",""
"","","","","","single-stim-button","204","379606","0.0-2.0-46.8-0.8","63ffb67634be3d959f3ff793","A3","batch1","","665","tol_tohand","","","","tol_peg_1","665","665","0","[[1,0,0],[2,0],[0]]","9","[[0,0,0],[2,3],[1]]","12","0","","","","","","4","","","","","","","","",""
"","","","","","single-stim-button","205","380212","0.0-2.0-46.8-1.8","63ffb67634be3d959f3ff793","A3","batch1","","606","tol_toboard","","","","tol_peg_2","606","606","0","[[1,0,0],[2,3],[0]]","9","[[0,0,0],[2,3],[1]]","12","0","","","","","","4","","","","","","","","",""
"","","","","","single-stim-button","206","380786","0.0-2.0-46.9-0.9","63ffb67634be3d959f3ff793","A3","batch1","","573","tol_tohand","","","","tol_peg_1","573","573","0","[[0,0,0],[2,3],[0]]","10","[[0,0,0],[2,3],[1]]","12","0","","","","","","4","","","","","","","","",""
"","","","","","single-stim-button","207","381444","0.0-2.0-46.9-1.9","63ffb67634be3d959f3ff793","A3","batch1","","657","tol_toboard","","","","tol_peg_3","657","657","0","[[0,0,0],[2,3],[1]]","10","[[0,0,0],[2,3],[1]]","12","0","","","","","","4","","","","","","","","",""
"","","","","","poldrack-single-stim","208","382445","0.0-2.0-47.0","63ffb67634be3d959f3ff793","A3","batch1","","-1","tol_feedback","","","true","","1000","1000","500","","","","","","-1","none","true","4783","15283","","","","","","","","","",""
"","","","","","html-button-response","209","384107","0.0-2.0-48.0","63ffb67634be3d959f3ff793","A3","batch1","","1661.8999999761581","attention_check","<p class = block-text>How many balls are in your board<br></p>","1","true","","","","","","","","","","","","","","","","","","","","","","","",""
"","","","","","html-button-response","210","385200","0.0-2.0-49.0","63ffb67634be3d959f3ff793","A3","batch1","","1092.5","tol_trial_num","<div class = centerbox><p class = center-block-text>problem <strong>14</strong> out of 25 problems</p></div>","0","","","","","","","","","","","","","","","","","","","","","","","","",""
"","","","","","single-stim-button","211","389128","0.0-2.0-50.0-0.0","63ffb67634be3d959f3ff793","A3","batch1","","3926","tol_tohand","","","","tol_peg_1","3926","3926","0","[[2,0,0],[3,0],[0]]","1","[[1,2,0],[3,0],[0]]","13","0","","","","","","4","","","","","","","","",""
"","","","","","single-stim-button","212","389834","0.0-2.0-50.0-1.0","63ffb67634be3d959f3ff793","A3","batch1","","706","tol_toboard","","","","tol_peg_3","706","706","0","[[2,0,0],[3,0],[1]]","1","[[1,2,0],[3,0],[0]]","13","0","","","","","","4","","","","","","","","",""
"","","","","","single-stim-button","213","390603","0.0-2.0-50.1-0.1","63ffb67634be3d959f3ff793","A3","batch1","","769","tol_tohand","","","","tol_peg_1","769","769","0","[[0,0,0],[3,0],[1]]","2","[[1,2,0],[3,0],[0]]","13","0","","","","","","4","","","","","","","","",""
"","","","","","single-stim-button","214","391090","0.0-2.0-50.1-1.1","63ffb67634be3d959f3ff793","A3","batch1","","487","tol_toboard","","","","tol_peg_2","487","487","0","[[0,0,0],[3,2],[1]]","2","[[1,2,0],[3,0],[0]]","13","0","","","","","","4","","","","","","","","",""
"","","","","","single-stim-button","215","391860","0.0-2.0-50.2-0.2","63ffb67634be3d959f3ff793","A3","batch1","","769","tol_tohand","","","","tol_peg_3","769","769","0","[[0,0,0],[3,2],[0]]","3","[[1,2,0],[3,0],[0]]","13","0","","","","","","4","","","","","","","","",""
"","","","","","single-stim-button","216","392670","0.0-2.0-50.2-1.2","63ffb67634be3d959f3ff793","A3","batch1","","809","tol_toboard","","","","tol_peg_1","809","809","0","[[1,0,0],[3,2],[0]]","3","[[1,2,0],[3,0],[0]]","13","0","","","","","","4","","","","","","","","",""
"","","","","","single-stim-button","217","393336","0.0-2.0-50.3-0.3","63ffb67634be3d959f3ff793","A3","batch1","","665","tol_tohand","","","","tol_peg_2","665","665","0","[[1,0,0],[3,0],[0]]","4","[[1,2,0],[3,0],[0]]","13","0","","","","","","4","","","","","","","","",""
"","","","","","single-stim-button","218","394004","0.0-2.0-50.3-1.3","63ffb67634be3d959f3ff793","A3","batch1","","667","tol_toboard","","","","tol_peg_1","667","667","0","[[1,2,0],[3,0],[0]]","4","[[1,2,0],[3,0],[0]]","13","0","","","","","","4","","","","","","","","",""
"","","","","","poldrack-single-stim","219","395017","0.0-2.0-51.0","63ffb67634be3d959f3ff793","A3","batch1","","-1","tol_feedback","","","true","","1000","1000","500","","","","","","-1","none","true","3926","6129","","","","","","","","","",""
"","","","","","html-button-response","220","395960","0.0-2.0-52.0","63ffb67634be3d959f3ff793","A3","batch1","","942.2000000476837","tol_trial_num","<div class = centerbox><p class = center-block-text>problem <strong>15</strong> out of 25 problems</p></div>","0","","","","","","","","","","","","","","","","","","","","","","","","",""
"","","","","","single-stim-button","221","399739","0.0-2.0-53.0-0.0","63ffb67634be3d959f3ff793","A3","batch1","","3779","tol_tohand","","","","tol_peg_1","3779","3779","0","[[1,0,0],[3,0],[0]]","1","[[2,0,0],[3,0],[1]]","14","0","","","","","","3","","","","","","","","",""
"","","","","","single-stim-button","222","400282","0.0-2.0-53.0-1.0","63ffb67634be3d959f3ff793","A3","batch1","","541","tol_toboard","","","","tol_peg_2","541","541","0","[[1,0,0],[3,2],[0]]","1","[[2,0,0],[3,0],[1]]","14","0","","","","","","3","","","","","","","","",""
"","","","","","single-stim-button","223","401184","0.0-2.0-53.1-0.1","63ffb67634be3d959f3ff793","A3","batch1","","902","tol_tohand","","","","tol_peg_1","902","902","0","[[0,0,0],[3,2],[0]]","2","[[2,0,0],[3,0],[1]]","14","0","","","","","","3","","","","","","","","",""
"","","","","","single-stim-button","224","401843","0.0-2.0-53.1-1.1","63ffb67634be3d959f3ff793","A3","batch1","","658","tol_toboard","","","","tol_peg_3","658","658","0","[[0,0,0],[3,2],[1]]","2","[[2,0,0],[3,0],[1]]","14","0","","","","","","3","","","","","","","","",""
"","","","","","single-stim-button","225","402519","0.0-2.0-53.2-0.2","63ffb67634be3d959f3ff793","A3","batch1","","675","tol_tohand","","","","tol_peg_2","675","675","0","[[0,0,0],[3,0],[1]]","3","[[2,0,0],[3,0],[1]]","14","0","","","","","","3","","","","","","","","",""
"","","","","","single-stim-button","226","403313","0.0-2.0-53.2-1.2","63ffb67634be3d959f3ff793","A3","batch1","","793","tol_toboard","","","","tol_peg_1","793","793","0","[[2,0,0],[3,0],[1]]","3","[[2,0,0],[3,0],[1]]","14","0","","","","","","3","","","","","","","","",""
"","","","","","poldrack-single-stim","227","404314","0.0-2.0-54.0","63ffb67634be3d959f3ff793","A3","batch1","","-1","tol_feedback","","","true","","1000","1000","500","","","","","","-1","none","true","3779","5356","","","","","","","","","",""
"","","","","","html-button-response","228","405221","0.0-2.0-55.0","63ffb67634be3d959f3ff793","A3","batch1","","906.1000000238419","tol_trial_num","<div class = centerbox><p class = center-block-text>problem <strong>16</strong> out of 25 problems</p></div>","0","","","","","","","","","","","","","","","","","","","","","","","","",""
"","","","","","single-stim-button","229","411701","0.0-2.0-56.0-0.0","63ffb67634be3d959f3ff793","A3","batch1","","6479","tol_tohand","","","","tol_peg_3","6479","6479","0","[[0,0,0],[2,3],[0]]","1","[[2,3,0],[1,0],[0]]","15","0","","","","","","7","","","","","","","","",""
"","","","","","single-stim-button","230","414092","0.0-2.0-56.0-1.0","63ffb67634be3d959f3ff793","A3","batch1","","2389","tol_toboard","","","","tol_peg_1","2389","2389","0","[[1,0,0],[2,3],[0]]","1","[[2,3,0],[1,0],[0]]","15","0","","","","","","7","","","","","","","","",""
"","","","","","single-stim-button","231","416219","0.0-2.0-56.1-0.1","63ffb67634be3d959f3ff793","A3","batch1","","2127","tol_tohand","","","","tol_peg_1","2127","2127","0","[[0,0,0],[2,3],[0]]","2","[[2,3,0],[1,0],[0]]","15","0","","","","","","7","","","","","","","","",""
"","","","","","single-stim-button","232","416981","0.0-2.0-56.1-1.1","63ffb67634be3d959f3ff793","A3","batch1","","761","tol_toboard","","","","tol_peg_3","761","761","0","[[0,0,0],[2,3],[1]]","2","[[2,3,0],[1,0],[0]]","15","0","","","","","","7","","","","","","","","",""
"","","","","","single-stim-button","233","427712","0.0-2.0-56.2-0.2","63ffb67634be3d959f3ff793","A3","batch1","","10729","tol_tohand","","","","tol_peg_2","10729","10729","0","[[0,0,0],[2,0],[1]]","3","[[2,3,0],[1,0],[0]]","15","0","","","","","","7","","","","","","","","",""
"","","","","","single-stim-button","234","428364","0.0-2.0-56.2-1.2","63ffb67634be3d959f3ff793","A3","batch1","","651","tol_toboard","","","","tol_peg_1","651","651","0","[[3,0,0],[2,0],[1]]","3","[[2,3,0],[1,0],[0]]","15","0","","","","","","7","","","","","","","","",""
"","","","","","single-stim-button","235","429002","0.0-2.0-56.3-0.3","63ffb67634be3d959f3ff793","A3","batch1","","637","tol_tohand","","","","tol_peg_2","637","637","0","[[3,0,0],[0,0],[1]]","4","[[2,3,0],[1,0],[0]]","15","0","","","","","","7","","","","","","","","",""
"","","","","","single-stim-button","236","429589","0.0-2.0-56.3-1.3","63ffb67634be3d959f3ff793","A3","batch1","","587","tol_toboard","","","","tol_peg_1","587","587","0","[[3,2,0],[0,0],[1]]","4","[[2,3,0],[1,0],[0]]","15","0","","","","","","7","","","","","","","","",""
"","","","","","single-stim-button","237","430352","0.0-2.0-56.4-0.4","63ffb67634be3d959f3ff793","A3","batch1","","761","tol_tohand","","","","tol_peg_3","761","761","0","[[3,2,0],[0,0],[0]]","5","[[2,3,0],[1,0],[0]]","15","0","","","","","","7","","","","","","","","",""
"","","","","","single-stim-button","238","431419","0.0-2.0-56.4-1.4","63ffb67634be3d959f3ff793","A3","batch1","","1067","tol_toboard","","","","tol_peg_2","1067","1067","0","[[3,2,0],[1,0],[0]]","5","[[2,3,0],[1,0],[0]]","15","0","","","","","","7","","","","","","","","",""
"","","","","","single-stim-button","239","432802","0.0-2.0-56.5-0.5","63ffb67634be3d959f3ff793","A3","batch1","","1381","tol_tohand","","","","tol_peg_1","1381","1381","0","[[3,0,0],[1,0],[0]]","6","[[2,3,0],[1,0],[0]]","15","0","","","","","","7","","","","","","","","",""
"","","","","","single-stim-button","240","433580","0.0-2.0-56.5-1.5","63ffb67634be3d959f3ff793","A3","batch1","","778","tol_toboard","","","","tol_peg_3","778","778","0","[[3,0,0],[1,0],[2]]","6","[[2,3,0],[1,0],[0]]","15","0","","","","","","7","","","","","","","","",""
"","","","","","single-stim-button","241","434554","0.0-2.0-56.6-0.6","63ffb67634be3d959f3ff793","A3","batch1","","973","tol_tohand","","","","tol_peg_1","973","973","0","[[0,0,0],[1,0],[2]]","7","[[2,3,0],[1,0],[0]]","15","0","","","","","","7","","","","","","","","",""
"","","","","","single-stim-button","242","435253","0.0-2.0-56.6-1.6","63ffb67634be3d959f3ff793","A3","batch1","","699","tol_toboard","","","","tol_peg_2","699","699","0","[[0,0,0],[1,3],[2]]","7","[[2,3,0],[1,0],[0]]","15","0","","","","","","7","","","","","","","","",""
"","","","","","single-stim-button","243","435889","0.0-2.0-56.7-0.7","63ffb67634be3d959f3ff793","A3","batch1","","635","tol_tohand","","","","tol_peg_3","635","635","0","[[0,0,0],[1,3],[0]]","8","[[2,3,0],[1,0],[0]]","15","0","","","","","","7","","","","","","","","",""
"","","","","","single-stim-button","244","436612","0.0-2.0-56.7-1.7","63ffb67634be3d959f3ff793","A3","batch1","","722","tol_toboard","","","","tol_peg_1","722","722","0","[[2,0,0],[1,3],[0]]","8","[[2,3,0],[1,0],[0]]","15","0","","","","","","7","","","","","","","","",""
"","","","","","single-stim-button","245","437122","0.0-2.0-56.8-0.8","63ffb67634be3d959f3ff793","A3","batch1","","510","tol_tohand","","","","tol_peg_2","510","510","0","[[2,0,0],[1,0],[0]]","9","[[2,3,0],[1,0],[0]]","15","0","","","","","","7","","","","","","","","",""
"","","","","","single-stim-button","246","438017","0.0-2.0-56.8-1.8","63ffb67634be3d959f3ff793","A3","batch1","","895","tol_toboard","","","","tol_peg_1","895","895","0","[[2,3,0],[1,0],[0]]","9","[[2,3,0],[1,0],[0]]","15","0","","","","","","7","","","","","","","","",""
"","","","","","poldrack-single-stim","247","439018","0.0-2.0-57.0","63ffb67634be3d959f3ff793","A3","batch1","","-1","tol_feedback","","","true","","1000","1000","500","","","","","","-1","none","true","6479","24232","","","","","","","","","",""
"","","","","","html-button-response","248","440100","0.0-2.0-58.0","63ffb67634be3d959f3ff793","A3","batch1","","1081.5","tol_trial_num","<div class = centerbox><p class = center-block-text>problem <strong>17</strong> out of 25 problems</p></div>","0","","","","","","","","","","","","","","","","","","","","","","","","",""
"","","","","","single-stim-button","249","449069","0.0-2.0-59.0-0.0","63ffb67634be3d959f3ff793","A3","batch1","","8969","tol_tohand","","","","tol_peg_1","8969","8969","0","[[1,0,0],[3,0],[0]]","1","[[3,1,0],[2,0],[0]]","16","0","","","","","","5","","","","","","","","",""
"","","","","","single-stim-button","250","455189","0.0-2.0-59.0-1.0","63ffb67634be3d959f3ff793","A3","batch1","","6119","tol_toboard","","","","tol_peg_2","6119","6119","0","[[1,0,0],[3,2],[0]]","1","[[3,1,0],[2,0],[0]]","16","0","","","","","","5","","","","","","","","",""
"","","","","","single-stim-button","251","459265","0.0-2.0-59.1-0.1","63ffb67634be3d959f3ff793","A3","batch1","","4075","tol_tohand","","","","tol_peg_1","4075","4075","0","[[0,0,0],[3,2],[0]]","2","[[3,1,0],[2,0],[0]]","16","0","","","","","","5","","","","","","","","",""
"","","","","","single-stim-button","252","461700","0.0-2.0-59.1-1.1","63ffb67634be3d959f3ff793","A3","batch1","","2434","tol_toboard","","","","tol_peg_1","2434","2434","0","[[1,0,0],[3,2],[0]]","2","[[3,1,0],[2,0],[0]]","16","0","","","","","","5","","","","","","","","",""
"","","","","","single-stim-button","253","462306","0.0-2.0-59.2-0.2","63ffb67634be3d959f3ff793","A3","batch1","","606","tol_tohand","","","","tol_peg_2","606","606","0","[[1,0,0],[3,0],[0]]","3","[[3,1,0],[2,0],[0]]","16","0","","","","","","5","","","","","","","","",""
"","","","","","single-stim-button","254","462832","0.0-2.0-59.2-1.2","63ffb67634be3d959f3ff793","A3","batch1","","526","tol_toboard","","","","tol_peg_1","526","526","0","[[1,2,0],[3,0],[0]]","3","[[3,1,0],[2,0],[0]]","16","0","","","","","","5","","","","","","","","",""
"","","","","","single-stim-button","255","463500","0.0-2.0-59.3-0.3","63ffb67634be3d959f3ff793","A3","batch1","","668","tol_tohand","","","","tol_peg_2","668","668","0","[[1,2,0],[0,0],[0]]","4","[[3,1,0],[2,0],[0]]","16","0","","","","","","5","","","","","","","","",""
"","","","","","single-stim-button","256","464128","0.0-2.0-59.3-1.3","63ffb67634be3d959f3ff793","A3","batch1","","628","tol_toboard","","","","tol_peg_3","628","628","0","[[1,2,0],[0,0],[3]]","4","[[3,1,0],[2,0],[0]]","16","0","","","","","","5","","","","","","","","",""
"","","","","","single-stim-button","257","464749","0.0-2.0-59.4-0.4","63ffb67634be3d959f3ff793","A3","batch1","","619","tol_tohand","","","","tol_peg_1","619","619","0","[[1,0,0],[0,0],[3]]","5","[[3,1,0],[2,0],[0]]","16","0","","","","","","5","","","","","","","","",""
"","","","","","single-stim-button","258","465526","0.0-2.0-59.4-1.4","63ffb67634be3d959f3ff793","A3","batch1","","777","tol_toboard","","","","tol_peg_2","777","777","0","[[1,0,0],[2,0],[3]]","5","[[3,1,0],[2,0],[0]]","16","0","","","","","","5","","","","","","","","",""
"","","","","","single-stim-button","259","468606","0.0-2.0-59.5-0.5","63ffb67634be3d959f3ff793","A3","batch1","","3080","tol_tohand","","","","tol_peg_1","3080","3080","0","[[0,0,0],[2,0],[3]]","6","[[3,1,0],[2,0],[0]]","16","0","","","","","","5","","","","","","","","",""
"","","","","","single-stim-button","260","469125","0.0-2.0-59.5-1.5","63ffb67634be3d959f3ff793","A3","batch1","","519","tol_toboard","","","","tol_peg_2","519","519","0","[[0,0,0],[2,1],[3]]","6","[[3,1,0],[2,0],[0]]","16","0","","","","","","5","","","","","","","","",""
"","","","","","single-stim-button","261","469792","0.0-2.0-59.6-0.6","63ffb67634be3d959f3ff793","A3","batch1","","667","tol_tohand","","","","tol_peg_3","667","667","0","[[0,0,0],[2,1],[0]]","7","[[3,1,0],[2,0],[0]]","16","0","","","","","","5","","","","","","","","",""
"","","","","","single-stim-button","262","470560","0.0-2.0-59.6-1.6","63ffb67634be3d959f3ff793","A3","batch1","","768","tol_toboard","","","","tol_peg_1","768","768","0","[[3,0,0],[2,1],[0]]","7","[[3,1,0],[2,0],[0]]","16","0","","","","","","5","","","","","","","","",""
"","","","","","single-stim-button","263","471276","0.0-2.0-59.7-0.7","63ffb67634be3d959f3ff793","A3","batch1","","716","tol_tohand","","","","tol_peg_2","716","716","0","[[3,0,0],[2,0],[0]]","8","[[3,1,0],[2,0],[0]]","16","0","","","","","","5","","","","","","","","",""
"","","","","","single-stim-button","264","471872","0.0-2.0-59.7-1.7","63ffb67634be3d959f3ff793","A3","batch1","","596","tol_toboard","","","","tol_peg_1","596","596","0","[[3,1,0],[2,0],[0]]","8","[[3,1,0],[2,0],[0]]","16","0","","","","","","5","","","","","","","","",""
"","","","","","poldrack-single-stim","265","472885","0.0-2.0-60.0","63ffb67634be3d959f3ff793","A3","batch1","","-1","tol_feedback","","","true","","1000","1000","500","","","","","","-1","none","true","8969","19400","","","","","","","","","",""
"","","","","","html-button-response","266","473835","0.0-2.0-61.0","63ffb67634be3d959f3ff793","A3","batch1","","949.3999999761581","tol_trial_num","<div class = centerbox><p class = center-block-text>problem <strong>18</strong> out of 25 problems</p></div>","0","","","","","","","","","","","","","","","","","","","","","","","","",""
"","","","","","single-stim-button","267","479994","0.0-2.0-62.0-0.0","63ffb67634be3d959f3ff793","A3","batch1","","6158","tol_tohand","","","","tol_peg_1","6158","6158","0","[[1,0,0],[3,0],[0]]","1","[[3,0,0],[2,0],[1]]","17","0","","","","","","5","","","","","","","","",""
"","","","","","single-stim-button","268","488563","0.0-2.0-62.0-1.0","63ffb67634be3d959f3ff793","A3","batch1","","8569","tol_toboard","","","","tol_peg_1","8569","8569","0","[[1,2,0],[3,0],[0]]","1","[[3,0,0],[2,0],[1]]","17","0","","","","","","5","","","","","","","","",""
"","","","","","single-stim-button","269","491872","0.0-2.0-62.1-0.1","63ffb67634be3d959f3ff793","A3","batch1","","3308","tol_tohand","","","","tol_peg_2","3308","3308","0","[[1,2,0],[0,0],[0]]","2","[[3,0,0],[2,0],[1]]","17","0","","","","","","5","","","","","","","","",""
"","","","","","single-stim-button","270","492664","0.0-2.0-62.1-1.1","63ffb67634be3d959f3ff793","A3","batch1","","791","tol_toboard","","","","tol_peg_3","791","791","0","[[1,2,0],[0,0],[3]]","2","[[3,0,0],[2,0],[1]]","17","0","","","","","","5","","","","","","","","",""
"","","","","","single-stim-button","271","493459","0.0-2.0-62.2-0.2","63ffb67634be3d959f3ff793","A3","batch1","","794","tol_tohand","","","","tol_peg_1","794","794","0","[[1,0,0],[0,0],[3]]","3","[[3,0,0],[2,0],[1]]","17","0","","","","","","5","","","","","","","","",""
"","","","","","single-stim-button","272","494151","0.0-2.0-62.2-1.2","63ffb67634be3d959f3ff793","A3","batch1","","691","tol_toboard","","","","tol_peg_2","691","691","0","[[1,0,0],[2,0],[3]]","3","[[3,0,0],[2,0],[1]]","17","0","","","","","","5","","","","","","","","",""
"","","","","","single-stim-button","273","495406","0.0-2.0-62.3-0.3","63ffb67634be3d959f3ff793","A3","batch1","","1255","tol_tohand","","","","tol_peg_1","1255","1255","0","[[0,0,0],[2,0],[3]]","4","[[3,0,0],[2,0],[1]]","17","0","","","","","","5","","","","","","","","",""
"","","","","","single-stim-button","274","495925","0.0-2.0-62.3-1.3","63ffb67634be3d959f3ff793","A3","batch1","","518","tol_toboard","","","","tol_peg_2","518","518","0","[[0,0,0],[2,1],[3]]","4","[[3,0,0],[2,0],[1]]","17","0","","","","","","5","","","","","","","","",""
"","","","","","single-stim-button","275","496669","0.0-2.0-62.4-0.4","63ffb67634be3d959f3ff793","A3","batch1","","743","tol_tohand","","","","tol_peg_3","743","743","0","[[0,0,0],[2,1],[0]]","5","[[3,0,0],[2,0],[1]]","17","0","","","","","","5","","","","","","","","",""
"","","","","","single-stim-button","276","497651","0.0-2.0-62.4-1.4","63ffb67634be3d959f3ff793","A3","batch1","","982","tol_toboard","","","","tol_peg_1","982","982","0","[[3,0,0],[2,1],[0]]","5","[[3,0,0],[2,0],[1]]","17","0","","","","","","5","","","","","","","","",""
"","","","","","single-stim-button","277","498217","0.0-2.0-62.5-0.5","63ffb67634be3d959f3ff793","A3","batch1","","566","tol_tohand","","","","tol_peg_2","566","566","0","[[3,0,0],[2,0],[0]]","6","[[3,0,0],[2,0],[1]]","17","0","","","","","","5","","","","","","","","",""
"","","","","","single-stim-button","278","498821","0.0-2.0-62.5-1.5","63ffb67634be3d959f3ff793","A3","batch1","","604","tol_toboard","","","","tol_peg_3","604","604","0","[[3,0,0],[2,0],[1]]","6","[[3,0,0],[2,0],[1]]","17","0","","","","","","5","","","","","","","","",""
"","","","","","poldrack-single-stim","279","499823","0.0-2.0-63.0","63ffb67634be3d959f3ff793","A3","batch1","","-1","tol_feedback","","","true","","1000","1000","500","","","","","","-1","none","true","6158","12824","","","","","","","","","",""
"","","","","","html-button-response","280","500432","0.0-2.0-64.0","63ffb67634be3d959f3ff793","A3","batch1","","608.5","tol_trial_num","<div class = centerbox><p class = center-block-text>problem <strong>19</strong> out of 25 problems</p></div>","0","","","","","","","","","","","","","","","","","","","","","","","","",""
"","","","","","single-stim-button","281","515717","0.0-2.0-65.0-0.0","63ffb67634be3d959f3ff793","A3","batch1","","15285","tol_tohand","","","","tol_peg_1","15285","15285","0","[[1,0,0],[3,0],[0]]","1","[[0,0,0],[1,2],[3]]","18","0","","","","","","7","","","","","","","","",""
"","","","","","single-stim-button","282","516903","0.0-2.0-65.0-1.0","63ffb67634be3d959f3ff793","A3","batch1","","1184","tol_toboard","","","","tol_peg_3","1184","1184","0","[[1,0,0],[3,0],[2]]","1","[[0,0,0],[1,2],[3]]","18","0","","","","","","7","","","","","","","","",""
"","","","","","single-stim-button","283","522675","0.0-2.0-65.1-0.1","63ffb67634be3d959f3ff793","A3","batch1","","5772","tol_tohand","","","","tol_peg_1","5772","5772","0","[[0,0,0],[3,0],[2]]","2","[[0,0,0],[1,2],[3]]","18","0","","","","","","7","","","","","","","","",""
"","","","","","single-stim-button","284","523367","0.0-2.0-65.1-1.1","63ffb67634be3d959f3ff793","A3","batch1","","691","tol_toboard","","","","tol_peg_2","691","691","0","[[0,0,0],[3,1],[2]]","2","[[0,0,0],[1,2],[3]]","18","0","","","","","","7","","","","","","","","",""
"","","","","","single-stim-button","285","524372","0.0-2.0-65.2-0.2","63ffb67634be3d959f3ff793","A3","batch1","","1004","tol_tohand","","","","tol_peg_3","1004","1004","0","[[0,0,0],[3,1],[0]]","3","[[0,0,0],[1,2],[3]]","18","0","","","","","","7","","","","","","","","",""
"","","","","","single-stim-button","286","525331","0.0-2.0-65.2-1.2","63ffb67634be3d959f3ff793","A3","batch1","","959","tol_toboard","","","","tol_peg_1","959","959","0","[[2,0,0],[3,1],[0]]","3","[[0,0,0],[1,2],[3]]","18","0","","","","","","7","","","","","","","","",""
"","","","","","single-stim-button","287","527269","0.0-2.0-65.3-0.3","63ffb67634be3d959f3ff793","A3","batch1","","1937","tol_tohand","","","","tol_peg_2","1937","1937","0","[[2,0,0],[3,0],[0]]","4","[[0,0,0],[1,2],[3]]","18","0","","","","","","7","","","","","","","","",""
"","","","","","single-stim-button","288","527961","0.0-2.0-65.3-1.3","63ffb67634be3d959f3ff793","A3","batch1","","692","tol_toboard","","","","tol_peg_3","692","692","0","[[2,0,0],[3,0],[1]]","4","[[0,0,0],[1,2],[3]]","18","0","","","","","","7","","","","","","","","",""
"","","","","","single-stim-button","289","528479","0.0-2.0-65.4-0.4","63ffb67634be3d959f3ff793","A3","batch1","","517","tol_tohand","","","","tol_peg_2","517","517","0","[[2,0,0],[0,0],[1]]","5","[[0,0,0],[1,2],[3]]","18","0","","","","","","7","","","","","","","","",""
"","","","","","single-stim-button","290","529107","0.0-2.0-65.4-1.4","63ffb67634be3d959f3ff793","A3","batch1","","627","tol_toboard","","","","tol_peg_1","627","627","0","[[2,3,0],[0,0],[1]]","5","[[0,0,0],[1,2],[3]]","18","0","","","","","","7","","","","","","","","",""
"","","","","","single-stim-button","291","529838","0.0-2.0-65.5-0.5","63ffb67634be3d959f3ff793","A3","batch1","","731","tol_tohand","","","","tol_peg_3","731","731","0","[[2,3,0],[0,0],[0]]","6","[[0,0,0],[1,2],[3]]","18","0","","","","","","7","","","","","","","","",""
"","","","","","single-stim-button","292","530513","0.0-2.0-65.5-1.5","63ffb67634be3d959f3ff793","A3","batch1","","675","tol_toboard","","","","tol_peg_2","675","675","0","[[2,3,0],[1,0],[0]]","6","[[0,0,0],[1,2],[3]]","18","0","","","","","","7","","","","","","","","",""
"","","","","","single-stim-button","293","531039","0.0-2.0-65.6-0.6","63ffb67634be3d959f3ff793","A3","batch1","","526","tol_tohand","","","","tol_peg_1","526","526","0","[[2,0,0],[1,0],[0]]","7","[[0,0,0],[1,2],[3]]","18","0","","","","","","7","","","","","","","","",""
"","","","","","single-stim-button","294","531613","0.0-2.0-65.6-1.6","63ffb67634be3d959f3ff793","A3","batch1","","574","tol_toboard","","","","tol_peg_3","574","574","0","[[2,0,0],[1,0],[3]]","7","[[0,0,0],[1,2],[3]]","18","0","","","","","","7","","","","","","","","",""
"","","","","","single-stim-button","295","532272","0.0-2.0-65.7-0.7","63ffb67634be3d959f3ff793","A3","batch1","","659","tol_tohand","","","","tol_peg_1","659","659","0","[[0,0,0],[1,0],[3]]","8","[[0,0,0],[1,2],[3]]","18","0","","","","","","7","","","","","","","","",""
"","","","","","single-stim-button","296","533011","0.0-2.0-65.7-1.7","63ffb67634be3d959f3ff793","A3","batch1","","739","tol_toboard","","","","tol_peg_2","739","739","0","[[0,0,0],[1,2],[3]]","8","[[0,0,0],[1,2],[3]]","18","0","","","","","","7","","","","","","","","",""
"","","","","","poldrack-single-stim","297","534013","0.0-2.0-66.0","63ffb67634be3d959f3ff793","A3","batch1","","-1","tol_feedback","","","true","","1000","1000","500","","","","","","-1","none","true","15285","26431","","","","","","","","","",""
"","","","","","html-button-response","298","534941","0.0-2.0-67.0","63ffb67634be3d959f3ff793","A3","batch1","","926.5","tol_trial_num","<div class = centerbox><p class = center-block-text>problem <strong>20</strong> out of 25 problems</p></div>","0","","","","","","","","","","","","","","","","","","","","","","","","",""
"","","","","","single-stim-button","299","540801","0.0-2.0-68.0-0.0","63ffb67634be3d959f3ff793","A3","batch1","","5860","tol_tohand","","","","tol_peg_1","5860","5860","0","[[1,0,0],[3,0],[0]]","1","[[2,1,0],[0,0],[3]]","19","0","","","","","","5","","","","","","","","",""
"","","","","","single-stim-button","300","541587","0.0-2.0-68.0-1.0","63ffb67634be3d959f3ff793","A3","batch1","","785","tol_toboard","","","","tol_peg_3","785","785","0","[[1,0,0],[3,0],[2]]","1","[[2,1,0],[0,0],[3]]","19","0","","","","","","5","","","","","","","","",""
"","","","","","single-stim-button","301","542427","0.0-2.0-68.1-0.1","63ffb67634be3d959f3ff793","A3","batch1","","840","tol_tohand","","","","tol_peg_1","840","840","0","[[0,0,0],[3,0],[2]]","2","[[2,1,0],[0,0],[3]]","19","0","","","","","","5","","","","","","","","",""
"","","","","","single-stim-button","302","543141","0.0-2.0-68.1-1.1","63ffb67634be3d959f3ff793","A3","batch1","","713","tol_toboard","","","","tol_peg_2","713","713","0","[[0,0,0],[3,1],[2]]","2","[[2,1,0],[0,0],[3]]","19","0","","","","","","5","","","","","","","","",""
"","","","","","single-stim-button","303","544171","0.0-2.0-68.2-0.2","63ffb67634be3d959f3ff793","A3","batch1","","1030","tol_tohand","","","","tol_peg_3","1030","1030","0","[[0,0,0],[3,1],[0]]","3","[[2,1,0],[0,0],[3]]","19","0","","","","","","5","","","","","","","","",""
"","","","","","single-stim-button","304","544987","0.0-2.0-68.2-1.2","63ffb67634be3d959f3ff793","A3","batch1","","816","tol_toboard","","","","tol_peg_1","816","816","0","[[2,0,0],[3,1],[0]]","3","[[2,1,0],[0,0],[3]]","19","0","","","","","","5","","","","","","","","",""
"","","","","","single-stim-button","305","545545","0.0-2.0-68.3-0.3","63ffb67634be3d959f3ff793","A3","batch1","","558","tol_tohand","","","","tol_peg_2","558","558","0","[[2,0,0],[3,0],[0]]","4","[[2,1,0],[0,0],[3]]","19","0","","","","","","5","","","","","","","","",""
"","","","","","single-stim-button","306","546133","0.0-2.0-68.3-1.3","63ffb67634be3d959f3ff793","A3","batch1","","588","tol_toboard","","","","tol_peg_1","588","588","0","[[2,1,0],[3,0],[0]]","4","[[2,1,0],[0,0],[3]]","19","0","","","","","","5","","","","","","","","",""
"","","","","","single-stim-button","307","546817","0.0-2.0-68.4-0.4","63ffb67634be3d959f3ff793","A3","batch1","","683","tol_tohand","","","","tol_peg_2","683","683","0","[[2,1,0],[0,0],[0]]","5","[[2,1,0],[0,0],[3]]","19","0","","","","","","5","","","","","","","","",""
"","","","","","single-stim-button","308","547453","0.0-2.0-68.4-1.4","63ffb67634be3d959f3ff793","A3","batch1","","635","tol_toboard","","","","tol_peg_3","635","635","0","[[2,1,0],[0,0],[3]]","5","[[2,1,0],[0,0],[3]]","19","0","","","","","","5","","","","","","","","",""
"","","","","","poldrack-single-stim","309","548458","0.0-2.0-69.0","63ffb67634be3d959f3ff793","A3","batch1","","-1","tol_feedback","","","true","","1000","1000","500","","","","","","-1","none","true","5860","8971","","","","","","","","","",""
"","","","","","html-button-response","310","549471","0.0-2.0-70.0","63ffb67634be3d959f3ff793","A3","batch1","","1012","tol_trial_num","<div class = centerbox><p class = center-block-text>problem <strong>21</strong> out of 25 problems</p></div>","0","","","","","","","","","","","","","","","","","","","","","","","","",""
"","","","","","single-stim-button","311","556377","0.0-2.0-71.0-0.0","63ffb67634be3d959f3ff793","A3","batch1","","6906","tol_tohand","","","","tol_peg_2","6906","6906","0","[[1,2,0],[0,0],[0]]","1","[[3,2,0],[0,0],[1]]","20","0","","","","","","6","","","","","","","","",""
"","","","","","single-stim-button","312","557052","0.0-2.0-71.0-1.0","63ffb67634be3d959f3ff793","A3","batch1","","674","tol_toboard","","","","tol_peg_3","674","674","0","[[1,2,0],[0,0],[3]]","1","[[3,2,0],[0,0],[1]]","20","0","","","","","","6","","","","","","","","",""
"","","","","","single-stim-button","313","557679","0.0-2.0-71.1-0.1","63ffb67634be3d959f3ff793","A3","batch1","","626","tol_tohand","","","","tol_peg_1","626","626","0","[[1,0,0],[0,0],[3]]","2","[[3,2,0],[0,0],[1]]","20","0","","","","","","6","","","","","","","","",""
"","","","","","single-stim-button","314","558779","0.0-2.0-71.1-1.1","63ffb67634be3d959f3ff793","A3","batch1","","1099","tol_toboard","","","","tol_peg_2","1099","1099","0","[[1,0,0],[2,0],[3]]","2","[[3,2,0],[0,0],[1]]","20","0","","","","","","6","","","","","","","","",""
"","","","","","single-stim-button","315","559440","0.0-2.0-71.2-0.2","63ffb67634be3d959f3ff793","A3","batch1","","660","tol_tohand","","","","tol_peg_1","660","660","0","[[0,0,0],[2,0],[3]]","3","[[3,2,0],[0,0],[1]]","20","0","","","","","","6","","","","","","","","",""
"","","","","","single-stim-button","316","559863","0.0-2.0-71.2-1.2","63ffb67634be3d959f3ff793","A3","batch1","","422","tol_toboard","","","","tol_peg_2","422","422","0","[[0,0,0],[2,1],[3]]","3","[[3,2,0],[0,0],[1]]","20","0","","","","","","6","","","","","","","","",""
"","","","","","single-stim-button","317","560569","0.0-2.0-71.3-0.3","63ffb67634be3d959f3ff793","A3","batch1","","705","tol_tohand","","","","tol_peg_3","705","705","0","[[0,0,0],[2,1],[0]]","4","[[3,2,0],[0,0],[1]]","20","0","","","","","","6","","","","","","","","",""
"","","","","","single-stim-button","318","561505","0.0-2.0-71.3-1.3","63ffb67634be3d959f3ff793","A3","batch1","","935","tol_toboard","","","","tol_peg_1","935","935","0","[[3,0,0],[2,1],[0]]","4","[[3,2,0],[0,0],[1]]","20","0","","","","","","6","","","","","","","","",""
"","","","","","single-stim-button","319","562713","0.0-2.0-71.4-0.4","63ffb67634be3d959f3ff793","A3","batch1","","1207","tol_tohand","","","","tol_peg_2","1207","1207","0","[[3,0,0],[2,0],[0]]","5","[[3,2,0],[0,0],[1]]","20","0","","","","","","6","","","","","","","","",""
"","","","","","single-stim-button","320","563319","0.0-2.0-71.4-1.4","63ffb67634be3d959f3ff793","A3","batch1","","605","tol_toboard","","","","tol_peg_3","605","605","0","[[3,0,0],[2,0],[1]]","5","[[3,2,0],[0,0],[1]]","20","0","","","","","","6","","","","","","","","",""
"","","","","","single-stim-button","321","563979","0.0-2.0-71.5-0.5","63ffb67634be3d959f3ff793","A3","batch1","","659","tol_tohand","","","","tol_peg_2","659","659","0","[[3,0,0],[0,0],[1]]","6","[[3,2,0],[0,0],[1]]","20","0","","","","","","6","","","","","","","","",""
"","","","","","single-stim-button","322","564607","0.0-2.0-71.5-1.5","63ffb67634be3d959f3ff793","A3","batch1","","628","tol_toboard","","","","tol_peg_1","628","628","0","[[3,2,0],[0,0],[1]]","6","[[3,2,0],[0,0],[1]]","20","0","","","","","","6","","","","","","","","",""
"","","","","","poldrack-single-stim","323","565608","0.0-2.0-72.0","63ffb67634be3d959f3ff793","A3","batch1","","-1","tol_feedback","","","true","","1000","1000","500","","","","","","-1","none","true","6906","10763","","","","","","","","","",""
"","","","","","html-button-response","324","566454","0.0-2.0-73.0","63ffb67634be3d959f3ff793","A3","batch1","","844.3999999761581","tol_trial_num","<div class = centerbox><p class = center-block-text>problem <strong>22</strong> out of 25 problems</p></div>","0","","","","","","","","","","","","","","","","","","","","","","","","",""
"","","","","","single-stim-button","325","572422","0.0-2.0-74.0-0.0","63ffb67634be3d959f3ff793","A3","batch1","","5968","tol_tohand","","","","tol_peg_1","5968","5968","0","[[0,0,0],[2,3],[0]]","1","[[0,0,0],[1,2],[3]]","21","0","","","","","","6","","","","","","","","",""
"","","","","","single-stim-button","326","573151","0.0-2.0-74.0-1.0","63ffb67634be3d959f3ff793","A3","batch1","","729","tol_toboard","","","","tol_peg_3","729","729","0","[[0,0,0],[2,3],[1]]","1","[[0,0,0],[1,2],[3]]","21","0","","","","","","6","","","","","","","","",""
"","","","","","single-stim-button","327","573631","0.0-2.0-74.1-0.1","63ffb67634be3d959f3ff793","A3","batch1","","479","tol_tohand","","","","tol_peg_2","479","479","0","[[0,0,0],[2,0],[1]]","2","[[0,0,0],[1,2],[3]]","21","0","","","","","","6","","","","","","","","",""
"","","","","","single-stim-button","328","574259","0.0-2.0-74.1-1.1","63ffb67634be3d959f3ff793","A3","batch1","","627","tol_toboard","","","","tol_peg_1","627","627","0","[[3,0,0],[2,0],[1]]","2","[[0,0,0],[1,2],[3]]","21","0","","","","","","6","","","","","","","","",""
"","","","","","single-stim-button","329","575281","0.0-2.0-74.2-0.2","63ffb67634be3d959f3ff793","A3","batch1","","1021","tol_tohand","","","","tol_peg_2","1021","1021","0","[[3,0,0],[0,0],[1]]","3","[[0,0,0],[1,2],[3]]","21","0","","","","","","6","","","","","","","","",""
"","","","","","single-stim-button","330","575815","0.0-2.0-74.2-1.2","63ffb67634be3d959f3ff793","A3","batch1","","533","tol_toboard","","","","tol_peg_1","533","533","0","[[3,2,0],[0,0],[1]]","3","[[0,0,0],[1,2],[3]]","21","0","","","","","","6","","","","","","","","",""
"","","","","","single-stim-button","331","576333","0.0-2.0-74.3-0.3","63ffb67634be3d959f3ff793","A3","batch1","","517","tol_tohand","","","","tol_peg_3","517","517","0","[[3,2,0],[0,0],[0]]","4","[[0,0,0],[1,2],[3]]","21","0","","","","","","6","","","","","","","","",""
"","","","","","single-stim-button","332","576922","0.0-2.0-74.3-1.3","63ffb67634be3d959f3ff793","A3","batch1","","588","tol_toboard","","","","tol_peg_2","588","588","0","[[3,2,0],[1,0],[0]]","4","[[0,0,0],[1,2],[3]]","21","0","","","","","","6","","","","","","","","",""
"","","","","","single-stim-button","333","577464","0.0-2.0-74.4-0.4","63ffb67634be3d959f3ff793","A3","batch1","","541","tol_tohand","","","","tol_peg_1","541","541","0","[[3,0,0],[1,0],[0]]","5","[[0,0,0],[1,2],[3]]","21","0","","","","","","6","","","","","","","","",""
"","","","","","single-stim-button","334","577982","0.0-2.0-74.4-1.4","63ffb67634be3d959f3ff793","A3","batch1","","518","tol_toboard","","","","tol_peg_2","518","518","0","[[3,0,0],[1,2],[0]]","5","[[0,0,0],[1,2],[3]]","21","0","","","","","","6","","","","","","","","",""
"","","","","","single-stim-button","335","578485","0.0-2.0-74.5-0.5","63ffb67634be3d959f3ff793","A3","batch1","","503","tol_tohand","","","","tol_peg_1","503","503","0","[[0,0,0],[1,2],[0]]","6","[[0,0,0],[1,2],[3]]","21","0","","","","","","6","","","","","","","","",""
"","","","","","single-stim-button","336","579035","0.0-2.0-74.5-1.5","63ffb67634be3d959f3ff793","A3","batch1","","549","tol_toboard","","","","tol_peg_3","549","549","0","[[0,0,0],[1,2],[3]]","6","[[0,0,0],[1,2],[3]]","21","0","","","","","","6","","","","","","","","",""
"","","","","","poldrack-single-stim","337","580036","0.0-2.0-75.0","63ffb67634be3d959f3ff793","A3","batch1","","-1","tol_feedback","","","true","","1000","1000","500","","","","","","-1","none","true","5968","9029","","","","","","","","","",""
"","","","","","html-button-response","338","580778","0.0-2.0-76.0","63ffb67634be3d959f3ff793","A3","batch1","","740.7000000476837","tol_trial_num","<div class = centerbox><p class = center-block-text>problem <strong>23</strong> out of 25 problems</p></div>","0","","","","","","","","","","","","","","","","","","","","","","","","",""
"","","","","","single-stim-button","339","583935","0.0-2.0-77.0-0.0","63ffb67634be3d959f3ff793","A3","batch1","","3157","tol_tohand","","","","tol_peg_1","3157","3157","0","[[1,0,0],[3,0],[0]]","1","[[1,3,2],[0,0],[0]]","22","0","","","","","","3","","","","","","","","",""
"","","","","","single-stim-button","340","584783","0.0-2.0-77.0-1.0","63ffb67634be3d959f3ff793","A3","batch1","","847","tol_toboard","","","","tol_peg_3","847","847","0","[[1,0,0],[3,0],[2]]","1","[[1,3,2],[0,0],[0]]","22","0","","","","","","3","","","","","","","","",""
"","","","","","single-stim-button","341","585279","0.0-2.0-77.1-0.1","63ffb67634be3d959f3ff793","A3","batch1","","495","tol_tohand","","","","tol_peg_2","495","495","0","[[1,0,0],[0,0],[2]]","2","[[1,3,2],[0,0],[0]]","22","0","","","","","","3","","","","","","","","",""
"","","","","","single-stim-button","342","585789","0.0-2.0-77.1-1.1","63ffb67634be3d959f3ff793","A3","batch1","","509","tol_toboard","","","","tol_peg_1","509","509","0","[[1,3,0],[0,0],[2]]","2","[[1,3,2],[0,0],[0]]","22","0","","","","","","3","","","","","","","","",""
"","","","","","single-stim-button","343","586364","0.0-2.0-77.2-0.2","63ffb67634be3d959f3ff793","A3","batch1","","573","tol_tohand","","","","tol_peg_3","573","573","0","[[1,3,0],[0,0],[0]]","3","[[1,3,2],[0,0],[0]]","22","0","","","","","","3","","","","","","","","",""
"","","","","","single-stim-button","344","587037","0.0-2.0-77.2-1.2","63ffb67634be3d959f3ff793","A3","batch1","","673","tol_toboard","","","","tol_peg_1","673","673","0","[[1,3,2],[0,0],[0]]","3","[[1,3,2],[0,0],[0]]","22","0","","","","","","3","","","","","","","","",""
"","","","","","poldrack-single-stim","345","588044","0.0-2.0-78.0","63ffb67634be3d959f3ff793","A3","batch1","","-1","tol_feedback","","","true","","1000","1000","500","","","","","","-1","none","true","3157","4225","","","","","","","","","",""
"","","","","","html-button-response","346","589073","0.0-2.0-79.0","63ffb67634be3d959f3ff793","A3","batch1","","1028.1000000238419","tol_trial_num","<div class = centerbox><p class = center-block-text>problem <strong>24</strong> out of 25 problems</p></div>","0","","","","","","","","","","","","","","","","","","","","","","","","",""
"","","","","","single-stim-button","347","606137","0.0-2.0-80.0-0.0","63ffb67634be3d959f3ff793","A3","batch1","","17064","tol_tohand","","","","tol_peg_2","17064","17064","0","[[0,0,0],[2,0],[1]]","1","[[2,0,0],[3,0],[1]]","23","0","","","","","","7","","","","","","","","",""
"","","","","","single-stim-button","348","606977","0.0-2.0-80.0-1.0","63ffb67634be3d959f3ff793","A3","batch1","","839","tol_toboard","","","","tol_peg_1","839","839","0","[[3,0,0],[2,0],[1]]","1","[[2,0,0],[3,0],[1]]","23","0","","","","","","7","","","","","","","","",""
"","","","","","single-stim-button","349","611909","0.0-2.0-80.1-0.1","63ffb67634be3d959f3ff793","A3","batch1","","4932","tol_tohand","","","","tol_peg_2","4932","4932","0","[[3,0,0],[0,0],[1]]","2","[[2,0,0],[3,0],[1]]","23","0","","","","","","7","","","","","","","","",""
"","","","","","single-stim-button","350","612382","0.0-2.0-80.1-1.1","63ffb67634be3d959f3ff793","A3","batch1","","473","tol_toboard","","","","tol_peg_1","473","473","0","[[3,2,0],[0,0],[1]]","2","[[2,0,0],[3,0],[1]]","23","0","","","","","","7","","","","","","","","",""
"","","","","","single-stim-button","351","613292","0.0-2.0-80.2-0.2","63ffb67634be3d959f3ff793","A3","batch1","","909","tol_tohand","","","","tol_peg_3","909","909","0","[[3,2,0],[0,0],[0]]","3","[[2,0,0],[3,0],[1]]","23","0","","","","","","7","","","","","","","","",""
"","","","","","single-stim-button","352","613755","0.0-2.0-80.2-1.2","63ffb67634be3d959f3ff793","A3","batch1","","463","tol_toboard","","","","tol_peg_2","463","463","0","[[3,2,0],[1,0],[0]]","3","[[2,0,0],[3,0],[1]]","23","0","","","","","","7","","","","","","","","",""
"","","","","","single-stim-button","353","614258","0.0-2.0-80.3-0.3","63ffb67634be3d959f3ff793","A3","batch1","","502","tol_tohand","","","","tol_peg_1","502","502","0","[[3,0,0],[1,0],[0]]","4","[[2,0,0],[3,0],[1]]","23","0","","","","","","7","","","","","","","","",""
"","","","","","single-stim-button","354","614682","0.0-2.0-80.3-1.3","63ffb67634be3d959f3ff793","A3","batch1","","424","tol_toboard","","","","tol_peg_2","424","424","0","[[3,0,0],[1,2],[0]]","4","[[2,0,0],[3,0],[1]]","23","0","","","","","","7","","","","","","","","",""
"","","","","","single-stim-button","355","615207","0.0-2.0-80.4-0.4","63ffb67634be3d959f3ff793","A3","batch1","","524","tol_tohand","","","","tol_peg_1","524","524","0","[[0,0,0],[1,2],[0]]","5","[[2,0,0],[3,0],[1]]","23","0","","","","","","7","","","","","","","","",""
"","","","","","single-stim-button","356","615860","0.0-2.0-80.4-1.4","63ffb67634be3d959f3ff793","A3","batch1","","652","tol_toboard","","","","tol_peg_3","652","652","0","[[0,0,0],[1,2],[3]]","5","[[2,0,0],[3,0],[1]]","23","0","","","","","","7","","","","","","","","",""
