"success","timeout","failed_images","failed_audio","failed_video","trial_type","trial_index","time_elapsed","internal_node_id","subject_id","study_id","session_id","view_history","rt","task","stimulus","response","correct","mouse_click","stim_duration","block_duration","timing_post_trial","current_position","tol_num_moves_made","tol_target","tol_problem_id","tol_rt","key_press","possible_responses","tol_correct","preplanning","tol_rt_per_trial","tol_min_moves","answer","item","fiar_detect_rt","fiar_detect_correct","total_correct_fiar_detect","post_trial_gap","choices","spm_correct","spm_rt"
"true","false","[]","[]","[]","preload","0","890","0.0-0.0","6400d916e410c86255a45836","E1","batch5","","","","","","","","","","","","","","","","","","","","","","","","","","","","","",""
"true","","","","","fullscreen","1","25686","0.0-1.0-0.0","6400d916e410c86255a45836","E1","batch5","","","","","","","","","","","","","","","","","","","","","","","","","","","","","",""
"true","","","","","fullscreen","2","29979","0.0-2.0-0.0","6400d916e410c86255a45836","E1","batch5","","","","","","","","","","","","","","","","","","","","","","","","","","","","","",""
"","","","","","instructions","3","83039","0.0-2.0-1.0-0.0-0.0","6400d916e410c86255a45836","E1","batch5","[{""page_index"":0,""viewing_time"":11602.300000071526},{""page_index"":1,""viewing_time"":7271.600000023842},{""page_index"":2,""viewing_time"":3695.6999999284744},{""page_index"":3,""viewing_time"":7096},{""page_index"":4,""viewing_time"":3608.3000000715256},{""page_index"":5,""viewing_time"":16007.699999928474},{""page_index"":6,""viewing_time"":3784.8000000715256}]","53066.700000047684","tol-instructions","","","","","","","","","","","","","","","","","","","","","","","","","","",""
"","","","","","html-button-response","4","84039","0.0-2.0-1.0-1.0-0.0","6400d916e410c86255a45836","E1","batch5","","999","tol_enter_quiz","<p class=block-text> Let's answer a few questions <br>","0","","","","","","","","","","","","","","","","","","","","","","","","",""
"","","","","","html-button-response","5","90790","0.0-2.0-1.0-1.0-1.0","6400d916e410c86255a45836","E1","batch5","","6750.600000023842","tol_quiz","<p class = block-text>True or False: You can only move the ball on top of a peg. <br></p>","0","true","","","","","","","","","","","","","","","","","","","","","","","",""
"","","","","","html-button-response","6","92446","0.0-2.0-1.0-1.0-2.0","6400d916e410c86255a45836","E1","batch5","","1655.1000000238419","tol_quiz_feedback","<p class = block-text>Correct! You can only move the ball on top of a peg.</p>","0","","","","","","","","","","","","","","","","","","","","","","","","",""
"","","","","","html-button-response","7","95470","0.0-2.0-1.0-1.0-3.0","6400d916e410c86255a45836","E1","batch5","","3023.600000023842","tol_quiz","<p class = block-text>True or False: You should try to match your board with the target board with fewest moves possible. <br></p>","0","true","","","","","","","","","","","","","","","","","","","","","","","",""
"","","","","","html-button-response","8","96390","0.0-2.0-1.0-1.0-4.0","6400d916e410c86255a45836","E1","batch5","","919.2999999523163","tol_quiz_feedback","<p class = block-text>Correct! </p>","0","","","","","","","","","","","","","","","","","","","","","","","","",""
"","","","","","html-button-response","9","98014","0.0-2.0-2.0","6400d916e410c86255a45836","E1","batch5","","1623","","<p class=block-text> Now that you've understood the game, let's practice a few easier examples before we start!<br> <br>","0","","","","","","","","","","","","","","","","","","","","","","","","",""
"","","","","","single-stim-button","10","102064","0.0-2.0-3.0-0.0","6400d916e410c86255a45836","E1","batch5","","4048","tol_practice","","","","tol_peg_2","4048","4048","0","[[1,2,0],[0,0],[0]]","1","[[1,2,0],[0,0],[3]]","practice","4048","","","","","","","","","","","","","","",""
"","","","","","single-stim-button","11","102942","0.0-2.0-3.0-1.0","6400d916e410c86255a45836","E1","batch5","","878","tol_practice","","","","tol_peg_3","878","878","0","[[1,2,0],[0,0],[3]]","1","[[1,2,0],[0,0],[3]]","practice","878","","","","","","","","","","","","","","",""
"","","","","","poldrack-single-stim","12","103944","0.0-2.0-4.0","6400d916e410c86255a45836","E1","batch5","","-1","tol_feedback","","","true","","1000","1000","500","","","","","","-1","none","true","","0","","","","","","","","","",""
"","","","","","single-stim-button","13","107302","0.0-2.0-5.0-0.0","6400d916e410c86255a45836","E1","batch5","","3358","tol_practice","","","","tol_peg_1","3358","3358","0","[[1,0,0],[3,0],[0]]","2","[[0,0,0],[3,1],[2]]","practice","3358","","","","","","","","","","","","","","",""
"","","","","","single-stim-button","14","108463","0.0-2.0-5.0-1.0","6400d916e410c86255a45836","E1","batch5","","1159","tol_practice","","","","tol_peg_3","1159","1159","0","[[1,0,0],[3,0],[2]]","2","[[0,0,0],[3,1],[2]]","practice","1159","","","","","","","","","","","","","","",""
"","","","","","single-stim-button","15","109175","0.0-2.0-5.1-0.1","6400d916e410c86255a45836","E1","batch5","","711","tol_practice","","","","tol_peg_1","711","711","0","[[0,0,0],[3,0],[2]]","3","[[0,0,0],[3,1],[2]]","practice","711","","","","","","","","","","","","","","",""
"","","","","","single-stim-button","16","109918","0.0-2.0-5.1-1.1","6400d916e410c86255a45836","E1","batch5","","743","tol_practice","","","","tol_peg_2","743","743","0","[[0,0,0],[3,1],[2]]","3","[[0,0,0],[3,1],[2]]","practice","743","","","","","","","","","","","","","","",""
"","","","","","poldrack-single-stim","17","110922","0.0-2.0-6.0","6400d916e410c86255a45836","E1","batch5","","-1","tol_feedback","","","true","","1000","1000","500","","","","","","-1","none","true","","0","","","","","","","","","",""
"","","","","","single-stim-button","18","115350","0.0-2.0-7.0-0.0","6400d916e410c86255a45836","E1","batch5","","4428","tol_practice","","","","tol_peg_2","4428","4428","0","[[1,2,0],[0,0],[0]]","4","[[1,0,0],[2,0],[3]]","practice","4428","","","","","","","","","","","","","","",""
"","","","","","single-stim-button","19","116430","0.0-2.0-7.0-1.0","6400d916e410c86255a45836","E1","batch5","","1079","tol_practice","","","","tol_peg_3","1079","1079","0","[[1,2,0],[0,0],[3]]","4","[[1,0,0],[2,0],[3]]","practice","1079","","","","","","","","","","","","","","",""
"","","","","","single-stim-button","20","117174","0.0-2.0-7.1-0.1","6400d916e410c86255a45836","E1","batch5","","743","tol_practice","","","","tol_peg_1","743","743","0","[[1,0,0],[0,0],[3]]","5","[[1,0,0],[2,0],[3]]","practice","743","","","","","","","","","","","","","","",""
"","","","","","single-stim-button","21","118038","0.0-2.0-7.1-1.1","6400d916e410c86255a45836","E1","batch5","","864","tol_practice","","","","tol_peg_2","864","864","0","[[1,0,0],[2,0],[3]]","5","[[1,0,0],[2,0],[3]]","practice","864","","","","","","","","","","","","","","",""
"","","","","","poldrack-single-stim","22","119039","0.0-2.0-8.0","6400d916e410c86255a45836","E1","batch5","","-1","tol_feedback","","","true","","1000","1000","500","","","","","","-1","none","true","","0","","","","","","","","","",""
"","","","","","html-button-response","23","125469","0.0-2.0-9.0","6400d916e410c86255a45836","E1","batch5","","6422.299999952316","tol_instruction","<div class = centerbox><p class = center-block-text>Great job! You are done with practice trials<br>You are about to start official trials.<br> <br> Problem <strong>1</strong> out of 25 problems</p></div>","0","","","","","","","","","","","","","","","","","","","","","","","","",""
"","","","","","single-stim-button","24","130422","0.0-2.0-10.0-0.0","6400d916e410c86255a45836","E1","batch5","","3949","tol_tohand","","","","tol_peg_1","3949","3949","0","[[1,0,0],[3,0],[0]]","1","[[1,3,0],[2,0],[0]]","0","0","","","","","","3","","","","","","","","",""
"","","","","","single-stim-button","25","132078","0.0-2.0-10.0-1.0","6400d916e410c86255a45836","E1","batch5","","1655","tol_toboard","","","","tol_peg_3","1655","1655","0","[[1,0,0],[3,0],[2]]","1","[[1,3,0],[2,0],[0]]","0","0","","","","","","3","","","","","","","","",""
"","","","","","single-stim-button","26","132829","0.0-2.0-10.1-0.1","6400d916e410c86255a45836","E1","batch5","","751","tol_tohand","","","","tol_peg_2","751","751","0","[[1,0,0],[0,0],[2]]","2","[[1,3,0],[2,0],[0]]","0","0","","","","","","3","","","","","","","","",""
"","","","","","single-stim-button","27","133582","0.0-2.0-10.1-1.1","6400d916e410c86255a45836","E1","batch5","","751","tol_toboard","","","","tol_peg_1","751","751","0","[[1,3,0],[0,0],[2]]","2","[[1,3,0],[2,0],[0]]","0","0","","","","","","3","","","","","","","","",""
"","","","","","single-stim-button","28","135502","0.0-2.0-10.2-0.2","6400d916e410c86255a45836","E1","batch5","","1919","tol_tohand","","","","tol_peg_3","1919","1919","0","[[1,3,0],[0,0],[0]]","3","[[1,3,0],[2,0],[0]]","0","0","","","","","","3","","","","","","","","",""
"","","","","","single-stim-button","29","136310","0.0-2.0-10.2-1.2","6400d916e410c86255a45836","E1","batch5","","807","tol_toboard","","","","tol_peg_2","807","807","0","[[1,3,0],[2,0],[0]]","3","[[1,3,0],[2,0],[0]]","0","0","","","","","","3","","","","","","","","",""
"","","","","","poldrack-single-stim","30","137322","0.0-2.0-11.0","6400d916e410c86255a45836","E1","batch5","","-1","tol_feedback","","","true","","1000","1000","500","","","","","","-1","none","true","3949","6619","","","","","","","","","",""
"","","","","","html-button-response","31","138974","0.0-2.0-12.0","6400d916e410c86255a45836","E1","batch5","","1651","tol_trial_num","<div class = centerbox><p class = center-block-text>problem <strong>2</strong> out of 25 problems</p></div>","0","","","","","","","","","","","","","","","","","","","","","","","","",""
"","","","","","single-stim-button","32","147117","0.0-2.0-13.0-0.0","6400d916e410c86255a45836","E1","batch5","","8143","tol_tohand","","","","tol_peg_1","8143","8143","0","[[1,0,0],[3,0],[0]]","1","[[2,1,3],[0,0],[0]]","1","0","","","","","","5","","","","","","","","",""
"","","","","","single-stim-button","33","151253","0.0-2.0-13.0-1.0","6400d916e410c86255a45836","E1","batch5","","4135","tol_toboard","","","","tol_peg_3","4135","4135","0","[[1,0,0],[3,0],[2]]","1","[[2,1,3],[0,0],[0]]","1","0","","","","","","5","","","","","","","","",""
"","","","","","single-stim-button","34","152446","0.0-2.0-13.1-0.1","6400d916e410c86255a45836","E1","batch5","","1192","tol_tohand","","","","tol_peg_1","1192","1192","0","[[0,0,0],[3,0],[2]]","2","[[2,1,3],[0,0],[0]]","1","0","","","","","","5","","","","","","","","",""
"","","","","","single-stim-button","35","153141","0.0-2.0-13.1-1.1","6400d916e410c86255a45836","E1","batch5","","695","tol_toboard","","","","tol_peg_2","695","695","0","[[0,0,0],[3,1],[2]]","2","[[2,1,3],[0,0],[0]]","1","0","","","","","","5","","","","","","","","",""
"","","","","","single-stim-button","36","153725","0.0-2.0-13.2-0.2","6400d916e410c86255a45836","E1","batch5","","584","tol_tohand","","","","tol_peg_3","584","584","0","[[0,0,0],[3,1],[0]]","3","[[2,1,3],[0,0],[0]]","1","0","","","","","","5","","","","","","","","",""
"","","","","","single-stim-button","37","154774","0.0-2.0-13.2-1.2","6400d916e410c86255a45836","E1","batch5","","1047","tol_toboard","","","","tol_peg_1","1047","1047","0","[[2,0,0],[3,1],[0]]","3","[[2,1,3],[0,0],[0]]","1","0","","","","","","5","","","","","","","","",""
"","","","","","single-stim-button","38","156301","0.0-2.0-13.3-0.3","6400d916e410c86255a45836","E1","batch5","","1527","tol_tohand","","","","tol_peg_2","1527","1527","0","[[2,0,0],[3,0],[0]]","4","[[2,1,3],[0,0],[0]]","1","0","","","","","","5","","","","","","","","",""
"","","","","","single-stim-button","39","156965","0.0-2.0-13.3-1.3","6400d916e410c86255a45836","E1","batch5","","664","tol_toboard","","","","tol_peg_1","664","664","0","[[2,1,0],[3,0],[0]]","4","[[2,1,3],[0,0],[0]]","1","0","","","","","","5","","","","","","","","",""
"","","","","","single-stim-button","40","157629","0.0-2.0-13.4-0.4","6400d916e410c86255a45836","E1","batch5","","664","tol_tohand","","","","tol_peg_2","664","664","0","[[2,1,0],[0,0],[0]]","5","[[2,1,3],[0,0],[0]]","1","0","","","","","","5","","","","","","","","",""
"","","","","","single-stim-button","41","158149","0.0-2.0-13.4-1.4","6400d916e410c86255a45836","E1","batch5","","520","tol_toboard","","","","tol_peg_1","520","520","0","[[2,1,3],[0,0],[0]]","5","[[2,1,3],[0,0],[0]]","1","0","","","","","","5","","","","","","","","",""
"","","","","","poldrack-single-stim","42","159152","0.0-2.0-14.0","6400d916e410c86255a45836","E1","batch5","","-1","tol_feedback","","","true","","1000","1000","500","","","","","","-1","none","true","8143","12110","","","","","","","","","",""
"","","","","","html-button-response","43","160213","0.0-2.0-15.0","6400d916e410c86255a45836","E1","batch5","","1060.7000000476837","tol_trial_num","<div class = centerbox><p class = center-block-text>problem <strong>3</strong> out of 25 problems</p></div>","0","","","","","","","","","","","","","","","","","","","","","","","","",""
"","","","","","single-stim-button","44","165622","0.0-2.0-16.0-0.0","6400d916e410c86255a45836","E1","batch5","","5408","tol_tohand","","","","tol_peg_1","5408","5408","0","[[2,0,0],[0,0],[1]]","1","[[1,2,0],[3,0],[0]]","2","0","","","","","","4","","","","","","","","",""
"","","","","","single-stim-button","45","166517","0.0-2.0-16.0-1.0","6400d916e410c86255a45836","E1","batch5","","895","tol_toboard","","","","tol_peg_2","895","895","0","[[2,0,0],[3,0],[1]]","1","[[1,2,0],[3,0],[0]]","2","0","","","","","","4","","","","","","","","",""
"","","","","","single-stim-button","46","167909","0.0-2.0-16.1-0.1","6400d916e410c86255a45836","E1","batch5","","1391","tol_tohand","","","","tol_peg_1","1391","1391","0","[[0,0,0],[3,0],[1]]","2","[[1,2,0],[3,0],[0]]","2","0","","","","","","4","","","","","","","","",""
"","","","","","single-stim-button","47","168582","0.0-2.0-16.1-1.1","6400d916e410c86255a45836","E1","batch5","","671","tol_toboard","","","","tol_peg_2","671","671","0","[[0,0,0],[3,2],[1]]","2","[[1,2,0],[3,0],[0]]","2","0","","","","","","4","","","","","","","","",""
"","","","","","single-stim-button","48","169237","0.0-2.0-16.2-0.2","6400d916e410c86255a45836","E1","batch5","","655","tol_tohand","","","","tol_peg_3","655","655","0","[[0,0,0],[3,2],[0]]","3","[[1,2,0],[3,0],[0]]","2","0","","","","","","4","","","","","","","","",""
"","","","","","single-stim-button","49","169998","0.0-2.0-16.2-1.2","6400d916e410c86255a45836","E1","batch5","","759","tol_toboard","","","","tol_peg_1","759","759","0","[[1,0,0],[3,2],[0]]","3","[[1,2,0],[3,0],[0]]","2","0","","","","","","4","","","","","","","","",""
"","","","","","single-stim-button","50","170869","0.0-2.0-16.3-0.3","6400d916e410c86255a45836","E1","batch5","","871","tol_tohand","","","","tol_peg_2","871","871","0","[[1,0,0],[3,0],[0]]","4","[[1,2,0],[3,0],[0]]","2","0","","","","","","4","","","","","","","","",""
"","","","","","single-stim-button","51","171797","0.0-2.0-16.3-1.3","6400d916e410c86255a45836","E1","batch5","","927","tol_toboard","","","","tol_peg_1","927","927","0","[[1,2,0],[3,0],[0]]","4","[[1,2,0],[3,0],[0]]","2","0","","","","","","4","","","","","","","","",""
"","","","","","poldrack-single-stim","52","172806","0.0-2.0-17.0","6400d916e410c86255a45836","E1","batch5","","-1","tol_feedback","","","true","","1000","1000","500","","","","","","-1","none","true","5408","8325","","","","","","","","","",""
"","","","","","html-button-response","53","175101","0.0-2.0-18.0","6400d916e410c86255a45836","E1","batch5","","2294","tol_trial_num","<div class = centerbox><p class = center-block-text>problem <strong>4</strong> out of 25 problems</p></div>","0","","","","","","","","","","","","","","","","","","","","","","","","",""
"","","","","","single-stim-button","54","179653","0.0-2.0-19.0-0.0","6400d916e410c86255a45836","E1","batch5","","4552","tol_tohand","","","","tol_peg_2","4552","4552","0","[[3,0,0],[2,0],[0]]","1","[[3,0,0],[1,0],[2]]","3","0","","","","","","3","","","","","","","","",""
"","","","","","single-stim-button","55","180261","0.0-2.0-19.0-1.0","6400d916e410c86255a45836","E1","batch5","","607","tol_toboard","","","","tol_peg_1","607","607","0","[[3,1,0],[2,0],[0]]","1","[[3,0,0],[1,0],[2]]","3","0","","","","","","3","","","","","","","","",""
"","","","","","single-stim-button","56","180966","0.0-2.0-19.1-0.1","6400d916e410c86255a45836","E1","batch5","","704","tol_tohand","","","","tol_peg_2","704","704","0","[[3,1,0],[0,0],[0]]","2","[[3,0,0],[1,0],[2]]","3","0","","","","","","3","","","","","","","","",""
"","","","","","single-stim-button","57","181782","0.0-2.0-19.1-1.1","6400d916e410c86255a45836","E1","batch5","","816","tol_toboard","","","","tol_peg_3","816","816","0","[[3,1,0],[0,0],[2]]","2","[[3,0,0],[1,0],[2]]","3","0","","","","","","3","","","","","","","","",""
"","","","","","single-stim-button","58","182309","0.0-2.0-19.2-0.2","6400d916e410c86255a45836","E1","batch5","","527","tol_tohand","","","","tol_peg_1","527","527","0","[[3,0,0],[0,0],[2]]","3","[[3,0,0],[1,0],[2]]","3","0","","","","","","3","","","","","","","","",""
"","","","","","single-stim-button","59","182926","0.0-2.0-19.2-1.2","6400d916e410c86255a45836","E1","batch5","","615","tol_toboard","","","","tol_peg_2","615","615","0","[[3,0,0],[1,0],[2]]","3","[[3,0,0],[1,0],[2]]","3","0","","","","","","3","","","","","","","","",""
"","","","","","poldrack-single-stim","60","183931","0.0-2.0-20.0","6400d916e410c86255a45836","E1","batch5","","-1","tol_feedback","","","true","","1000","1000","500","","","","","","-1","none","true","4552","5783","","","","","","","","","",""
"","","","","","html-button-response","61","185205","0.0-2.0-21.0","6400d916e410c86255a45836","E1","batch5","","1274.1999999284744","tol_trial_num","<div class = centerbox><p class = center-block-text>problem <strong>5</strong> out of 25 problems</p></div>","0","","","","","","","","","","","","","","","","","","","","","","","","",""
"","","","","","single-stim-button","62","193541","0.0-2.0-22.0-0.0","6400d916e410c86255a45836","E1","batch5","","8334","tol_tohand","","","","tol_peg_3","8334","8334","0","[[1,0,0],[2,0],[0]]","1","[[0,0,0],[1,2],[3]]","4","0","","","","","","7","","","","","","","","",""
"","","","","","single-stim-button","63","194597","0.0-2.0-22.0-1.0","6400d916e410c86255a45836","E1","batch5","","1056","tol_toboard","","","","tol_peg_1","1056","1056","0","[[1,3,0],[2,0],[0]]","1","[[0,0,0],[1,2],[3]]","4","0","","","","","","7","","","","","","","","",""
"","","","","","single-stim-button","64","195391","0.0-2.0-22.1-0.1","6400d916e410c86255a45836","E1","batch5","","792","tol_tohand","","","","tol_peg_2","792","792","0","[[1,3,0],[0,0],[0]]","2","[[0,0,0],[1,2],[3]]","4","0","","","","","","7","","","","","","","","",""
"","","","","","single-stim-button","65","196493","0.0-2.0-22.1-1.1","6400d916e410c86255a45836","E1","batch5","","1102","tol_toboard","","","","tol_peg_3","1102","1102","0","[[1,3,0],[0,0],[2]]","2","[[0,0,0],[1,2],[3]]","4","0","","","","","","7","","","","","","","","",""
"","","","","","single-stim-button","66","203598","0.0-2.0-22.2-0.2","6400d916e410c86255a45836","E1","batch5","","7103","tol_tohand","","","","tol_peg_1","7103","7103","0","[[1,0,0],[0,0],[2]]","3","[[0,0,0],[1,2],[3]]","4","0","","","","","","7","","","","","","","","",""
"","","","","","single-stim-button","67","204325","0.0-2.0-22.2-1.2","6400d916e410c86255a45836","E1","batch5","","727","tol_toboard","","","","tol_peg_2","727","727","0","[[1,0,0],[3,0],[2]]","3","[[0,0,0],[1,2],[3]]","4","0","","","","","","7","","","","","","","","",""
"","","","","","single-stim-button","68","208982","0.0-2.0-22.3-0.3","6400d916e410c86255a45836","E1","batch5","","4656","tol_tohand","","","","tol_peg_1","4656","4656","0","[[0,0,0],[3,0],[2]]","4","[[0,0,0],[1,2],[3]]","4","0","","","","","","7","","","","","","","","",""
"","","","","","single-stim-button","69","210381","0.0-2.0-22.3-1.3","6400d916e410c86255a45836","E1","batch5","","1399","tol_toboard","","","","tol_peg_2","1399","1399","0","[[0,0,0],[3,1],[2]]","4","[[0,0,0],[1,2],[3]]","4","0","","","","","","7","","","","","","","","",""
"","","","","","single-stim-button","70","210846","0.0-2.0-22.4-0.4","6400d916e410c86255a45836","E1","batch5","","463","tol_tohand","","","","tol_peg_3","463","463","0","[[0,0,0],[3,1],[0]]","5","[[0,0,0],[1,2],[3]]","4","0","","","","","","7","","","","","","","","",""
"","","","","","single-stim-button","71","211518","0.0-2.0-22.4-1.4","6400d916e410c86255a45836","E1","batch5","","671","tol_toboard","","","","tol_peg_1","671","671","0","[[2,0,0],[3,1],[0]]","5","[[0,0,0],[1,2],[3]]","4","0","","","","","","7","","","","","","","","",""
"","","","","","single-stim-button","72","213917","0.0-2.0-22.5-0.5","6400d916e410c86255a45836","E1","batch5","","2399","tol_tohand","","","","tol_peg_2","2399","2399","0","[[2,0,0],[3,0],[0]]","6","[[0,0,0],[1,2],[3]]","4","0","","","","","","7","","","","","","","","",""
"","","","","","single-stim-button","73","214485","0.0-2.0-22.5-1.5","6400d916e410c86255a45836","E1","batch5","","567","tol_toboard","","","","tol_peg_1","567","567","0","[[2,1,0],[3,0],[0]]","6","[[0,0,0],[1,2],[3]]","4","0","","","","","","7","","","","","","","","",""
"","","","","","single-stim-button","74","215061","0.0-2.0-22.6-0.6","6400d916e410c86255a45836","E1","batch5","","575","tol_tohand","","","","tol_peg_2","575","575","0","[[2,1,0],[0,0],[0]]","7","[[0,0,0],[1,2],[3]]","4","0","","","","","","7","","","","","","","","",""
"","","","","","single-stim-button","75","215566","0.0-2.0-22.6-1.6","6400d916e410c86255a45836","E1","batch5","","503","tol_toboard","","","","tol_peg_3","503","503","0","[[2,1,0],[0,0],[3]]","7","[[0,0,0],[1,2],[3]]","4","0","","","","","","7","","","","","","","","",""
"","","","","","single-stim-button","76","216085","0.0-2.0-22.7-0.7","6400d916e410c86255a45836","E1","batch5","","519","tol_tohand","","","","tol_peg_1","519","519","0","[[2,0,0],[0,0],[3]]","8","[[0,0,0],[1,2],[3]]","4","0","","","","","","7","","","","","","","","",""
"","","","","","single-stim-button","77","216517","0.0-2.0-22.7-1.7","6400d916e410c86255a45836","E1","batch5","","432","tol_toboard","","","","tol_peg_2","432","432","0","[[2,0,0],[1,0],[3]]","8","[[0,0,0],[1,2],[3]]","4","0","","","","","","7","","","","","","","","",""
"","","","","","single-stim-button","78","216949","0.0-2.0-22.8-0.8","6400d916e410c86255a45836","E1","batch5","","430","tol_tohand","","","","tol_peg_1","430","430","0","[[0,0,0],[1,0],[3]]","9","[[0,0,0],[1,2],[3]]","4","0","","","","","","7","","","","","","","","",""
"","","","","","single-stim-button","79","217341","0.0-2.0-22.8-1.8","6400d916e410c86255a45836","E1","batch5","","392","tol_toboard","","","","tol_peg_2","392","392","0","[[0,0,0],[1,2],[3]]","9","[[0,0,0],[1,2],[3]]","4","0","","","","","","7","","","","","","","","",""
"","","","","","poldrack-single-stim","80","218356","0.0-2.0-23.0","6400d916e410c86255a45836","E1","batch5","","-1","tol_feedback","","","true","","1000","1000","500","","","","","","-1","none","true","8334","25271","","","","","","","","","",""
"","","","","","html-button-response","81","219445","0.0-2.0-24.0","6400d916e410c86255a45836","E1","batch5","","1088.7999999523163","tol_trial_num","<div class = centerbox><p class = center-block-text>problem <strong>6</strong> out of 25 problems</p></div>","0","","","","","","","","","","","","","","","","","","","","","","","","",""
"","","","","","single-stim-button","82","229957","0.0-2.0-25.0-0.0","6400d916e410c86255a45836","E1","batch5","","10511","tol_tohand","","","","tol_peg_3","10511","10511","0","[[0,0,0],[1,2],[0]]","1","[[1,0,0],[2,3],[0]]","5","0","","","","","","6","","","","","","","","",""
"","","","","","single-stim-button","83","230437","0.0-2.0-25.0-1.0","6400d916e410c86255a45836","E1","batch5","","479","tol_toboard","","","","tol_peg_1","479","479","0","[[3,0,0],[1,2],[0]]","1","[[1,0,0],[2,3],[0]]","5","0","","","","","","6","","","","","","","","",""
"","","","","","single-stim-button","84","231894","0.0-2.0-25.1-0.1","6400d916e410c86255a45836","E1","batch5","","1456","tol_tohand","","","","tol_peg_2","1456","1456","0","[[3,0,0],[1,0],[0]]","2","[[1,0,0],[2,3],[0]]","5","0","","","","","","6","","","","","","","","",""
"","","","","","single-stim-button","85","233381","0.0-2.0-25.1-1.1","6400d916e410c86255a45836","E1","batch5","","1487","tol_toboard","","","","tol_peg_1","1487","1487","0","[[3,2,0],[1,0],[0]]","2","[[1,0,0],[2,3],[0]]","5","0","","","","","","6","","","","","","","","",""
"","","","","","single-stim-button","86","233910","0.0-2.0-25.2-0.2","6400d916e410c86255a45836","E1","batch5","","528","tol_tohand","","","","tol_peg_2","528","528","0","[[3,2,0],[0,0],[0]]","3","[[1,0,0],[2,3],[0]]","5","0","","","","","","6","","","","","","","","",""
"","","","","","single-stim-button","87","235518","0.0-2.0-25.2-1.2","6400d916e410c86255a45836","E1","batch5","","1607","tol_toboard","","","","tol_peg_3","1607","1607","0","[[3,2,0],[0,0],[1]]","3","[[1,0,0],[2,3],[0]]","5","0","","","","","","6","","","","","","","","",""
"","","","","","single-stim-button","88","236005","0.0-2.0-25.3-0.3","6400d916e410c86255a45836","E1","batch5","","487","tol_tohand","","","","tol_peg_1","487","487","0","[[3,0,0],[0,0],[1]]","4","[[1,0,0],[2,3],[0]]","5","0","","","","","","6","","","","","","","","",""
"","","","","","single-stim-button","89","236453","0.0-2.0-25.3-1.3","6400d916e410c86255a45836","E1","batch5","","447","tol_toboard","","","","tol_peg_2","447","447","0","[[3,0,0],[2,0],[1]]","4","[[1,0,0],[2,3],[0]]","5","0","","","","","","6","","","","","","","","",""
"","","","","","single-stim-button","90","237077","0.0-2.0-25.4-0.4","6400d916e410c86255a45836","E1","batch5","","624","tol_tohand","","","","tol_peg_1","624","624","0","[[0,0,0],[2,0],[1]]","5","[[1,0,0],[2,3],[0]]","5","0","","","","","","6","","","","","","","","",""
"","","","","","single-stim-button","91","237565","0.0-2.0-25.4-1.4","6400d916e410c86255a45836","E1","batch5","","487","tol_toboard","","","","tol_peg_2","487","487","0","[[0,0,0],[2,3],[1]]","5","[[1,0,0],[2,3],[0]]","5","0","","","","","","6","","","","","","","","",""
"","","","","","single-stim-button","92","238045","0.0-2.0-25.5-0.5","6400d916e410c86255a45836","E1","batch5","","480","tol_tohand","","","","tol_peg_3","480","480","0","[[0,0,0],[2,3],[0]]","6","[[1,0,0],[2,3],[0]]","5","0","","","","","","6","","","","","","","","",""
"","","","","","single-stim-button","93","238589","0.0-2.0-25.5-1.5","6400d916e410c86255a45836","E1","batch5","","544","tol_toboard","","","","tol_peg_1","544","544","0","[[1,0,0],[2,3],[0]]","6","[[1,0,0],[2,3],[0]]","5","0","","","","","","6","","","","","","","","",""
"","","","","","poldrack-single-stim","94","239591","0.0-2.0-26.0","6400d916e410c86255a45836","E1","batch5","","-1","tol_feedback","","","true","","1000","1000","500","","","","","","-1","none","true","10511","14086","","","","","","","","","",""
"","","","","","html-button-response","95","240445","0.0-2.0-27.0","6400d916e410c86255a45836","E1","batch5","","854.2999999523163","tol_trial_num","<div class = centerbox><p class = center-block-text>problem <strong>7</strong> out of 25 problems</p></div>","0","","","","","","","","","","","","","","","","","","","","","","","","",""
"","","","","","single-stim-button","96","249446","0.0-2.0-28.0-0.0","6400d916e410c86255a45836","E1","batch5","","9000","tol_tohand","","","","tol_peg_1","9000","9000","0","[[2,0,0],[0,0],[3]]","1","[[1,2,0],[3,0],[0]]","6","0","","","","","","5","","","","","","","","",""
"","","","","","single-stim-button","97","250525","0.0-2.0-28.0-1.0","6400d916e410c86255a45836","E1","batch5","","1079","tol_toboard","","","","tol_peg_2","1079","1079","0","[[2,0,0],[1,0],[3]]","1","[[1,2,0],[3,0],[0]]","6","0","","","","","","5","","","","","","","","",""
"","","","","","single-stim-button","98","262325","0.0-2.0-28.1-0.1","6400d916e410c86255a45836","E1","batch5","","11799","tol_tohand","","","","tol_peg_3","11799","11799","0","[[2,0,0],[1,0],[0]]","2","[[1,2,0],[3,0],[0]]","6","0","","","","","","5","","","","","","","","",""
"","","","","","single-stim-button","99","263038","0.0-2.0-28.1-1.1","6400d916e410c86255a45836","E1","batch5","","712","tol_toboard","","","","tol_peg_1","712","712","0","[[2,3,0],[1,0],[0]]","2","[[1,2,0],[3,0],[0]]","6","0","","","","","","5","","","","","","","","",""
"","","","","","single-stim-button","100","265678","0.0-2.0-28.2-0.2","6400d916e410c86255a45836","E1","batch5","","2639","tol_tohand","","","","tol_peg_2","2639","2639","0","[[2,3,0],[0,0],[0]]","3","[[1,2,0],[3,0],[0]]","6","0","","","","","","5","","","","","","","","",""
"","","","","","single-stim-button","101","266557","0.0-2.0-28.2-1.2","6400d916e410c86255a45836","E1","batch5","","879","tol_toboard","","","","tol_peg_3","879","879","0","[[2,3,0],[0,0],[1]]","3","[[1,2,0],[3,0],[0]]","6","0","","","","","","5","","","","","","","","",""
"","","","","","single-stim-button","102","267398","0.0-2.0-28.3-0.3","6400d916e410c86255a45836","E1","batch5","","839","tol_tohand","","","","tol_peg_1","839","839","0","[[2,0,0],[0,0],[1]]","4","[[1,2,0],[3,0],[0]]","6","0","","","","","","5","","","","","","","","",""
"","","","","","single-stim-button","103","268333","0.0-2.0-28.3-1.3","6400d916e410c86255a45836","E1","batch5","","935","tol_toboard","","","","tol_peg_2","935","935","0","[[2,0,0],[3,0],[1]]","4","[[1,2,0],[3,0],[0]]","6","0","","","","","","5","","","","","","","","",""
"","","","","","single-stim-button","104","268886","0.0-2.0-28.4-0.4","6400d916e410c86255a45836","E1","batch5","","552","tol_tohand","","","","tol_peg_1","552","552","0","[[0,0,0],[3,0],[1]]","5","[[1,2,0],[3,0],[0]]","6","0","","","","","","5","","","","","","","","",""
"","","","","","single-stim-button","105","269510","0.0-2.0-28.4-1.4","6400d916e410c86255a45836","E1","batch5","","623","tol_toboard","","","","tol_peg_2","623","623","0","[[0,0,0],[3,2],[1]]","5","[[1,2,0],[3,0],[0]]","6","0","","","","","","5","","","","","","","","",""
"","","","","","single-stim-button","106","269933","0.0-2.0-28.5-0.5","6400d916e410c86255a45836","E1","batch5","","423","tol_tohand","","","","tol_peg_3","423","423","0","[[0,0,0],[3,2],[0]]","6","[[1,2,0],[3,0],[0]]","6","0","","","","","","5","","","","","","","","",""
"","","","","","single-stim-button","107","270317","0.0-2.0-28.5-1.5","6400d916e410c86255a45836","E1","batch5","","384","tol_toboard","","","","tol_peg_1","384","384","0","[[1,0,0],[3,2],[0]]","6","[[1,2,0],[3,0],[0]]","6","0","","","","","","5","","","","","","","","",""
"","","","","","single-stim-button","108","270757","0.0-2.0-28.6-0.6","6400d916e410c86255a45836","E1","batch5","","440","tol_tohand","","","","tol_peg_2","440","440","0","[[1,0,0],[3,0],[0]]","7","[[1,2,0],[3,0],[0]]","6","0","","","","","","5","","","","","","","","",""
"","","","","","single-stim-button","109","271086","0.0-2.0-28.6-1.6","6400d916e410c86255a45836","E1","batch5","","328","tol_toboard","","","","tol_peg_1","328","328","0","[[1,2,0],[3,0],[0]]","7","[[1,2,0],[3,0],[0]]","6","0","","","","","","5","","","","","","","","",""
"","","","","","poldrack-single-stim","110","272099","0.0-2.0-29.0","6400d916e410c86255a45836","E1","batch5","","-1","tol_feedback","","","true","","1000","1000","500","","","","","","-1","none","true","9000","25692","","","","","","","","","",""
"","","","","","html-button-response","111","272909","0.0-2.0-30.0","6400d916e410c86255a45836","E1","batch5","","809.8999999761581","tol_trial_num","<div class = centerbox><p class = center-block-text>problem <strong>8</strong> out of 25 problems</p></div>","0","","","","","","","","","","","","","","","","","","","","","","","","",""
"","","","","","single-stim-button","112","279574","0.0-2.0-31.0-0.0","6400d916e410c86255a45836","E1","batch5","","6663","tol_tohand","","","","tol_peg_3","6663","6663","0","[[0,0,0],[2,3],[0]]","1","[[1,2,0],[3,0],[0]]","7","0","","","","","","4","","","","","","","","",""
"","","","","","single-stim-button","113","280525","0.0-2.0-31.0-1.0","6400d916e410c86255a45836","E1","batch5","","951","tol_toboard","","","","tol_peg_1","951","951","0","[[1,0,0],[2,3],[0]]","1","[[1,2,0],[3,0],[0]]","7","0","","","","","","4","","","","","","","","",""
"","","","","","single-stim-button","114","281821","0.0-2.0-31.1-0.1","6400d916e410c86255a45836","E1","batch5","","1295","tol_tohand","","","","tol_peg_2","1295","1295","0","[[1,0,0],[2,0],[0]]","2","[[1,2,0],[3,0],[0]]","7","0","","","","","","4","","","","","","","","",""
"","","","","","single-stim-button","115","282430","0.0-2.0-31.1-1.1","6400d916e410c86255a45836","E1","batch5","","607","tol_toboard","","","","tol_peg_3","607","607","0","[[1,0,0],[2,0],[3]]","2","[[1,2,0],[3,0],[0]]","7","0","","","","","","4","","","","","","","","",""
"","","","","","single-stim-button","116","282774","0.0-2.0-31.2-0.2","6400d916e410c86255a45836","E1","batch5","","343","tol_tohand","","","","tol_peg_2","343","343","0","[[1,0,0],[0,0],[3]]","3","[[1,2,0],[3,0],[0]]","7","0","","","","","","4","","","","","","","","",""
"","","","","","single-stim-button","117","283069","0.0-2.0-31.2-1.2","6400d916e410c86255a45836","E1","batch5","","295","tol_toboard","","","","tol_peg_1","295","295","0","[[1,2,0],[0,0],[3]]","3","[[1,2,0],[3,0],[0]]","7","0","","","","","","4","","","","","","","","",""
"","","","","","single-stim-button","118","283597","0.0-2.0-31.3-0.3","6400d916e410c86255a45836","E1","batch5","","528","tol_tohand","","","","tol_peg_3","528","528","0","[[1,2,0],[0,0],[0]]","4","[[1,2,0],[3,0],[0]]","7","0","","","","","","4","","","","","","","","",""
"","","","","","single-stim-button","119","284413","0.0-2.0-31.3-1.3","6400d916e410c86255a45836","E1","batch5","","816","tol_toboard","","","","tol_peg_2","816","816","0","[[1,2,0],[3,0],[0]]","4","[[1,2,0],[3,0],[0]]","7","0","","","","","","4","","","","","","","","",""
"","","","","","poldrack-single-stim","120","285417","0.0-2.0-32.0","6400d916e410c86255a45836","E1","batch5","","-1","tol_feedback","","","true","","1000","1000","500","","","","","","-1","none","true","6663","8829","","","","","","","","","",""
"","","","","","html-button-response","121","286341","0.0-2.0-33.0","6400d916e410c86255a45836","E1","batch5","","923.7999999523163","tol_trial_num","<div class = centerbox><p class = center-block-text>problem <strong>9</strong> out of 25 problems</p></div>","0","","","","","","","","","","","","","","","","","","","","","","","","",""
"","","","","","single-stim-button","122","293677","0.0-2.0-34.0-0.0","6400d916e410c86255a45836","E1","batch5","","7335","tol_tohand","","","","tol_peg_3","7335","7335","0","[[3,2,0],[0,0],[0]]","1","[[2,1,0],[3,0],[0]]","8","0","","","","","","6","","","","","","","","",""
"","","","","","single-stim-button","123","294253","0.0-2.0-34.0-1.0","6400d916e410c86255a45836","E1","batch5","","575","tol_toboard","","","","tol_peg_2","575","575","0","[[3,2,0],[1,0],[0]]","1","[[2,1,0],[3,0],[0]]","8","0","","","","","","6","","","","","","","","",""
"","","","","","single-stim-button","124","294758","0.0-2.0-34.1-0.1","6400d916e410c86255a45836","E1","batch5","","504","tol_tohand","","","","tol_peg_1","504","504","0","[[3,0,0],[1,0],[0]]","2","[[2,1,0],[3,0],[0]]","8","0","","","","","","6","","","","","","","","",""
"","","","","","single-stim-button","125","295565","0.0-2.0-34.1-1.1","6400d916e410c86255a45836","E1","batch5","","806","tol_toboard","","","","tol_peg_2","806","806","0","[[3,0,0],[1,2],[0]]","2","[[2,1,0],[3,0],[0]]","8","0","","","","","","6","","","","","","","","",""
"","","","","","single-stim-button","126","307853","0.0-2.0-34.2-0.2","6400d916e410c86255a45836","E1","batch5","","12287","tol_tohand","","","","tol_peg_1","12287","12287","0","[[0,0,0],[1,2],[0]]","3","[[2,1,0],[3,0],[0]]","8","0","","","","","","6","","","","","","","","",""
"","","","","","single-stim-button","127","310653","0.0-2.0-34.2-1.2","6400d916e410c86255a45836","E1","batch5","","2800","tol_toboard","","","","tol_peg_3","2800","2800","0","[[0,0,0],[1,2],[3]]","3","[[2,1,0],[3,0],[0]]","8","0","","","","","","6","","","","","","","","",""
"","","","","","single-stim-button","128","311181","0.0-2.0-34.3-0.3","6400d916e410c86255a45836","E1","batch5","","527","tol_tohand","","","","tol_peg_2","527","527","0","[[0,0,0],[1,0],[3]]","4","[[2,1,0],[3,0],[0]]","8","0","","","","","","6","","","","","","","","",""
"","","","","","single-stim-button","129","311653","0.0-2.0-34.3-1.3","6400d916e410c86255a45836","E1","batch5","","471","tol_toboard","","","","tol_peg_1","471","471","0","[[2,0,0],[1,0],[3]]","4","[[2,1,0],[3,0],[0]]","8","0","","","","","","6","","","","","","","","",""
"","","","","","single-stim-button","130","312262","0.0-2.0-34.4-0.4","6400d916e410c86255a45836","E1","batch5","","607","tol_tohand","","","","tol_peg_2","607","607","0","[[2,0,0],[0,0],[3]]","5","[[2,1,0],[3,0],[0]]","8","0","","","","","","6","","","","","","","","",""
"","","","","","single-stim-button","131","312613","0.0-2.0-34.4-1.4","6400d916e410c86255a45836","E1","batch5","","351","tol_toboard","","","","tol_peg_1","351","351","0","[[2,1,0],[0,0],[3]]","5","[[2,1,0],[3,0],[0]]","8","0","","","","","","6","","","","","","","","",""
"","","","","","single-stim-button","132","313101","0.0-2.0-34.5-0.5","6400d916e410c86255a45836","E1","batch5","","486","tol_tohand","","","","tol_peg_3","486","486","0","[[2,1,0],[0,0],[0]]","6","[[2,1,0],[3,0],[0]]","8","0","","","","","","6","","","","","","","","",""
"","","","","","single-stim-button","133","313477","0.0-2.0-34.5-1.5","6400d916e410c86255a45836","E1","batch5","","376","tol_toboard","","","","tol_peg_2","376","376","0","[[2,1,0],[3,0],[0]]","6","[[2,1,0],[3,0],[0]]","8","0","","","","","","6","","","","","","","","",""
"","","","","","poldrack-single-stim","134","314492","0.0-2.0-35.0","6400d916e410c86255a45836","E1","batch5","","-1","tol_feedback","","","true","","1000","1000","500","","","","","","-1","none","true","7335","21746","","","","","","","","","",""
"","","","","","html-button-response","135","315445","0.0-2.0-36.0","6400d916e410c86255a45836","E1","batch5","","952.6999999284744","tol_trial_num","<div class = centerbox><p class = center-block-text>problem <strong>10</strong> out of 25 problems</p></div>","0","","","","","","","","","","","","","","","","","","","","","","","","",""
"","","","","","single-stim-button","136","320205","0.0-2.0-37.0-0.0","6400d916e410c86255a45836","E1","batch5","","4759","tol_tohand","","","","tol_peg_2","4759","4759","0","[[3,0,0],[0,0],[2]]","1","[[3,0,0],[2,1],[0]]","9","0","","","","","","3","","","","","","","","",""
"","","","","","single-stim-button","137","320669","0.0-2.0-37.0-1.0","6400d916e410c86255a45836","E1","batch5","","463","tol_toboard","","","","tol_peg_1","463","463","0","[[3,1,0],[0,0],[2]]","1","[[3,0,0],[2,1],[0]]","9","0","","","","","","3","","","","","","","","",""
"","","","","","single-stim-button","138","321174","0.0-2.0-37.1-0.1","6400d916e410c86255a45836","E1","batch5","","504","tol_tohand","","","","tol_peg_3","504","504","0","[[3,1,0],[0,0],[0]]","2","[[3,0,0],[2,1],[0]]","9","0","","","","","","3","","","","","","","","",""
"","","","","","single-stim-button","139","321741","0.0-2.0-37.1-1.1","6400d916e410c86255a45836","E1","batch5","","567","tol_toboard","","","","tol_peg_2","567","567","0","[[3,1,0],[2,0],[0]]","2","[[3,0,0],[2,1],[0]]","9","0","","","","","","3","","","","","","","","",""
"","","","","","single-stim-button","140","322325","0.0-2.0-37.2-0.2","6400d916e410c86255a45836","E1","batch5","","583","tol_tohand","","","","tol_peg_1","583","583","0","[[3,0,0],[2,0],[0]]","3","[[3,0,0],[2,1],[0]]","9","0","","","","","","3","","","","","","","","",""
"","","","","","single-stim-button","141","323077","0.0-2.0-37.2-1.2","6400d916e410c86255a45836","E1","batch5","","752","tol_toboard","","","","tol_peg_2","752","752","0","[[3,0,0],[2,1],[0]]","3","[[3,0,0],[2,1],[0]]","9","0","","","","","","3","","","","","","","","",""
"","","","","","poldrack-single-stim","142","324091","0.0-2.0-38.0","6400d916e410c86255a45836","E1","batch5","","-1","tol_feedback","","","true","","1000","1000","500","","","","","","-1","none","true","4759","5846","","","","","","","","","",""
"","","","","","html-button-response","143","324989","0.0-2.0-39.0","6400d916e410c86255a45836","E1","batch5","","897.5","tol_trial_num","<div class = centerbox><p class = center-block-text>problem <strong>11</strong> out of 25 problems</p></div>","0","","","","","","","","","","","","","","","","","","","","","","","","",""
"","","","","","single-stim-button","144","328405","0.0-2.0-40.0-0.0","6400d916e410c86255a45836","E1","batch5","","3415","tol_tohand","","","","tol_peg_2","3415","3415","0","[[1,2,0],[0,0],[0]]","1","[[2,0,0],[1,3],[0]]","10","0","","","","","","6","","","","","","","","",""
"","","","","","single-stim-button","145","333709","0.0-2.0-40.0-1.0","6400d916e410c86255a45836","E1","batch5","","5303","tol_toboard","","","","tol_peg_3","5303","5303","0","[[1,2,0],[0,0],[3]]","1","[[2,0,0],[1,3],[0]]","10","0","","","","","","6","","","","","","","","",""
"","","","","","single-stim-button","146","336174","0.0-2.0-40.1-0.1","6400d916e410c86255a45836","E1","batch5","","2463","tol_tohand","","","","tol_peg_1","2463","2463","0","[[1,0,0],[0,0],[3]]","2","[[2,0,0],[1,3],[0]]","10","0","","","","","","6","","","","","","","","",""
"","","","","","single-stim-button","147","340702","0.0-2.0-40.1-1.1","6400d916e410c86255a45836","E1","batch5","","4527","tol_toboard","","","","tol_peg_2","4527","4527","0","[[1,0,0],[2,0],[3]]","2","[[2,0,0],[1,3],[0]]","10","0","","","","","","6","","","","","","","","",""
"","","","","","single-stim-button","148","341117","0.0-2.0-40.2-0.2","6400d916e410c86255a45836","E1","batch5","","415","tol_tohand","","","","tol_peg_1","415","415","0","[[0,0,0],[2,0],[3]]","3","[[2,0,0],[1,3],[0]]","10","0","","","","","","6","","","","","","","","",""
"","","","","","single-stim-button","149","341734","0.0-2.0-40.2-1.2","6400d916e410c86255a45836","E1","batch5","","616","tol_toboard","","","","tol_peg_2","616","616","0","[[0,0,0],[2,1],[3]]","3","[[2,0,0],[1,3],[0]]","10","0","","","","","","6","","","","","","","","",""
"","","","","","single-stim-button","150","342694","0.0-2.0-40.3-0.3","6400d916e410c86255a45836","E1","batch5","","959","tol_tohand","","","","tol_peg_3","959","959","0","[[0,0,0],[2,1],[0]]","4","[[2,0,0],[1,3],[0]]","10","0","","","","","","6","","","","","","","","",""
"","","","","","single-stim-button","151","343325","0.0-2.0-40.3-1.3","6400d916e410c86255a45836","E1","batch5","","631","tol_toboard","","","","tol_peg_1","631","631","0","[[3,0,0],[2,1],[0]]","4","[[2,0,0],[1,3],[0]]","10","0","","","","","","6","","","","","","","","",""
"","","","","","single-stim-button","152","344373","0.0-2.0-40.4-0.4","6400d916e410c86255a45836","E1","batch5","","1047","tol_tohand","","","","tol_peg_2","1047","1047","0","[[3,0,0],[2,0],[0]]","5","[[2,0,0],[1,3],[0]]","10","0","","","","","","6","","","","","","","","",""
"","","","","","single-stim-button","153","345141","0.0-2.0-40.4-1.4","6400d916e410c86255a45836","E1","batch5","","767","tol_toboard","","","","tol_peg_3","767","767","0","[[3,0,0],[2,0],[1]]","5","[[2,0,0],[1,3],[0]]","10","0","","","","","","6","","","","","","","","",""
"","","","","","single-stim-button","154","353846","0.0-2.0-40.5-0.5","6400d916e410c86255a45836","E1","batch5","","8704","tol_tohand","","","","tol_peg_2","8704","8704","0","[[3,0,0],[0,0],[1]]","6","[[2,0,0],[1,3],[0]]","10","0","","","","","","6","","","","","","","","",""
"","","","","","single-stim-button","155","354333","0.0-2.0-40.5-1.5","6400d916e410c86255a45836","E1","batch5","","486","tol_toboard","","","","tol_peg_1","486","486","0","[[3,2,0],[0,0],[1]]","6","[[2,0,0],[1,3],[0]]","10","0","","","","","","6","","","","","","","","",""
"","","","","","single-stim-button","156","354917","0.0-2.0-40.6-0.6","6400d916e410c86255a45836","E1","batch5","","584","tol_tohand","","","","tol_peg_3","584","584","0","[[3,2,0],[0,0],[0]]","7","[[2,0,0],[1,3],[0]]","10","0","","","","","","6","","","","","","","","",""
"","","","","","single-stim-button","157","355598","0.0-2.0-40.6-1.6","6400d916e410c86255a45836","E1","batch5","","680","tol_toboard","","","","tol_peg_2","680","680","0","[[3,2,0],[1,0],[0]]","7","[[2,0,0],[1,3],[0]]","10","0","","","","","","6","","","","","","","","",""
"","","","","","single-stim-button","158","356101","0.0-2.0-40.7-0.7","6400d916e410c86255a45836","E1","batch5","","503","tol_tohand","","","","tol_peg_1","503","503","0","[[3,0,0],[1,0],[0]]","8","[[2,0,0],[1,3],[0]]","10","0","","","","","","6","","","","","","","","",""
"","","","","","single-stim-button","159","356686","0.0-2.0-40.7-1.7","6400d916e410c86255a45836","E1","batch5","","584","tol_toboard","","","","tol_peg_3","584","584","0","[[3,0,0],[1,0],[2]]","8","[[2,0,0],[1,3],[0]]","10","0","","","","","","6","","","","","","","","",""
"","","","","","single-stim-button","160","358054","0.0-2.0-40.8-0.8","6400d916e410c86255a45836","E1","batch5","","1367","tol_tohand","","","","tol_peg_1","1367","1367","0","[[0,0,0],[1,0],[2]]","9","[[2,0,0],[1,3],[0]]","10","0","","","","","","6","","","","","","","","",""
"","","","","","single-stim-button","161","358525","0.0-2.0-40.8-1.8","6400d916e410c86255a45836","E1","batch5","","471","tol_toboard","","","","tol_peg_2","471","471","0","[[0,0,0],[1,3],[2]]","9","[[2,0,0],[1,3],[0]]","10","0","","","","","","6","","","","","","","","",""
"","","","","","single-stim-button","162","359029","0.0-2.0-40.9-0.9","6400d916e410c86255a45836","E1","batch5","","503","tol_tohand","","","","tol_peg_3","503","503","0","[[0,0,0],[1,3],[0]]","10","[[2,0,0],[1,3],[0]]","10","0","","","","","","6","","","","","","","","",""
"","","","","","single-stim-button","163","359797","0.0-2.0-40.9-1.9","6400d916e410c86255a45836","E1","batch5","","768","tol_toboard","","","","tol_peg_1","768","768","0","[[2,0,0],[1,3],[0]]","10","[[2,0,0],[1,3],[0]]","10","0","","","","","","6","","","","","","","","",""
"","","","","","poldrack-single-stim","164","360798","0.0-2.0-41.0","6400d916e410c86255a45836","E1","batch5","","-1","tol_feedback","","","true","","1000","1000","500","","","","","","-1","none","true","3415","19960","","","","","","","","","",""
"","","","","","html-button-response","165","361453","0.0-2.0-42.0","6400d916e410c86255a45836","E1","batch5","","654.3999999761581","tol_trial_num","<div class = centerbox><p class = center-block-text>problem <strong>12</strong> out of 25 problems</p></div>","0","","","","","","","","","","","","","","","","","","","","","","","","",""
"","","","","","single-stim-button","166","371013","0.0-2.0-43.0-0.0","6400d916e410c86255a45836","E1","batch5","","9560","tol_tohand","","","","tol_peg_2","9560","9560","0","[[1,2,0],[0,0],[0]]","1","[[2,3,0],[0,0],[1]]","11","0","","","","","","4","","","","","","","","",""
"","","","","","single-stim-button","167","371597","0.0-2.0-43.0-1.0","6400d916e410c86255a45836","E1","batch5","","584","tol_toboard","","","","tol_peg_3","584","584","0","[[1,2,0],[0,0],[3]]","1","[[2,3,0],[0,0],[1]]","11","0","","","","","","4","","","","","","","","",""
"","","","","","single-stim-button","168","372461","0.0-2.0-43.1-0.1","6400d916e410c86255a45836","E1","batch5","","863","tol_tohand","","","","tol_peg_1","863","863","0","[[1,0,0],[0,0],[3]]","2","[[2,3,0],[0,0],[1]]","11","0","","","","","","4","","","","","","","","",""
"","","","","","single-stim-button","169","376965","0.0-2.0-43.1-1.1","6400d916e410c86255a45836","E1","batch5","","4504","tol_toboard","","","","tol_peg_2","4504","4504","0","[[1,0,0],[2,0],[3]]","2","[[2,3,0],[0,0],[1]]","11","0","","","","","","4","","","","","","","","",""
"","","","","","single-stim-button","170","386829","0.0-2.0-43.2-0.2","6400d916e410c86255a45836","E1","batch5","","9864","tol_tohand","","","","tol_peg_3","9864","9864","0","[[1,0,0],[2,0],[0]]","3","[[2,3,0],[0,0],[1]]","11","0","","","","","","4","","","","","","","","",""
"","","","","","single-stim-button","171","388757","0.0-2.0-43.2-1.2","6400d916e410c86255a45836","E1","batch5","","1927","tol_toboard","","","","tol_peg_2","1927","1927","0","[[1,0,0],[2,3],[0]]","3","[[2,3,0],[0,0],[1]]","11","0","","","","","","4","","","","","","","","",""
"","","","","","single-stim-button","172","390293","0.0-2.0-43.3-0.3","6400d916e410c86255a45836","E1","batch5","","1536","tol_tohand","","","","tol_peg_1","1536","1536","0","[[0,0,0],[2,3],[0]]","4","[[2,3,0],[0,0],[1]]","11","0","","","","","","4","","","","","","","","",""
"","","","","","single-stim-button","173","391453","0.0-2.0-43.3-1.3","6400d916e410c86255a45836","E1","batch5","","1160","tol_toboard","","","","tol_peg_3","1160","1160","0","[[0,0,0],[2,3],[1]]","4","[[2,3,0],[0,0],[1]]","11","0","","","","","","4","","","","","","","","",""
"","","","","","single-stim-button","174","397262","0.0-2.0-43.4-0.4","6400d916e410c86255a45836","E1","batch5","","5808","tol_tohand","","","","tol_peg_2","5808","5808","0","[[0,0,0],[2,0],[1]]","5","[[2,3,0],[0,0],[1]]","11","0","","","","","","4","","","","","","","","",""
"","","","","","single-stim-button","175","397765","0.0-2.0-43.4-1.4","6400d916e410c86255a45836","E1","batch5","","503","tol_toboard","","","","tol_peg_1","503","503","0","[[3,0,0],[2,0],[1]]","5","[[2,3,0],[0,0],[1]]","11","0","","","","","","4","","","","","","","","",""
"","","","","","single-stim-button","176","398813","0.0-2.0-43.5-0.5","6400d916e410c86255a45836","E1","batch5","","1048","tol_tohand","","","","tol_peg_3","1048","1048","0","[[3,0,0],[2,0],[0]]","6","[[2,3,0],[0,0],[1]]","11","0","","","","","","4","","","","","","","","",""
"","","","","","single-stim-button","177","399365","0.0-2.0-43.5-1.5","6400d916e410c86255a45836","E1","batch5","","552","tol_toboard","","","","tol_peg_2","552","552","0","[[3,0,0],[2,1],[0]]","6","[[2,3,0],[0,0],[1]]","11","0","","","","","","4","","","","","","","","",""
"","","","","","single-stim-button","178","402077","0.0-2.0-43.6-0.6","6400d916e410c86255a45836","E1","batch5","","2712","tol_tohand","","","","tol_peg_2","2712","2712","0","[[3,0,0],[2,0],[0]]","7","[[2,3,0],[0,0],[1]]","11","0","","","","","","4","","","","","","","","",""
"","","","","","single-stim-button","179","402573","0.0-2.0-43.6-1.6","6400d916e410c86255a45836","E1","batch5","","496","tol_toboard","","","","tol_peg_1","496","496","0","[[3,1,0],[2,0],[0]]","7","[[2,3,0],[0,0],[1]]","11","0","","","","","","4","","","","","","","","",""
"","","","","","single-stim-button","180","403165","0.0-2.0-43.7-0.7","6400d916e410c86255a45836","E1","batch5","","592","tol_tohand","","","","tol_peg_2","592","592","0","[[3,1,0],[0,0],[0]]","8","[[2,3,0],[0,0],[1]]","11","0","","","","","","4","","","","","","","","",""
"","","","","","single-stim-button","181","403845","0.0-2.0-43.7-1.7","6400d916e410c86255a45836","E1","batch5","","680","tol_toboard","","","","tol_peg_3","680","680","0","[[3,1,0],[0,0],[2]]","8","[[2,3,0],[0,0],[1]]","11","0","","","","","","4","","","","","","","","",""
"","","","","","single-stim-button","182","404445","0.0-2.0-43.8-0.8","6400d916e410c86255a45836","E1","batch5","","600","tol_tohand","","","","tol_peg_1","600","600","0","[[3,0,0],[0,0],[2]]","9","[[2,3,0],[0,0],[1]]","11","0","","","","","","4","","","","","","","","",""
"","","","","","single-stim-button","183","405054","0.0-2.0-43.8-1.8","6400d916e410c86255a45836","E1","batch5","","608","tol_toboard","","","","tol_peg_2","608","608","0","[[3,0,0],[1,0],[2]]","9","[[2,3,0],[0,0],[1]]","11","0","","","","","","4","","","","","","","","",""
"","","","","","single-stim-button","184","405469","0.0-2.0-43.9-0.9","6400d916e410c86255a45836","E1","batch5","","415","tol_tohand","","","","tol_peg_1","415","415","0","[[0,0,0],[1,0],[2]]","10","[[2,3,0],[0,0],[1]]","11","0","","","","","","4","","","","","","","","",""
"","","","","","single-stim-button","185","405789","0.0-2.0-43.9-1.9","6400d916e410c86255a45836","E1","batch5","","320","tol_toboard","","","","tol_peg_2","320","320","0","[[0,0,0],[1,3],[2]]","10","[[2,3,0],[0,0],[1]]","11","0","","","","","","4","","","","","","","","",""
"","","","","","single-stim-button","186","406157","0.0-2.0-43.10-0.10","6400d916e410c86255a45836","E1","batch5","","368","tol_tohand","","","","tol_peg_3","368","368","0","[[0,0,0],[1,3],[0]]","11","[[2,3,0],[0,0],[1]]","11","0","","","","","","4","","","","","","","","",""
"","","","","","single-stim-button","187","406693","0.0-2.0-43.10-1.10","6400d916e410c86255a45836","E1","batch5","","536","tol_toboard","","","","tol_peg_1","536","536","0","[[2,0,0],[1,3],[0]]","11","[[2,3,0],[0,0],[1]]","11","0","","","","","","4","","","","","","","","",""
"","","","","","single-stim-button","188","407173","0.0-2.0-43.11-0.11","6400d916e410c86255a45836","E1","batch5","","480","tol_tohand","","","","tol_peg_2","480","480","0","[[2,0,0],[1,0],[0]]","12","[[2,3,0],[0,0],[1]]","11","0","","","","","","4","","","","","","","","",""
"","","","","","single-stim-button","189","407485","0.0-2.0-43.11-1.11","6400d916e410c86255a45836","E1","batch5","","312","tol_toboard","","","","tol_peg_1","312","312","0","[[2,3,0],[1,0],[0]]","12","[[2,3,0],[0,0],[1]]","11","0","","","","","","4","","","","","","","","",""
"","","","","","single-stim-button","190","407908","0.0-2.0-43.12-0.12","6400d916e410c86255a45836","E1","batch5","","423","tol_tohand","","","","tol_peg_2","423","423","0","[[2,3,0],[0,0],[0]]","13","[[2,3,0],[0,0],[1]]","11","0","","","","","","4","","","","","","","","",""
"","","","","","single-stim-button","191","408365","0.0-2.0-43.12-1.12","6400d916e410c86255a45836","E1","batch5","","457","tol_toboard","","","","tol_peg_3","457","457","0","[[2,3,0],[0,0],[1]]","13","[[2,3,0],[0,0],[1]]","11","0","","","","","","4","","","","","","","","",""
"","","","","","poldrack-single-stim","192","409376","0.0-2.0-44.0","6400d916e410c86255a45836","E1","batch5","","-1","tol_feedback","","","true","","1000","1000","500","","","","","","-1","none","true","9560","34269","","","","","","","","","",""
"","","","","","html-button-response","193","410597","0.0-2.0-45.0","6400d916e410c86255a45836","E1","batch5","","1220.5","tol_trial_num","<div class = centerbox><p class = center-block-text>problem <strong>13</strong> out of 25 problems</p></div>","0","","","","","","","","","","","","","","","","","","","","","","","","",""
"","","","","","single-stim-button","194","415877","0.0-2.0-46.0-0.0","6400d916e410c86255a45836","E1","batch5","","5280","tol_tohand","","","","tol_peg_1","5280","5280","0","[[1,0,0],[3,0],[0]]","1","[[0,0,0],[2,3],[1]]","12","0","","","","","","4","","","","","","","","",""
"","","","","","single-stim-button","195","416373","0.0-2.0-46.0-1.0","6400d916e410c86255a45836","E1","batch5","","496","tol_toboard","","","","tol_peg_2","496","496","0","[[1,0,0],[3,2],[0]]","1","[[0,0,0],[2,3],[1]]","12","0","","","","","","4","","","","","","","","",""
"","","","","","single-stim-button","196","417037","0.0-2.0-46.1-0.1","6400d916e410c86255a45836","E1","batch5","","664","tol_tohand","","","","tol_peg_1","664","664","0","[[0,0,0],[3,2],[0]]","2","[[0,0,0],[2,3],[1]]","12","0","","","","","","4","","","","","","","","",""
"","","","","","single-stim-button","197","420893","0.0-2.0-46.1-1.1","6400d916e410c86255a45836","E1","batch5","","3856","tol_toboard","","","","tol_peg_3","3856","3856","0","[[0,0,0],[3,2],[1]]","2","[[0,0,0],[2,3],[1]]","12","0","","","","","","4","","","","","","","","",""
"","","","","","single-stim-button","198","424157","0.0-2.0-46.2-0.2","6400d916e410c86255a45836","E1","batch5","","3264","tol_tohand","","","","tol_peg_2","3264","3264","0","[[0,0,0],[3,0],[1]]","3","[[0,0,0],[2,3],[1]]","12","0","","","","","","4","","","","","","","","",""
"","","","","","single-stim-button","199","424917","0.0-2.0-46.2-1.2","6400d916e410c86255a45836","E1","batch5","","759","tol_toboard","","","","tol_peg_1","759","759","0","[[2,0,0],[3,0],[1]]","3","[[0,0,0],[2,3],[1]]","12","0","","","","","","4","","","","","","","","",""
"","","","","","single-stim-button","200","425693","0.0-2.0-46.3-0.3","6400d916e410c86255a45836","E1","batch5","","776","tol_tohand","","","","tol_peg_3","776","776","0","[[2,0,0],[3,0],[0]]","4","[[0,0,0],[2,3],[1]]","12","0","","","","","","4","","","","","","","","",""
"","","","","","single-stim-button","201","426125","0.0-2.0-46.3-1.3","6400d916e410c86255a45836","E1","batch5","","431","tol_toboard","","","","tol_peg_2","431","431","0","[[2,0,0],[3,1],[0]]","4","[[0,0,0],[2,3],[1]]","12","0","","","","","","4","","","","","","","","",""
"","","","","","single-stim-button","202","426525","0.0-2.0-46.4-0.4","6400d916e410c86255a45836","E1","batch5","","399","tol_tohand","","","","tol_peg_1","399","399","0","[[0,0,0],[3,1],[0]]","5","[[0,0,0],[2,3],[1]]","12","0","","","","","","4","","","","","","","","",""
"","","","","","single-stim-button","203","427133","0.0-2.0-46.4-1.4","6400d916e410c86255a45836","E1","batch5","","608","tol_toboard","","","","tol_peg_3","608","608","0","[[0,0,0],[3,1],[2]]","5","[[0,0,0],[2,3],[1]]","12","0","","","","","","4","","","","","","","","",""
"","","","","","single-stim-button","204","427861","0.0-2.0-46.5-0.5","6400d916e410c86255a45836","E1","batch5","","727","tol_tohand","","","","tol_peg_2","727","727","0","[[0,0,0],[3,0],[2]]","6","[[0,0,0],[2,3],[1]]","12","0","","","","","","4","","","","","","","","",""
"","","","","","single-stim-button","205","428445","0.0-2.0-46.5-1.5","6400d916e410c86255a45836","E1","batch5","","583","tol_toboard","","","","tol_peg_1","583","583","0","[[1,0,0],[3,0],[2]]","6","[[0,0,0],[2,3],[1]]","12","0","","","","","","4","","","","","","","","",""
"","","","","","single-stim-button","206","428981","0.0-2.0-46.6-0.6","6400d916e410c86255a45836","E1","batch5","","536","tol_tohand","","","","tol_peg_2","536","536","0","[[1,0,0],[0,0],[2]]","7","[[0,0,0],[2,3],[1]]","12","0","","","","","","4","","","","","","","","",""
"","","","","","single-stim-button","207","429869","0.0-2.0-46.6-1.6","6400d916e410c86255a45836","E1","batch5","","887","tol_toboard","","","","tol_peg_1","887","887","0","[[1,3,0],[0,0],[2]]","7","[[0,0,0],[2,3],[1]]","12","0","","","","","","4","","","","","","","","",""
"","","","","","single-stim-button","208","430333","0.0-2.0-46.7-0.7","6400d916e410c86255a45836","E1","batch5","","464","tol_tohand","","","","tol_peg_3","464","464","0","[[1,3,0],[0,0],[0]]","8","[[0,0,0],[2,3],[1]]","12","0","","","","","","4","","","","","","","","",""
"","","","","","single-stim-button","209","431405","0.0-2.0-46.7-1.7","6400d916e410c86255a45836","E1","batch5","","1072","tol_toboard","","","","tol_peg_2","1072","1072","0","[[1,3,0],[2,0],[0]]","8","[[0,0,0],[2,3],[1]]","12","0","","","","","","4","","","","","","","","",""
"","","","","","single-stim-button","210","431853","0.0-2.0-46.8-0.8","6400d916e410c86255a45836","E1","batch5","","447","tol_tohand","","","","tol_peg_1","447","447","0","[[1,0,0],[2,0],[0]]","9","[[0,0,0],[2,3],[1]]","12","0","","","","","","4","","","","","","","","",""
"","","","","","single-stim-button","211","432253","0.0-2.0-46.8-1.8","6400d916e410c86255a45836","E1","batch5","","400","tol_toboard","","","","tol_peg_2","400","400","0","[[1,0,0],[2,3],[0]]","9","[[0,0,0],[2,3],[1]]","12","0","","","","","","4","","","","","","","","",""
"","","","","","single-stim-button","212","432724","0.0-2.0-46.9-0.9","6400d916e410c86255a45836","E1","batch5","","471","tol_tohand","","","","tol_peg_1","471","471","0","[[0,0,0],[2,3],[0]]","10","[[0,0,0],[2,3],[1]]","12","0","","","","","","4","","","","","","","","",""
"","","","","","single-stim-button","213","433381","0.0-2.0-46.9-1.9","6400d916e410c86255a45836","E1","batch5","","656","tol_toboard","","","","tol_peg_3","656","656","0","[[0,0,0],[2,3],[1]]","10","[[0,0,0],[2,3],[1]]","12","0","","","","","","4","","","","","","","","",""
"","","","","","poldrack-single-stim","214","434382","0.0-2.0-47.0","6400d916e410c86255a45836","E1","batch5","","-1","tol_feedback","","","true","","1000","1000","500","","","","","","-1","none","true","5280","13028","","","","","","","","","",""
"","","","","","html-button-response","215","443517","0.0-2.0-48.0","6400d916e410c86255a45836","E1","batch5","","9134.200000047684","attention_check","<p class = block-text>How many balls are in your board<br></p>","1","true","","","","","","","","","","","","","","","","","","","","","","","",""
"","","","","","html-button-response","216","444405","0.0-2.0-49.0","6400d916e410c86255a45836","E1","batch5","","886.8999999761581","tol_trial_num","<div class = centerbox><p class = center-block-text>problem <strong>14</strong> out of 25 problems</p></div>","0","","","","","","","","","","","","","","","","","","","","","","","","",""
"","","","","","single-stim-button","217","448981","0.0-2.0-50.0-0.0","6400d916e410c86255a45836","E1","batch5","","4576","tol_tohand","","","","tol_peg_1","4576","4576","0","[[2,0,0],[3,0],[0]]","1","[[1,2,0],[3,0],[0]]","13","0","","","","","","4","","","","","","","","",""
"","","","","","single-stim-button","218","450149","0.0-2.0-50.0-1.0","6400d916e410c86255a45836","E1","batch5","","1167","tol_toboard","","","","tol_peg_3","1167","1167","0","[[2,0,0],[3,0],[1]]","1","[[1,2,0],[3,0],[0]]","13","0","","","","","","4","","","","","","","","",""
"","","","","","single-stim-button","219","450998","0.0-2.0-50.1-0.1","6400d916e410c86255a45836","E1","batch5","","848","tol_tohand","","","","tol_peg_1","848","848","0","[[0,0,0],[3,0],[1]]","2","[[1,2,0],[3,0],[0]]","13","0","","","","","","4","","","","","","","","",""
"","","","","","single-stim-button","220","451341","0.0-2.0-50.1-1.1","6400d916e410c86255a45836","E1","batch5","","343","tol_toboard","","","","tol_peg_2","343","343","0","[[0,0,0],[3,2],[1]]","2","[[1,2,0],[3,0],[0]]","13","0","","","","","","4","","","","","","","","",""
"","","","","","single-stim-button","221","451725","0.0-2.0-50.2-0.2","6400d916e410c86255a45836","E1","batch5","","384","tol_tohand","","","","tol_peg_3","384","384","0","[[0,0,0],[3,2],[0]]","3","[[1,2,0],[3,0],[0]]","13","0","","","","","","4","","","","","","","","",""
"","","","","","single-stim-button","222","452229","0.0-2.0-50.2-1.2","6400d916e410c86255a45836","E1","batch5","","504","tol_toboard","","","","tol_peg_1","504","504","0","[[1,0,0],[3,2],[0]]","3","[[1,2,0],[3,0],[0]]","13","0","","","","","","4","","","","","","","","",""
"","","","","","single-stim-button","223","453581","0.0-2.0-50.3-0.3","6400d916e410c86255a45836","E1","batch5","","1352","tol_tohand","","","","tol_peg_2","1352","1352","0","[[1,0,0],[3,0],[0]]","4","[[1,2,0],[3,0],[0]]","13","0","","","","","","4","","","","","","","","",""
"","","","","","single-stim-button","224","453981","0.0-2.0-50.3-1.3","6400d916e410c86255a45836","E1","batch5","","399","tol_toboard","","","","tol_peg_1","399","399","0","[[1,2,0],[3,0],[0]]","4","[[1,2,0],[3,0],[0]]","13","0","","","","","","4","","","","","","","","",""
"","","","","","poldrack-single-stim","225","454982","0.0-2.0-51.0","6400d916e410c86255a45836","E1","batch5","","-1","tol_feedback","","","true","","1000","1000","500","","","","","","-1","none","true","4576","7160","","","","","","","","","",""
"","","","","","html-button-response","226","456349","0.0-2.0-52.0","6400d916e410c86255a45836","E1","batch5","","1366.5","tol_trial_num","<div class = centerbox><p class = center-block-text>problem <strong>15</strong> out of 25 problems</p></div>","0","","","","","","","","","","","","","","","","","","","","","","","","",""
"","","","","","single-stim-button","227","462069","0.0-2.0-53.0-0.0","6400d916e410c86255a45836","E1","batch5","","5720","tol_tohand","","","","tol_peg_1","5720","5720","0","[[1,0,0],[3,0],[0]]","1","[[2,0,0],[3,0],[1]]","14","0","","","","","","3","","","","","","","","",""
"","","","","","single-stim-button","228","463044","0.0-2.0-53.0-1.0","6400d916e410c86255a45836","E1","batch5","","975","tol_toboard","","","","tol_peg_2","975","975","0","[[1,0,0],[3,2],[0]]","1","[[2,0,0],[3,0],[1]]","14","0","","","","","","3","","","","","","","","",""
"","","","","","single-stim-button","229","463477","0.0-2.0-53.1-0.1","6400d916e410c86255a45836","E1","batch5","","432","tol_tohand","","","","tol_peg_1","432","432","0","[[0,0,0],[3,2],[0]]","2","[[2,0,0],[3,0],[1]]","14","0","","","","","","3","","","","","","","","",""
"","","","","","single-stim-button","230","464037","0.0-2.0-53.1-1.1","6400d916e410c86255a45836","E1","batch5","","560","tol_toboard","","","","tol_peg_3","560","560","0","[[0,0,0],[3,2],[1]]","2","[[2,0,0],[3,0],[1]]","14","0","","","","","","3","","","","","","","","",""
"","","","","","single-stim-button","231","464590","0.0-2.0-53.2-0.2","6400d916e410c86255a45836","E1","batch5","","552","tol_tohand","","","","tol_peg_2","552","552","0","[[0,0,0],[3,0],[1]]","3","[[2,0,0],[3,0],[1]]","14","0","","","","","","3","","","","","","","","",""
"","","","","","single-stim-button","232","465237","0.0-2.0-53.2-1.2","6400d916e410c86255a45836","E1","batch5","","647","tol_toboard","","","","tol_peg_1","647","647","0","[[2,0,0],[3,0],[1]]","3","[[2,0,0],[3,0],[1]]","14","0","","","","","","3","","","","","","","","",""
"","","","","","poldrack-single-stim","233","466238","0.0-2.0-54.0","6400d916e410c86255a45836","E1","batch5","","-1","tol_feedback","","","true","","1000","1000","500","","","","","","-1","none","true","5720","6704","","","","","","","","","",""
"","","","","","html-button-response","234","466925","0.0-2.0-55.0","6400d916e410c86255a45836","E1","batch5","","686.4000000953674","tol_trial_num","<div class = centerbox><p class = center-block-text>problem <strong>16</strong> out of 25 problems</p></div>","0","","","","","","","","","","","","","","","","","","","","","","","","",""
"","","","","","single-stim-button","235","470838","0.0-2.0-56.0-0.0","6400d916e410c86255a45836","E1","batch5","","3913","tol_tohand","","","","tol_peg_3","3913","3913","0","[[0,0,0],[2,3],[0]]","1","[[2,3,0],[1,0],[0]]","15","0","","","","","","7","","","","","","","","",""
"","","","","","single-stim-button","236","471453","0.0-2.0-56.0-1.0","6400d916e410c86255a45836","E1","batch5","","615","tol_toboard","","","","tol_peg_1","615","615","0","[[1,0,0],[2,3],[0]]","1","[[2,3,0],[1,0],[0]]","15","0","","","","","","7","","","","","","","","",""
"","","","","","single-stim-button","237","472309","0.0-2.0-56.1-0.1","6400d916e410c86255a45836","E1","batch5","","856","tol_tohand","","","","tol_peg_2","856","856","0","[[1,0,0],[2,0],[0]]","2","[[2,3,0],[1,0],[0]]","15","0","","","","","","7","","","","","","","","",""
"","","","","","single-stim-button","238","473350","0.0-2.0-56.1-1.1","6400d916e410c86255a45836","E1","batch5","","1040","tol_toboard","","","","tol_peg_3","1040","1040","0","[[1,0,0],[2,0],[3]]","2","[[2,3,0],[1,0],[0]]","15","0","","","","","","7","","","","","","","","",""
"","","","","","single-stim-button","239","476909","0.0-2.0-56.2-0.2","6400d916e410c86255a45836","E1","batch5","","3559","tol_tohand","","","","tol_peg_2","3559","3559","0","[[1,0,0],[0,0],[3]]","3","[[2,3,0],[1,0],[0]]","15","0","","","","","","7","","","","","","","","",""
"","","","","","single-stim-button","240","478614","0.0-2.0-56.2-1.2","6400d916e410c86255a45836","E1","batch5","","1703","tol_toboard","","","","tol_peg_1","1703","1703","0","[[1,2,0],[0,0],[3]]","3","[[2,3,0],[1,0],[0]]","15","0","","","","","","7","","","","","","","","",""
"","","","","","single-stim-button","241","479813","0.0-2.0-56.3-0.3","6400d916e410c86255a45836","E1","batch5","","1199","tol_tohand","","","","tol_peg_3","1199","1199","0","[[1,2,0],[0,0],[0]]","4","[[2,3,0],[1,0],[0]]","15","0","","","","","","7","","","","","","","","",""
"","","","","","single-stim-button","242","481589","0.0-2.0-56.3-1.3","6400d916e410c86255a45836","E1","batch5","","1775","tol_toboard","","","","tol_peg_2","1775","1775","0","[[1,2,0],[3,0],[0]]","4","[[2,3,0],[1,0],[0]]","15","0","","","","","","7","","","","","","","","",""
"","","","","","single-stim-button","243","482917","0.0-2.0-56.4-0.4","6400d916e410c86255a45836","E1","batch5","","1327","tol_tohand","","","","tol_peg_1","1327","1327","0","[[1,0,0],[3,0],[0]]","5","[[2,3,0],[1,0],[0]]","15","0","","","","","","7","","","","","","","","",""
"","","","","","single-stim-button","244","484821","0.0-2.0-56.4-1.4","6400d916e410c86255a45836","E1","batch5","","1904","tol_toboard","","","","tol_peg_3","1904","1904","0","[[1,0,0],[3,0],[2]]","5","[[2,3,0],[1,0],[0]]","15","0","","","","","","7","","","","","","","","",""
"","","","","","single-stim-button","245","485677","0.0-2.0-56.5-0.5","6400d916e410c86255a45836","E1","batch5","","856","tol_tohand","","","","tol_peg_1","856","856","0","[[0,0,0],[3,0],[2]]","6","[[2,3,0],[1,0],[0]]","15","0","","","","","","7","","","","","","","","",""
"","","","","","single-stim-button","246","486069","0.0-2.0-56.5-1.5","6400d916e410c86255a45836","E1","batch5","","392","tol_toboard","","","","tol_peg_2","392","392","0","[[0,0,0],[3,1],[2]]","6","[[2,3,0],[1,0],[0]]","15","0","","","","","","7","","","","","","","","",""
"","","","","","single-stim-button","247","486430","0.0-2.0-56.6-0.6","6400d916e410c86255a45836","E1","batch5","","359","tol_tohand","","","","tol_peg_3","359","359","0","[[0,0,0],[3,1],[0]]","7","[[2,3,0],[1,0],[0]]","15","0","","","","","","7","","","","","","","","",""
"","","","","","single-stim-button","248","487157","0.0-2.0-56.6-1.6","6400d916e410c86255a45836","E1","batch5","","727","tol_toboard","","","","tol_peg_1","727","727","0","[[2,0,0],[3,1],[0]]","7","[[2,3,0],[1,0],[0]]","15","0","","","","","","7","","","","","","","","",""
"","","","","","single-stim-button","249","487909","0.0-2.0-56.7-0.7","6400d916e410c86255a45836","E1","batch5","","751","tol_tohand","","","","tol_peg_2","751","751","0","[[2,0,0],[3,0],[0]]","8","[[2,3,0],[1,0],[0]]","15","0","","","","","","7","","","","","","","","",""
"","","","","","single-stim-button","250","488478","0.0-2.0-56.7-1.7","6400d916e410c86255a45836","E1","batch5","","567","tol_toboard","","","","tol_peg_3","567","567","0","[[2,0,0],[3,0],[1]]","8","[[2,3,0],[1,0],[0]]","15","0","","","","","","7","","","","","","","","",""
"","","","","","single-stim-button","251","488869","0.0-2.0-56.8-0.8","6400d916e410c86255a45836","E1","batch5","","391","tol_tohand","","","","tol_peg_2","391","391","0","[[2,0,0],[0,0],[1]]","9","[[2,3,0],[1,0],[0]]","15","0","","","","","","7","","","","","","","","",""
"","","","","","single-stim-button","252","489381","0.0-2.0-56.8-1.8","6400d916e410c86255a45836","E1","batch5","","512","tol_toboard","","","","tol_peg_1","512","512","0","[[2,3,0],[0,0],[1]]","9","[[2,3,0],[1,0],[0]]","15","0","","","","","","7","","","","","","","","",""
"","","","","","single-stim-button","253","489925","0.0-2.0-56.9-0.9","6400d916e410c86255a45836","E1","batch5","","543","tol_tohand","","","","tol_peg_3","543","543","0","[[2,3,0],[0,0],[0]]","10","[[2,3,0],[1,0],[0]]","15","0","","","","","","7","","","","","","","","",""
"","","","","","single-stim-button","254","490357","0.0-2.0-56.9-1.9","6400d916e410c86255a45836","E1","batch5","","431","tol_toboard","","","","tol_peg_2","431","431","0","[[2,3,0],[1,0],[0]]","10","[[2,3,0],[1,0],[0]]","15","0","","","","","","7","","","","","","","","",""
"","","","","","poldrack-single-stim","255","491361","0.0-2.0-57.0","6400d916e410c86255a45836","E1","batch5","","-1","tol_feedback","","","true","","1000","1000","500","","","","","","-1","none","true","3913","13754","","","","","","","","","",""
"","","","","","html-button-response","256","492173","0.0-2.0-58.0","6400d916e410c86255a45836","E1","batch5","","811.8000000715256","tol_trial_num","<div class = centerbox><p class = center-block-text>problem <strong>17</strong> out of 25 problems</p></div>","0","","","","","","","","","","","","","","","","","","","","","","","","",""
"","","","","","single-stim-button","257","497413","0.0-2.0-59.0-0.0","6400d916e410c86255a45836","E1","batch5","","5240","tol_tohand","","","","tol_peg_1","5240","5240","0","[[1,0,0],[3,0],[0]]","1","[[3,1,0],[2,0],[0]]","16","0","","","","","","5","","","","","","","","",""
"","","","","","single-stim-button","258","498061","0.0-2.0-59.0-1.0","6400d916e410c86255a45836","E1","batch5","","647","tol_toboard","","","","tol_peg_2","647","647","0","[[1,0,0],[3,2],[0]]","1","[[3,1,0],[2,0],[0]]","16","0","","","","","","5","","","","","","","","",""
"","","","","","single-stim-button","259","498621","0.0-2.0-59.1-0.1","6400d916e410c86255a45836","E1","batch5","","560","tol_tohand","","","","tol_peg_1","560","560","0","[[0,0,0],[3,2],[0]]","2","[[3,1,0],[2,0],[0]]","16","0","","","","","","5","","","","","","","","",""
"","","","","","single-stim-button","260","501933","0.0-2.0-59.1-1.1","6400d916e410c86255a45836","E1","batch5","","3312","tol_toboard","","","","tol_peg_3","3312","3312","0","[[0,0,0],[3,2],[1]]","2","[[3,1,0],[2,0],[0]]","16","0","","","","","","5","","","","","","","","",""
"","","","","","single-stim-button","261","506037","0.0-2.0-59.2-0.2","6400d916e410c86255a45836","E1","batch5","","4103","tol_tohand","","","","tol_peg_2","4103","4103","0","[[0,0,0],[3,0],[1]]","3","[[3,1,0],[2,0],[0]]","16","0","","","","","","5","","","","","","","","",""
"","","","","","single-stim-button","262","506613","0.0-2.0-59.2-1.2","6400d916e410c86255a45836","E1","batch5","","575","tol_toboard","","","","tol_peg_1","575","575","0","[[2,0,0],[3,0],[1]]","3","[[3,1,0],[2,0],[0]]","16","0","","","","","","5","","","","","","","","",""
"","","","","","single-stim-button","263","507165","0.0-2.0-59.3-0.3","6400d916e410c86255a45836","E1","batch5","","551","tol_tohand","","","","tol_peg_3","551","551","0","[[2,0,0],[3,0],[0]]","4","[[3,1,0],[2,0],[0]]","16","0","","","","","","5","","","","","","","","",""
"","","","","","single-stim-button","264","507605","0.0-2.0-59.3-1.3","6400d916e410c86255a45836","E1","batch5","","440","tol_toboard","","","","tol_peg_2","440","440","0","[[2,0,0],[3,1],[0]]","4","[[3,1,0],[2,0],[0]]","16","0","","","","","","5","","","","","","","","",""
"","","","","","single-stim-button","265","508189","0.0-2.0-59.4-0.4","6400d916e410c86255a45836","E1","batch5","","583","tol_tohand","","","","tol_peg_1","583","583","0","[[0,0,0],[3,1],[0]]","5","[[3,1,0],[2,0],[0]]","16","0","","","","","","5","","","","","","","","",""
"","","","","","single-stim-button","266","511734","0.0-2.0-59.4-1.4","6400d916e410c86255a45836","E1","batch5","","3544","tol_toboard","","","","tol_peg_3","3544","3544","0","[[0,0,0],[3,1],[2]]","5","[[3,1,0],[2,0],[0]]","16","0","","","","","","5","","","","","","","","",""
"","","","","","single-stim-button","267","515174","0.0-2.0-59.5-0.5","6400d916e410c86255a45836","E1","batch5","","3440","tol_tohand","","","","tol_peg_2","3440","3440","0","[[0,0,0],[3,0],[2]]","6","[[3,1,0],[2,0],[0]]","16","0","","","","","","5","","","","","","","","",""
"","","","","","single-stim-button","268","515661","0.0-2.0-59.5-1.5","6400d916e410c86255a45836","E1","batch5","","487","tol_toboard","","","","tol_peg_1","487","487","0","[[1,0,0],[3,0],[2]]","6","[[3,1,0],[2,0],[0]]","16","0","","","","","","5","","","","","","","","",""
"","","","","","single-stim-button","269","518845","0.0-2.0-59.6-0.6","6400d916e410c86255a45836","E1","batch5","","3184","tol_tohand","","","","tol_peg_3","3184","3184","0","[[1,0,0],[3,0],[0]]","7","[[3,1,0],[2,0],[0]]","16","0","","","","","","5","","","","","","","","",""
"","","","","","single-stim-button","270","519429","0.0-2.0-59.6-1.6","6400d916e410c86255a45836","E1","batch5","","583","tol_toboard","","","","tol_peg_1","583","583","0","[[1,2,0],[3,0],[0]]","7","[[3,1,0],[2,0],[0]]","16","0","","","","","","5","","","","","","","","",""
"","","","","","single-stim-button","271","519877","0.0-2.0-59.7-0.7","6400d916e410c86255a45836","E1","batch5","","447","tol_tohand","","","","tol_peg_2","447","447","0","[[1,2,0],[0,0],[0]]","8","[[3,1,0],[2,0],[0]]","16","0","","","","","","5","","","","","","","","",""
"","","","","","single-stim-button","272","520421","0.0-2.0-59.7-1.7","6400d916e410c86255a45836","E1","batch5","","542","tol_toboard","","","","tol_peg_3","542","542","0","[[1,2,0],[0,0],[3]]","8","[[3,1,0],[2,0],[0]]","16","0","","","","","","5","","","","","","","","",""
"","","","","","single-stim-button","273","521781","0.0-2.0-59.8-0.8","6400d916e410c86255a45836","E1","batch5","","1360","tol_tohand","","","","tol_peg_1","1360","1360","0","[[1,0,0],[0,0],[3]]","9","[[3,1,0],[2,0],[0]]","16","0","","","","","","5","","","","","","","","",""
"","","","","","single-stim-button","274","522430","0.0-2.0-59.8-1.8","6400d916e410c86255a45836","E1","batch5","","649","tol_toboard","","","","tol_peg_2","649","649","0","[[1,0,0],[2,0],[3]]","9","[[3,1,0],[2,0],[0]]","16","0","","","","","","5","","","","","","","","",""
"","","","","","single-stim-button","275","522893","0.0-2.0-59.9-0.9","6400d916e410c86255a45836","E1","batch5","","462","tol_tohand","","","","tol_peg_1","462","462","0","[[0,0,0],[2,0],[3]]","10","[[3,1,0],[2,0],[0]]","16","0","","","","","","5","","","","","","","","",""
"","","","","","single-stim-button","276","523261","0.0-2.0-59.9-1.9","6400d916e410c86255a45836","E1","batch5","","368","tol_toboard","","","","tol_peg_2","368","368","0","[[0,0,0],[2,1],[3]]","10","[[3,1,0],[2,0],[0]]","16","0","","","","","","5","","","","","","","","",""
"","","","","","single-stim-button","277","523596","0.0-2.0-59.10-0.10","6400d916e410c86255a45836","E1","batch5","","334","tol_tohand","","","","tol_peg_3","334","334","0","[[0,0,0],[2,1],[0]]","11","[[3,1,0],[2,0],[0]]","16","0","","","","","","5","","","","","","","","",""
"","","","","","single-stim-button","278","524069","0.0-2.0-59.10-1.10","6400d916e410c86255a45836","E1","batch5","","472","tol_toboard","","","","tol_peg_1","472","472","0","[[3,0,0],[2,1],[0]]","11","[[3,1,0],[2,0],[0]]","16","0","","","","","","5","","","","","","","","",""
"","","","","","single-stim-button","279","524500","0.0-2.0-59.11-0.11","6400d916e410c86255a45836","E1","batch5","","430","tol_tohand","","","","tol_peg_2","430","430","0","[[3,0,0],[2,0],[0]]","12","[[3,1,0],[2,0],[0]]","16","0","","","","","","5","","","","","","","","",""
"","","","","","single-stim-button","280","524869","0.0-2.0-59.11-1.11","6400d916e410c86255a45836","E1","batch5","","368","tol_toboard","","","","tol_peg_1","368","368","0","[[3,1,0],[2,0],[0]]","12","[[3,1,0],[2,0],[0]]","16","0","","","","","","5","","","","","","","","",""
"","","","","","poldrack-single-stim","281","525877","0.0-2.0-60.0","6400d916e410c86255a45836","E1","batch5","","-1","tol_feedback","","","true","","1000","1000","500","","","","","","-1","none","true","5240","20694","","","","","","","","","",""
"","","","","","html-button-response","282","526621","0.0-2.0-61.0","6400d916e410c86255a45836","E1","batch5","","743.5999999046326","tol_trial_num","<div class = centerbox><p class = center-block-text>problem <strong>18</strong> out of 25 problems</p></div>","0","","","","","","","","","","","","","","","","","","","","","","","","",""
"","","","","","single-stim-button","283","531990","0.0-2.0-62.0-0.0","6400d916e410c86255a45836","E1","batch5","","5368","tol_tohand","","","","tol_peg_1","5368","5368","0","[[1,0,0],[3,0],[0]]","1","[[3,0,0],[2,0],[1]]","17","0","","","","","","5","","","","","","","","",""
"","","","","","single-stim-button","284","533341","0.0-2.0-62.0-1.0","6400d916e410c86255a45836","E1","batch5","","1351","tol_toboard","","","","tol_peg_3","1351","1351","0","[[1,0,0],[3,0],[2]]","1","[[3,0,0],[2,0],[1]]","17","0","","","","","","5","","","","","","","","",""
"","","","","","single-stim-button","285","534629","0.0-2.0-62.1-0.1","6400d916e410c86255a45836","E1","batch5","","1288","tol_tohand","","","","tol_peg_1","1288","1288","0","[[0,0,0],[3,0],[2]]","2","[[3,0,0],[2,0],[1]]","17","0","","","","","","5","","","","","","","","",""
"","","","","","single-stim-button","286","535998","0.0-2.0-62.1-1.1","6400d916e410c86255a45836","E1","batch5","","1367","tol_toboard","","","","tol_peg_2","1367","1367","0","[[0,0,0],[3,1],[2]]","2","[[3,0,0],[2,0],[1]]","17","0","","","","","","5","","","","","","","","",""
"","","","","","single-stim-button","287","536893","0.0-2.0-62.2-0.2","6400d916e410c86255a45836","E1","batch5","","895","tol_tohand","","","","tol_peg_3","895","895","0","[[0,0,0],[3,1],[0]]","3","[[3,0,0],[2,0],[1]]","17","0","","","","","","5","","","","","","","","",""
"","","","","","single-stim-button","288","537549","0.0-2.0-62.2-1.2","6400d916e410c86255a45836","E1","batch5","","655","tol_toboard","","","","tol_peg_1","655","655","0","[[2,0,0],[3,1],[0]]","3","[[3,0,0],[2,0],[1]]","17","0","","","","","","5","","","","","","","","",""
"","","","","","single-stim-button","289","538029","0.0-2.0-62.3-0.3","6400d916e410c86255a45836","E1","batch5","","479","tol_tohand","","","","tol_peg_2","479","479","0","[[2,0,0],[3,0],[0]]","4","[[3,0,0],[2,0],[1]]","17","0","","","","","","5","","","","","","","","",""
"","","","","","single-stim-button","290","538870","0.0-2.0-62.3-1.3","6400d916e410c86255a45836","E1","batch5","","839","tol_toboard","","","","tol_peg_3","839","839","0","[[2,0,0],[3,0],[1]]","4","[[3,0,0],[2,0],[1]]","17","0","","","","","","5","","","","","","","","",""
"","","","","","single-stim-button","291","547646","0.0-2.0-62.4-0.4","6400d916e410c86255a45836","E1","batch5","","8775","tol_tohand","","","","tol_peg_3","8775","8775","0","[[2,0,0],[3,0],[0]]","5","[[3,0,0],[2,0],[1]]","17","0","","","","","","5","","","","","","","","",""
"","","","","","single-stim-button","292","550261","0.0-2.0-62.4-1.4","6400d916e410c86255a45836","E1","batch5","","2615","tol_toboard","","","","tol_peg_2","2615","2615","0","[[2,0,0],[3,1],[0]]","5","[[3,0,0],[2,0],[1]]","17","0","","","","","","5","","","","","","","","",""
"","","","","","single-stim-button","293","551021","0.0-2.0-62.5-0.5","6400d916e410c86255a45836","E1","batch5","","759","tol_tohand","","","","tol_peg_1","759","759","0","[[0,0,0],[3,1],[0]]","6","[[3,0,0],[2,0],[1]]","17","0","","","","","","5","","","","","","","","",""
"","","","","","single-stim-button","294","552989","0.0-2.0-62.5-1.5","6400d916e410c86255a45836","E1","batch5","","1968","tol_toboard","","","","tol_peg_3","1968","1968","0","[[0,0,0],[3,1],[2]]","6","[[3,0,0],[2,0],[1]]","17","0","","","","","","5","","","","","","","","",""
"","","","","","single-stim-button","295","554301","0.0-2.0-62.6-0.6","6400d916e410c86255a45836","E1","batch5","","1312","tol_tohand","","","","tol_peg_2","1312","1312","0","[[0,0,0],[3,0],[2]]","7","[[3,0,0],[2,0],[1]]","17","0","","","","","","5","","","","","","","","",""
"","","","","","single-stim-button","296","554917","0.0-2.0-62.6-1.6","6400d916e410c86255a45836","E1","batch5","","615","tol_toboard","","","","tol_peg_1","615","615","0","[[1,0,0],[3,0],[2]]","7","[[3,0,0],[2,0],[1]]","17","0","","","","","","5","","","","","","","","",""
"","","","","","single-stim-button","297","555966","0.0-2.0-62.7-0.7","6400d916e410c86255a45836","E1","batch5","","1048","tol_tohand","","","","tol_peg_2","1048","1048","0","[[1,0,0],[0,0],[2]]","8","[[3,0,0],[2,0],[1]]","17","0","","","","","","5","","","","","","","","",""
"","","","","","single-stim-button","298","556381","0.0-2.0-62.7-1.7","6400d916e410c86255a45836","E1","batch5","","415","tol_toboard","","","","tol_peg_1","415","415","0","[[1,3,0],[0,0],[2]]","8","[[3,0,0],[2,0],[1]]","17","0","","","","","","5","","","","","","","","",""
"","","","","","single-stim-button","299","557381","0.0-2.0-62.8-0.8","6400d916e410c86255a45836","E1","batch5","","999","tol_tohand","","","","tol_peg_3","999","999","0","[[1,3,0],[0,0],[0]]","9","[[3,0,0],[2,0],[1]]","17","0","","","","","","5","","","","","","","","",""
"","","","","","single-stim-button","300","557805","0.0-2.0-62.8-1.8","6400d916e410c86255a45836","E1","batch5","","423","tol_toboard","","","","tol_peg_2","423","423","0","[[1,3,0],[2,0],[0]]","9","[[3,0,0],[2,0],[1]]","17","0","","","","","","5","","","","","","","","",""
"","","","","","single-stim-button","301","558189","0.0-2.0-62.9-0.9","6400d916e410c86255a45836","E1","batch5","","383","tol_tohand","","","","tol_peg_1","383","383","0","[[1,0,0],[2,0],[0]]","10","[[3,0,0],[2,0],[1]]","17","0","","","","","","5","","","","","","","","",""
"","","","","","single-stim-button","302","558533","0.0-2.0-62.9-1.9","6400d916e410c86255a45836","E1","batch5","","344","tol_toboard","","","","tol_peg_2","344","344","0","[[1,0,0],[2,3],[0]]","10","[[3,0,0],[2,0],[1]]","17","0","","","","","","5","","","","","","","","",""
"","","","","","single-stim-button","303","558885","0.0-2.0-62.10-0.10","6400d916e410c86255a45836","E1","batch5","","352","tol_tohand","","","","tol_peg_1","352","352","0","[[0,0,0],[2,3],[0]]","11","[[3,0,0],[2,0],[1]]","17","0","","","","","","5","","","","","","","","",""
"","","","","","single-stim-button","304","559357","0.0-2.0-62.10-1.10","6400d916e410c86255a45836","E1","batch5","","472","tol_toboard","","","","tol_peg_3","472","472","0","[[0,0,0],[2,3],[1]]","11","[[3,0,0],[2,0],[1]]","17","0","","","","","","5","","","","","","","","",""
"","","","","","single-stim-button","305","559805","0.0-2.0-62.11-0.11","6400d916e410c86255a45836","E1","batch5","","448","tol_tohand","","","","tol_peg_2","448","448","0","[[0,0,0],[2,0],[1]]","12","[[3,0,0],[2,0],[1]]","17","0","","","","","","5","","","","","","","","",""
"","","","","","single-stim-button","306","560101","0.0-2.0-62.11-1.11","6400d916e410c86255a45836","E1","batch5","","296","tol_toboard","","","","tol_peg_1","296","296","0","[[3,0,0],[2,0],[1]]","12","[[3,0,0],[2,0],[1]]","17","0","","","","","","5","","","","","","","","",""
"","","","","","poldrack-single-stim","307","561109","0.0-2.0-63.0","6400d916e410c86255a45836","E1","batch5","","-1","tol_feedback","","","true","","1000","1000","500","","","","","","-1","none","true","5368","22106","","","","","","","","","",""
"","","","","","html-button-response","308","561829","0.0-2.0-64.0","6400d916e410c86255a45836","E1","batch5","","719","tol_trial_num","<div class = centerbox><p class = center-block-text>problem <strong>19</strong> out of 25 problems</p></div>","0","","","","","","","","","","","","","","","","","","","","","","","","",""
"","","","","","single-stim-button","309","565534","0.0-2.0-65.0-0.0","6400d916e410c86255a45836","E1","batch5","","3704","tol_tohand","","","","tol_peg_1","3704","3704","0","[[1,0,0],[3,0],[0]]","1","[[0,0,0],[1,2],[3]]","18","0","","","","","","7","","","","","","","","",""
"","","","","","single-stim-button","310","566574","0.0-2.0-65.0-1.0","6400d916e410c86255a45836","E1","batch5","","1040","tol_toboard","","","","tol_peg_3","1040","1040","0","[[1,0,0],[3,0],[2]]","1","[[0,0,0],[1,2],[3]]","18","0","","","","","","7","","","","","","","","",""
"","","","","","single-stim-button","311","572709","0.0-2.0-65.1-0.1","6400d916e410c86255a45836","E1","batch5","","6134","tol_tohand","","","","tol_peg_1","6134","6134","0","[[0,0,0],[3,0],[2]]","2","[[0,0,0],[1,2],[3]]","18","0","","","","","","7","","","","","","","","",""
"","","","","","single-stim-button","312","573478","0.0-2.0-65.1-1.1","6400d916e410c86255a45836","E1","batch5","","768","tol_toboard","","","","tol_peg_2","768","768","0","[[0,0,0],[3,1],[2]]","2","[[0,0,0],[1,2],[3]]","18","0","","","","","","7","","","","","","","","",""
"","","","","","single-stim-button","313","576702","0.0-2.0-65.2-0.2","6400d916e410c86255a45836","E1","batch5","","3224","tol_tohand","","","","tol_peg_3","3224","3224","0","[[0,0,0],[3,1],[0]]","3","[[0,0,0],[1,2],[3]]","18","0","","","","","","7","","","","","","","","",""
"","","","","","single-stim-button","314","577573","0.0-2.0-65.2-1.2","6400d916e410c86255a45836","E1","batch5","","871","tol_toboard","","","","tol_peg_1","871","871","0","[[2,0,0],[3,1],[0]]","3","[[0,0,0],[1,2],[3]]","18","0","","","","","","7","","","","","","","","",""
"","","","","","single-stim-button","315","578157","0.0-2.0-65.3-0.3","6400d916e410c86255a45836","E1","batch5","","583","tol_tohand","","","","tol_peg_2","583","583","0","[[2,0,0],[3,0],[0]]","4","[[0,0,0],[1,2],[3]]","18","0","","","","","","7","","","","","","","","",""
"","","","","","single-stim-button","316","578933","0.0-2.0-65.3-1.3","6400d916e410c86255a45836","E1","batch5","","776","tol_toboard","","","","tol_peg_3","776","776","0","[[2,0,0],[3,0],[1]]","4","[[0,0,0],[1,2],[3]]","18","0","","","","","","7","","","","","","","","",""
"","","","","","single-stim-button","317","582237","0.0-2.0-65.4-0.4","6400d916e410c86255a45836","E1","batch5","","3303","tol_tohand","","","","tol_peg_2","3303","3303","0","[[2,0,0],[0,0],[1]]","5","[[0,0,0],[1,2],[3]]","18","0","","","","","","7","","","","","","","","",""
"","","","","","single-stim-button","318","582685","0.0-2.0-65.4-1.4","6400d916e410c86255a45836","E1","batch5","","447","tol_toboard","","","","tol_peg_1","447","447","0","[[2,3,0],[0,0],[1]]","5","[[0,0,0],[1,2],[3]]","18","0","","","","","","7","","","","","","","","",""
"","","","","","single-stim-button","319","583205","0.0-2.0-65.5-0.5","6400d916e410c86255a45836","E1","batch5","","519","tol_tohand","","","","tol_peg_3","519","519","0","[[2,3,0],[0,0],[0]]","6","[[0,0,0],[1,2],[3]]","18","0","","","","","","7","","","","","","","","",""
"","","","","","single-stim-button","320","583685","0.0-2.0-65.5-1.5","6400d916e410c86255a45836","E1","batch5","","480","tol_toboard","","","","tol_peg_2","480","480","0","[[2,3,0],[1,0],[0]]","6","[[0,0,0],[1,2],[3]]","18","0","","","","","","7","","","","","","","","",""
"","","","","","single-stim-button","321","584413","0.0-2.0-65.6-0.6","6400d916e410c86255a45836","E1","batch5","","727","tol_tohand","","","","tol_peg_1","727","727","0","[[2,0,0],[1,0],[0]]","7","[[0,0,0],[1,2],[3]]","18","0","","","","","","7","","","","","","","","",""
"","","","","","single-stim-button","322","584974","0.0-2.0-65.6-1.6","6400d916e410c86255a45836","E1","batch5","","559","tol_toboard","","","","tol_peg_3","559","559","0","[[2,0,0],[1,0],[3]]","7","[[0,0,0],[1,2],[3]]","18","0","","","","","","7","","","","","","","","",""
"","","","","","single-stim-button","323","585389","0.0-2.0-65.7-0.7","6400d916e410c86255a45836","E1","batch5","","415","tol_tohand","","","","tol_peg_1","415","415","0","[[0,0,0],[1,0],[3]]","8","[[0,0,0],[1,2],[3]]","18","0","","","","","","7","","","","","","","","",""
"","","","","","single-stim-button","324","585741","0.0-2.0-65.7-1.7","6400d916e410c86255a45836","E1","batch5","","352","tol_toboard","","","","tol_peg_2","352","352","0","[[0,0,0],[1,2],[3]]","8","[[0,0,0],[1,2],[3]]","18","0","","","","","","7","","","","","","","","",""
"","","","","","poldrack-single-stim","325","586743","0.0-2.0-66.0","6400d916e410c86255a45836","E1","batch5","","-1","tol_feedback","","","true","","1000","1000","500","","","","","","-1","none","true","3704","18609","","","","","","","","","",""
"","","","","","html-button-response","326","587469","0.0-2.0-67.0","6400d916e410c86255a45836","E1","batch5","","726","tol_trial_num","<div class = centerbox><p class = center-block-text>problem <strong>20</strong> out of 25 problems</p></div>","0","","","","","","","","","","","","","","","","","","","","","","","","",""
"","","","","","single-stim-button","327","595005","0.0-2.0-68.0-0.0","6400d916e410c86255a45836","E1","batch5","","7536","tol_tohand","","","","tol_peg_1","7536","7536","0","[[1,0,0],[3,0],[0]]","1","[[2,1,0],[0,0],[3]]","19","0","","","","","","5","","","","","","","","",""
"","","","","","single-stim-button","328","595645","0.0-2.0-68.0-1.0","6400d916e410c86255a45836","E1","batch5","","639","tol_toboard","","","","tol_peg_3","639","639","0","[[1,0,0],[3,0],[2]]","1","[[2,1,0],[0,0],[3]]","19","0","","","","","","5","","","","","","","","",""
"","","","","","single-stim-button","329","596141","0.0-2.0-68.1-0.1","6400d916e410c86255a45836","E1","batch5","","495","tol_tohand","","","","tol_peg_2","495","495","0","[[1,0,0],[0,0],[2]]","2","[[2,1,0],[0,0],[3]]","19","0","","","","","","5","","","","","","","","",""
"","","","","","single-stim-button","330","596509","0.0-2.0-68.1-1.1","6400d916e410c86255a45836","E1","batch5","","368","tol_toboard","","","","tol_peg_1","368","368","0","[[1,3,0],[0,0],[2]]","2","[[2,1,0],[0,0],[3]]","19","0","","","","","","5","","","","","","","","",""
"","","","","","single-stim-button","331","597421","0.0-2.0-68.2-0.2","6400d916e410c86255a45836","E1","batch5","","911","tol_tohand","","","","tol_peg_3","911","911","0","[[1,3,0],[0,0],[0]]","3","[[2,1,0],[0,0],[3]]","19","0","","","","","","5","","","","","","","","",""
"","","","","","single-stim-button","332","598005","0.0-2.0-68.2-1.2","6400d916e410c86255a45836","E1","batch5","","584","tol_toboard","","","","tol_peg_2","584","584","0","[[1,3,0],[2,0],[0]]","3","[[2,1,0],[0,0],[3]]","19","0","","","","","","5","","","","","","","","",""
"","","","","","single-stim-button","333","598606","0.0-2.0-68.3-0.3","6400d916e410c86255a45836","E1","batch5","","600","tol_tohand","","","","tol_peg_1","600","600","0","[[1,0,0],[2,0],[0]]","4","[[2,1,0],[0,0],[3]]","19","0","","","","","","5","","","","","","","","",""
"","","","","","single-stim-button","334","599069","0.0-2.0-68.3-1.3","6400d916e410c86255a45836","E1","batch5","","463","tol_toboard","","","","tol_peg_3","463","463","0","[[1,0,0],[2,0],[3]]","4","[[2,1,0],[0,0],[3]]","19","0","","","","","","5","","","","","","","","",""
"","","","","","single-stim-button","335","599492","0.0-2.0-68.4-0.4","6400d916e410c86255a45836","E1","batch5","","423","tol_tohand","","","","tol_peg_1","423","423","0","[[0,0,0],[2,0],[3]]","5","[[2,1,0],[0,0],[3]]","19","0","","","","","","5","","","","","","","","",""
"","","","","","single-stim-button","336","599797","0.0-2.0-68.4-1.4","6400d916e410c86255a45836","E1","batch5","","304","tol_toboard","","","","tol_peg_2","304","304","0","[[0,0,0],[2,1],[3]]","5","[[2,1,0],[0,0],[3]]","19","0","","","","","","5","","","","","","","","",""
"","","","","","single-stim-button","337","607909","0.0-2.0-68.5-0.5","6400d916e410c86255a45836","E1","batch5","","8111","tol_tohand","","","","tol_peg_3","8111","8111","0","[[0,0,0],[2,1],[0]]","6","[[2,1,0],[0,0],[3]]","19","0","","","","","","5","","","","","","","","",""
"","","","","","single-stim-button","338","608541","0.0-2.0-68.5-1.5","6400d916e410c86255a45836","E1","batch5","","632","tol_toboard","","","","tol_peg_1","632","632","0","[[3,0,0],[2,1],[0]]","6","[[2,1,0],[0,0],[3]]","19","0","","","","","","5","","","","","","","","",""
"","","","","","single-stim-button","339","609909","0.0-2.0-68.6-0.6","6400d916e410c86255a45836","E1","batch5","","1368","tol_tohand","","","","tol_peg_2","1368","1368","0","[[3,0,0],[2,0],[0]]","7","[[2,1,0],[0,0],[3]]","19","0","","","","","","5","","","","","","","","",""
"","","","","","single-stim-button","340","610669","0.0-2.0-68.6-1.6","6400d916e410c86255a45836","E1","batch5","","760","tol_toboard","","","","tol_peg_3","760","760","0","[[3,0,0],[2,0],[1]]","7","[[2,1,0],[0,0],[3]]","19","0","","","","","","5","","","","","","","","",""
"","","","","","single-stim-button","341","614405","0.0-2.0-68.7-0.7","6400d916e410c86255a45836","E1","batch5","","3735","tol_tohand","","","","tol_peg_2","3735","3735","0","[[3,0,0],[0,0],[1]]","8","[[2,1,0],[0,0],[3]]","19","0","","","","","","5","","","","","","","","",""
"","","","","","single-stim-button","342","615005","0.0-2.0-68.7-1.7","6400d916e410c86255a45836","E1","batch5","","599","tol_toboard","","","","tol_peg_1","599","599","0","[[3,2,0],[0,0],[1]]","8","[[2,1,0],[0,0],[3]]","19","0","","","","","","5","","","","","","","","",""
"","","","","","single-stim-button","343","615877","0.0-2.0-68.8-0.8","6400d916e410c86255a45836","E1","batch5","","872","tol_tohand","","","","tol_peg_3","872","872","0","[[3,2,0],[0,0],[0]]","9","[[2,1,0],[0,0],[3]]","19","0","","","","","","5","","","","","","","","",""
"","","","","","single-stim-button","344","617230","0.0-2.0-68.8-1.8","6400d916e410c86255a45836","E1","batch5","","1351","tol_toboard","","","","tol_peg_2","1351","1351","0","[[3,2,0],[1,0],[0]]","9","[[2,1,0],[0,0],[3]]","19","0","","","","","","5","","","","","","","","",""
"","","","","","single-stim-button","345","618389","0.0-2.0-68.9-0.9","6400d916e410c86255a45836","E1","batch5","","1158","tol_tohand","","","","tol_peg_1","1158","1158","0","[[3,0,0],[1,0],[0]]","10","[[2,1,0],[0,0],[3]]","19","0","","","","","","5","","","","","","","","",""
"","","","","","single-stim-button","346","618829","0.0-2.0-68.9-1.9","6400d916e410c86255a45836","E1","batch5","","440","tol_toboard","","","","tol_peg_2","440","440","0","[[3,0,0],[1,2],[0]]","10","[[2,1,0],[0,0],[3]]","19","0","","","","","","5","","","","","","","","",""
"","","","","","single-stim-button","347","619325","0.0-2.0-68.10-0.10","6400d916e410c86255a45836","E1","batch5","","496","tol_tohand","","","","tol_peg_1","496","496","0","[[0,0,0],[1,2],[0]]","11","[[2,1,0],[0,0],[3]]","19","0","","","","","","5","","","","","","","","",""
"","","","","","single-stim-button","348","620181","0.0-2.0-68.10-1.10","6400d916e410c86255a45836","E1","batch5","","854","tol_toboard","","","","tol_peg_3","854","854","0","[[0,0,0],[1,2],[3]]","11","[[2,1,0],[0,0],[3]]","19","0","","","","","","5","","","","","","","","",""
"","","","","","single-stim-button","349","620654","0.0-2.0-68.11-0.11","6400d916e410c86255a45836","E1","batch5","","472","tol_tohand","","","","tol_peg_2","472","472","0","[[0,0,0],[1,0],[3]]","12","[[2,1,0],[0,0],[3]]","19","0","","","","","","5","","","","","","","","",""
"","","","","","single-stim-button","350","621030","0.0-2.0-68.11-1.11","6400d916e410c86255a45836","E1","batch5","","375","tol_toboard","","","","tol_peg_1","375","375","0","[[2,0,0],[1,0],[3]]","12","[[2,1,0],[0,0],[3]]","19","0","","","","","","5","","","","","","","","",""
"","","","","","single-stim-button","351","621453","0.0-2.0-68.12-0.12","6400d916e410c86255a45836","E1","batch5","","422","tol_tohand","","","","tol_peg_2","422","422","0","[[2,0,0],[0,0],[3]]","13","[[2,1,0],[0,0],[3]]","19","0","","","","","","5","","","","","","","","",""
"","","","","","single-stim-button","352","621798","0.0-2.0-68.12-1.12","6400d916e410c86255a45836","E1","batch5","","344","tol_toboard","","","","tol_peg_1","344","344","0","[[2,1,0],[0,0],[3]]","13","[[2,1,0],[0,0],[3]]","19","0","","","","","","5","","","","","","","","",""
"","","","","","poldrack-single-stim","353","622799","0.0-2.0-69.0","6400d916e410c86255a45836","E1","batch5","","-1","tol_feedback","","","true","","1000","1000","500","","","","","","-1","none","true","7536","26599","","","","","","","","","",""
"","","","","","html-button-response","354","623574","0.0-2.0-70.0","6400d916e410c86255a45836","E1","batch5","","774","tol_trial_num","<div class = centerbox><p class = center-block-text>problem <strong>21</strong> out of 25 problems</p></div>","0","","","","","","","","","","","","","","","","","","","","","","","","",""
"","","","","","single-stim-button","355","630229","0.0-2.0-71.0-0.0","6400d916e410c86255a45836","E1","batch5","","6655","tol_tohand","","","","tol_peg_1","6655","6655","0","[[1,0,0],[3,0],[0]]","1","[[3,2,0],[0,0],[1]]","20","0","","","","","","6","","","","","","","","",""
"","","","","","single-stim-button","356","631077","0.0-2.0-71.0-1.0","6400d916e410c86255a45836","E1","batch5","","847","tol_toboard","","","","tol_peg_3","847","847","0","[[1,0,0],[3,0],[2]]","1","[[3,2,0],[0,0],[1]]","20","0","","","","","","6","","","","","","","","",""
