"success","timeout","failed_images","failed_audio","failed_video","trial_type","trial_index","time_elapsed","internal_node_id","subject_id","study_id","session_id","view_history","rt","stimulus","response","task","correct","answer","item","fiar_detect_rt","fiar_detect_correct","total_correct_fiar_detect","post_trial_gap","choices","mouse_click","stim_duration","block_duration","timing_post_trial","current_position","tol_num_moves_made","tol_target","tol_problem_id","tol_rt","key_press","possible_responses","tol_correct","preplanning","tol_rt_per_trial","tol_min_moves","spm_correct","spm_rt"
"true","false","[]","[]","[]","preload","0","2800","0.0-0.0","6400dbb883a12b7946a0c4b5","D2","batch4","","","","","","","","","","","","","","","","","","","","","","","","","","","","","",""
"true","","","","","fullscreen","1","10455","0.0-1.0-0.0","6400dbb883a12b7946a0c4b5","D2","batch4","","","","","","","","","","","","","","","","","","","","","","","","","","","","","",""
"true","","","","","fullscreen","2","12887","0.0-2.0-0.0","6400dbb883a12b7946a0c4b5","D2","batch4","","","","","","","","","","","","","","","","","","","","","","","","","","","","","",""
"","","","","","instructions","3","28463","0.0-2.0-1.0-0.0","6400dbb883a12b7946a0c4b5","D2","batch4","[{""page_index"":0,""viewing_time"":6431},{""page_index"":1,""viewing_time"":9144.700000047684}]","15575.800000071526","","","","","","","","","","","","","","","","","","","","","","","","","","","",""
"","","","","","html-button-response","4","29487","0.0-2.0-1.0-1.0-0.0","6400dbb883a12b7946a0c4b5","D2","batch4","","1023.2999999523163","<p class=block-text> Let's answer a few questions <br>","0","pattern_enter_quiz","","","","","","","","","","","","","","","","","","","","","","","","",""
"","","","","","html-button-response","5","30751","0.0-2.0-1.0-1.0-1.0","6400dbb883a12b7946a0c4b5","D2","batch4","","1263.2000000476837","<p class = block-text>True or False: You will have as much time as you want to make each choice. <br></p>","1","pattern_quiz","true","","","","","","","","","","","","","","","","","","","","","","","",""
"","","","","","html-button-response","6","31343","0.0-2.0-1.0-1.0-2.0","6400dbb883a12b7946a0c4b5","D2","batch4","","591.5999999046326","<p class = block-text>Correct! You should make your choice <strong> as fast as you can</strong>.</p>","0","pattern_quiz_feedback","","","","","","","","","","","","","","","","","","","","","","","","",""
"","","","","","html-button-response","7","34262","0.0-2.0-1.0-1.0-3.0","6400dbb883a12b7946a0c4b5","D2","batch4","","2919","<p class = block-text>True or False: You will look for 4 pieces in black or white color connected in a row either horizontally, vertically or diagonally. <br></p>","0","pattern_quiz","true","","","","","","","","","","","","","","","","","","","","","","","",""
"","","","","","html-button-response","8","34887","0.0-2.0-1.0-1.0-4.0","6400dbb883a12b7946a0c4b5","D2","batch4","","624.3999999761581","<p class = block-text>Correct! </p>","0","pattern_quiz_feedback","","","","","","","","","","","","","","","","","","","","","","","","",""
"","","","","","html-button-response","9","35110","0.0-2.0-2.0","6400dbb883a12b7946a0c4b5","D2","batch4","","222.10000002384186","<p class=block-text> Now that you've understood the game, let's do a few practice trials before we start!<br> <br>","0","pattern_enter_practice","","","","","","","","","","","","","","","","","","","","","","","","",""
"","","","","","image-keyboard-response","10","37641","0.0-2.0-3.0-0.0","6400dbb883a12b7946a0c4b5","D2","batch4","","2529.1999999284744","stim/prac_yes_18_hor_w1.png","f","pattern_practice","true","f","","","","","","","","","","","","","","","","","","","","","","",""
"","","","","","html-keyboard-response","11","38643","0.0-2.0-3.0-1.0","6400dbb883a12b7946a0c4b5","D2","batch4","","null","<p style=""font-size:30px;color:green;"">Correct!</p>","null","pattern_feedback","","","","","","","","","","","","","","","","","","","","","","","","",""
"","","","","","image-keyboard-response","12","40254","0.0-2.0-3.0-0.1","6400dbb883a12b7946a0c4b5","D2","batch4","","1610.3999999761581","stim/prac_no_16_1.png","j","pattern_practice","true","j","","","","","","","","","","","","","","","","","","","","","","",""
"","","","","","html-keyboard-response","13","41256","0.0-2.0-3.0-1.1","6400dbb883a12b7946a0c4b5","D2","batch4","","null","<p style=""font-size:30px;color:green;"">Correct!</p>","null","pattern_feedback","","","","","","","","","","","","","","","","","","","","","","","","",""
"","","","","","image-keyboard-response","14","42449","0.0-2.0-3.0-0.2","6400dbb883a12b7946a0c4b5","D2","batch4","","1192.7000000476837","stim/prac_yes_16_ver_w1.png","f","pattern_practice","true","f","","","","","","","","","","","","","","","","","","","","","","",""
"","","","","","html-keyboard-response","15","43451","0.0-2.0-3.0-1.2","6400dbb883a12b7946a0c4b5","D2","batch4","","null","<p style=""font-size:30px;color:green;"">Correct!</p>","null","pattern_feedback","","","","","","","","","","","","","","","","","","","","","","","","",""
"","","","","","image-keyboard-response","16","44428","0.0-2.0-3.0-0.3","6400dbb883a12b7946a0c4b5","D2","batch4","","976.3999999761581","stim/prac_no_18_1.png","j","pattern_practice","true","j","","","","","","","","","","","","","","","","","","","","","","",""
"","","","","","html-keyboard-response","17","45430","0.0-2.0-3.0-1.3","6400dbb883a12b7946a0c4b5","D2","batch4","","null","<p style=""font-size:30px;color:green;"">Correct!</p>","null","pattern_feedback","","","","","","","","","","","","","","","","","","","","","","","","",""
"","","","","","image-keyboard-response","18","46163","0.0-2.0-3.0-0.4","6400dbb883a12b7946a0c4b5","D2","batch4","","732.3999999761581","stim/prac_yes_20_dia_b1.png","j","pattern_practice","false","f","","","","","","","","","","","","","","","","","","","","","","",""
"","","","","","html-keyboard-response","19","47167","0.0-2.0-3.0-1.4","6400dbb883a12b7946a0c4b5","D2","batch4","","null","<p style=""font-size:30px;color:red;"">Wrong.</p>","null","pattern_feedback","","","","","","","","","","","","","","","","","","","","","","","","",""
"","","","","","html-button-response","20","49259","0.0-2.0-4.0","6400dbb883a12b7946a0c4b5","D2","batch4","","2091.2999999523163","<p class=block-text> Good job! You are done with practice trials!<br>
        You responded correctly on 80% of the trials.<br>
        Press the button below to start official trials. Now you won't see any feedback about your response</p>","0","pattern_enter_official_trials","","","","","","","","","","","","","","","","","","","","","","","","",""
"","","","","","html-keyboard-response","21","50060","0.0-2.0-5.0-0.0","6400dbb883a12b7946a0c4b5","D2","batch4","","null","<p class=block-text>Trial 1 out of 78</p>","null","pattern_show_trial_num","","","","","","","","","","","","","","","","","","","","","","","","",""
"","","","","","image-keyboard-response","22","54601","0.0-2.0-5.0-1.0","6400dbb883a12b7946a0c4b5","D2","batch4","","4540.400000095367","stim/no_51_1.png","j","pattern_response","true","j","pattern_31","4540.400000095367","true","1","","","","","","","","","","","","","","","","","","",""
"","","","","","html-keyboard-response","23","55903","0.0-2.0-5.0-0.1","6400dbb883a12b7946a0c4b5","D2","batch4","","null","<p class=block-text>Trial 2 out of 78</p>","null","pattern_show_trial_num","","","","","","","","","","","","","","","","","","","","","","","","",""
"","","","","","image-keyboard-response","24","61192","0.0-2.0-5.0-1.1","6400dbb883a12b7946a0c4b5","D2","batch4","","5287.899999976158","stim/no_67_1.png","j","pattern_response","true","j","pattern_39","5287.899999976158","true","2","","","","","","","","","","","","","","","","","","",""
"","","","","","html-keyboard-response","25","62493","0.0-2.0-5.0-0.2","6400dbb883a12b7946a0c4b5","D2","batch4","","null","<p class=block-text>Trial 3 out of 78</p>","null","pattern_show_trial_num","","","","","","","","","","","","","","","","","","","","","","","","",""
"","","","","","image-keyboard-response","26","68024","0.0-2.0-5.0-1.2","6400dbb883a12b7946a0c4b5","D2","batch4","","5529.399999976158","stim/no_53_1_b.png","j","pattern_response","true","j","pattern_33","5529.399999976158","true","3","","","","","","","","","","","","","","","","","","",""
"","","","","","html-keyboard-response","27","69324","0.0-2.0-5.0-0.3","6400dbb883a12b7946a0c4b5","D2","batch4","","null","<p class=block-text>Trial 4 out of 78</p>","null","pattern_show_trial_num","","","","","","","","","","","","","","","","","","","","","","","","",""
"","","","","","image-keyboard-response","28","70516","0.0-2.0-5.0-1.3","6400dbb883a12b7946a0c4b5","D2","batch4","","1190.7000000476837","stim/yes_46_ver_b1_b.png","f","pattern_response","true","f","pattern_68","1190.7000000476837","true","4","","","","","","","","","","","","","","","","","","",""
"","","","","","html-keyboard-response","29","71819","0.0-2.0-5.0-0.4","6400dbb883a12b7946a0c4b5","D2","batch4","","null","<p class=block-text>Trial 5 out of 78</p>","null","pattern_show_trial_num","","","","","","","","","","","","","","","","","","","","","","","","",""
"","","","","","image-keyboard-response","30","72486","0.0-2.0-5.0-1.4","6400dbb883a12b7946a0c4b5","D2","batch4","","666.7000000476837","stim/yes_39_hor_w1_w.png","f","pattern_response","true","f","pattern_62","666.7000000476837","true","5","","","","","","","","","","","","","","","","","","",""
"","","","","","html-keyboard-response","31","73787","0.0-2.0-5.0-0.5","6400dbb883a12b7946a0c4b5","D2","batch4","","null","<p class=block-text>Trial 6 out of 78</p>","null","pattern_show_trial_num","","","","","","","","","","","","","","","","","","","","","","","","",""
"","","","","","image-keyboard-response","32","77740","0.0-2.0-5.0-1.5","6400dbb883a12b7946a0c4b5","D2","batch4","","3952.100000023842","stim/no_25_1_b.png","j","pattern_response","true","j","pattern_09","3952.100000023842","true","6","","","","","","","","","","","","","","","","","","",""
"","","","","","html-keyboard-response","33","79042","0.0-2.0-5.0-0.6","6400dbb883a12b7946a0c4b5","D2","batch4","","null","<p class=block-text>Trial 7 out of 78</p>","null","pattern_show_trial_num","","","","","","","","","","","","","","","","","","","","","","","","",""
"","","","","","image-keyboard-response","34","83107","0.0-2.0-5.0-1.6","6400dbb883a12b7946a0c4b5","D2","batch4","","4064","stim/yes_51_dia_b1.png","f","pattern_response","true","f","pattern_72","4064","true","7","","","","","","","","","","","","","","","","","","",""
"","","","","","html-keyboard-response","35","84408","0.0-2.0-5.0-0.7","6400dbb883a12b7946a0c4b5","D2","batch4","","null","<p class=block-text>Trial 8 out of 78</p>","null","pattern_show_trial_num","","","","","","","","","","","","","","","","","","","","","","","","",""
"","","","","","image-keyboard-response","36","88437","0.0-2.0-5.0-1.7","6400dbb883a12b7946a0c4b5","D2","batch4","","4027.899999976158","stim/yes_44_ver_w1_w.png","j","pattern_response","false","f","pattern_66","4027.899999976158","false","7","","","","","","","","","","","","","","","","","","",""
"","","","","","html-keyboard-response","37","89738","0.0-2.0-5.0-0.8","6400dbb883a12b7946a0c4b5","D2","batch4","","null","<p class=block-text>Trial 9 out of 78</p>","null","pattern_show_trial_num","","","","","","","","","","","","","","","","","","","","","","","","",""
"","","","","","image-keyboard-response","38","93896","0.0-2.0-5.0-1.8","6400dbb883a12b7946a0c4b5","D2","batch4","","4157.300000071526","stim/yes_42_dia_w1_w.png","f","pattern_response","true","f","pattern_64","4157.300000071526","true","8","","","","","","","","","","","","","","","","","","",""
"","","","","","html-keyboard-response","39","95197","0.0-2.0-5.0-0.9","6400dbb883a12b7946a0c4b5","D2","batch4","","null","<p class=block-text>Trial 10 out of 78</p>","null","pattern_show_trial_num","","","","","","","","","","","","","","","","","","","","","","","","",""
"","","","","","image-keyboard-response","40","96597","0.0-2.0-5.0-1.9","6400dbb883a12b7946a0c4b5","D2","batch4","","1398.8000000715256","stim/yes_26_dia_w2_w.png","j","pattern_response","false","f","pattern_50","1398.8000000715256","false","8","","","","","","","","","","","","","","","","","","",""
"","","","","","html-keyboard-response","41","97899","0.0-2.0-5.0-0.10","6400dbb883a12b7946a0c4b5","D2","batch4","","null","<p class=block-text>Trial 11 out of 78</p>","null","pattern_show_trial_num","","","","","","","","","","","","","","","","","","","","","","","","",""
"","","","","","image-keyboard-response","42","102845","0.0-2.0-5.0-1.10","6400dbb883a12b7946a0c4b5","D2","batch4","","4945.299999952316","stim/yes_63_dia_b1.png","j","pattern_response","false","f","pattern_78","4945.299999952316","false","8","","","","","","","","","","","","","","","","","","",""
"","","","","","html-keyboard-response","43","104147","0.0-2.0-5.0-0.11","6400dbb883a12b7946a0c4b5","D2","batch4","","null","<p class=block-text>Trial 12 out of 78</p>","null","pattern_show_trial_num","","","","","","","","","","","","","","","","","","","","","","","","",""
"","","","","","image-keyboard-response","44","105644","0.0-2.0-5.0-1.11","6400dbb883a12b7946a0c4b5","D2","batch4","","1496.3999999761581","stim/no_33_1_b.png","j","pattern_response","true","j","pattern_15","1496.3999999761581","true","9","","","","","","","","","","","","","","","","","","",""
"","","","","","html-keyboard-response","45","106945","0.0-2.0-5.0-0.12","6400dbb883a12b7946a0c4b5","D2","batch4","","null","<p class=block-text>Trial 13 out of 78</p>","null","pattern_show_trial_num","","","","","","","","","","","","","","","","","","","","","","","","",""
"","","","","","image-keyboard-response","46","110050","0.0-2.0-5.0-1.12","6400dbb883a12b7946a0c4b5","D2","batch4","","3104.7000000476837","stim/no_47_1_b.png","j","pattern_response","true","j","pattern_27","3104.7000000476837","true","10","","","","","","","","","","","","","","","","","","",""
"","","","","","html-keyboard-response","47","111352","0.0-2.0-5.0-0.13","6400dbb883a12b7946a0c4b5","D2","batch4","","null","<p class=block-text>Trial 14 out of 78</p>","null","pattern_show_trial_num","","","","","","","","","","","","","","","","","","","","","","","","",""
"","","","","","image-keyboard-response","48","112085","0.0-2.0-5.0-1.13","6400dbb883a12b7946a0c4b5","D2","batch4","","731.3999999761581","stim/no_15_1_w.png","j","pattern_response","true","j","pattern_03","731.3999999761581","true","11","","","","","","","","","","","","","","","","","","",""
"","","","","","html-keyboard-response","49","113386","0.0-2.0-5.0-0.14","6400dbb883a12b7946a0c4b5","D2","batch4","","null","<p class=block-text>Trial 15 out of 78</p>","null","pattern_show_trial_num","","","","","","","","","","","","","","","","","","","","","","","","",""
"","","","","","image-keyboard-response","50","115728","0.0-2.0-5.0-1.14","6400dbb883a12b7946a0c4b5","D2","batch4","","2342","stim/no_30_1_b.png","j","pattern_response","true","j","pattern_13","2342","true","12","","","","","","","","","","","","","","","","","","",""
"","","","","","html-keyboard-response","51","117030","0.0-2.0-5.0-0.15","6400dbb883a12b7946a0c4b5","D2","batch4","","null","<p class=block-text>Trial 16 out of 78</p>","null","pattern_show_trial_num","","","","","","","","","","","","","","","","","","","","","","","","",""
"","","","","","image-keyboard-response","52","117735","0.0-2.0-5.0-1.15","6400dbb883a12b7946a0c4b5","D2","batch4","","705.2000000476837","stim/yes_12_hor_w1_w.png","f","pattern_response","true","f","pattern_42","705.2000000476837","true","13","","","","","","","","","","","","","","","","","","",""
"","","","","","html-keyboard-response","53","119037","0.0-2.0-5.0-0.16","6400dbb883a12b7946a0c4b5","D2","batch4","","null","<p class=block-text>Trial 17 out of 78</p>","null","pattern_show_trial_num","","","","","","","","","","","","","","","","","","","","","","","","",""
"","","","","","image-keyboard-response","54","123911","0.0-2.0-5.0-1.16","6400dbb883a12b7946a0c4b5","D2","batch4","","4873.5","stim/no_39_1_w.png","j","pattern_response","true","j","pattern_21","4873.5","true","14","","","","","","","","","","","","","","","","","","",""
"","","","","","html-keyboard-response","55","125213","0.0-2.0-5.0-0.17","6400dbb883a12b7946a0c4b5","D2","batch4","","null","<p class=block-text>Trial 18 out of 78</p>","null","pattern_show_trial_num","","","","","","","","","","","","","","","","","","","","","","","","",""
"","","","","","image-keyboard-response","56","126744","0.0-2.0-5.0-1.17","6400dbb883a12b7946a0c4b5","D2","batch4","","1530.2000000476837","stim/no_36_1_b.png","j","pattern_response","true","j","pattern_17","1530.2000000476837","true","15","","","","","","","","","","","","","","","","","","",""
"","","","","","html-keyboard-response","57","128045","0.0-2.0-5.0-0.18","6400dbb883a12b7946a0c4b5","D2","batch4","","null","<p class=block-text>Trial 19 out of 78</p>","null","pattern_show_trial_num","","","","","","","","","","","","","","","","","","","","","","","","",""
"","","","","","image-keyboard-response","58","128956","0.0-2.0-5.0-1.18","6400dbb883a12b7946a0c4b5","D2","batch4","","909.8000000715256","stim/yes_33_dia_w1_w.png","j","pattern_response","false","f","pattern_56","909.8000000715256","false","15","","","","","","","","","","","","","","","","","","",""
"","","","","","html-keyboard-response","59","130257","0.0-2.0-5.0-0.19","6400dbb883a12b7946a0c4b5","D2","batch4","","null","<p class=block-text>Trial 20 out of 78</p>","null","pattern_show_trial_num","","","","","","","","","","","","","","","","","","","","","","","","",""
"","","","","","image-keyboard-response","60","131072","0.0-2.0-5.0-1.19","6400dbb883a12b7946a0c4b5","D2","batch4","","815.0999999046326","stim/yes_37_hor_w1_w.png","f","pattern_response","true","f","pattern_60","815.0999999046326","true","16","","","","","","","","","","","","","","","","","","",""
"","","","","","html-keyboard-response","61","132375","0.0-2.0-5.0-0.20","6400dbb883a12b7946a0c4b5","D2","batch4","","null","<p class=block-text>Trial 21 out of 78</p>","null","pattern_show_trial_num","","","","","","","","","","","","","","","","","","","","","","","","",""
"","","","","","image-keyboard-response","62","133252","0.0-2.0-5.0-1.20","6400dbb883a12b7946a0c4b5","D2","batch4","","877","stim/yes_49_hor_w1_b.png","f","pattern_response","true","f","pattern_70","877","true","17","","","","","","","","","","","","","","","","","","",""
"","","","","","html-keyboard-response","63","134554","0.0-2.0-5.0-0.21","6400dbb883a12b7946a0c4b5","D2","batch4","","null","<p class=block-text>Trial 22 out of 78</p>","null","pattern_show_trial_num","","","","","","","","","","","","","","","","","","","","","","","","",""
"","","","","","image-keyboard-response","64","135494","0.0-2.0-5.0-1.21","6400dbb883a12b7946a0c4b5","D2","batch4","","939.6000000238419","stim/yes_15_dia_b1u_b.png","f","pattern_response","true","f","pattern_44","939.6000000238419","true","18","","","","","","","","","","","","","","","","","","",""
"","","","","","html-keyboard-response","65","136796","0.0-2.0-5.0-0.22","6400dbb883a12b7946a0c4b5","D2","batch4","","null","<p class=block-text>Trial 23 out of 78</p>","null","pattern_show_trial_num","","","","","","","","","","","","","","","","","","","","","","","","",""
"","","","","","image-keyboard-response","66","138365","0.0-2.0-5.0-1.22","6400dbb883a12b7946a0c4b5","D2","batch4","","1566.5","stim/yes_70_ver_b1.png","f","pattern_response","true","f","pattern_80","1566.5","true","19","","","","","","","","","","","","","","","","","","",""
"","","","","","html-keyboard-response","67","139667","0.0-2.0-5.0-0.23","6400dbb883a12b7946a0c4b5","D2","batch4","","null","<p class=block-text>Trial 24 out of 78</p>","null","pattern_show_trial_num","","","","","","","","","","","","","","","","","","","","","","","","",""
"","","","","","image-keyboard-response","68","141307","0.0-2.0-5.0-1.23","6400dbb883a12b7946a0c4b5","D2","batch4","","1639.8000000715256","stim/no_22_1_b.png","j","pattern_response","true","j","pattern_07","1639.8000000715256","true","20","","","","","","","","","","","","","","","","","","",""
"","","","","","html-keyboard-response","69","142610","0.0-2.0-5.0-0.24","6400dbb883a12b7946a0c4b5","D2","batch4","","null","<p class=block-text>Trial 25 out of 78</p>","null","pattern_show_trial_num","","","","","","","","","","","","","","","","","","","","","","","","",""
"","","","","","image-keyboard-response","70","144394","0.0-2.0-5.0-1.24","6400dbb883a12b7946a0c4b5","D2","batch4","","1784.1000000238419","stim/no_37_2_w.png","j","pattern_response","true","j","pattern_19","1784.1000000238419","true","21","","","","","","","","","","","","","","","","","","",""
"","","","","","html-keyboard-response","71","145696","0.0-2.0-5.0-0.25","6400dbb883a12b7946a0c4b5","D2","batch4","","null","<p class=block-text>Trial 26 out of 78</p>","null","pattern_show_trial_num","","","","","","","","","","","","","","","","","","","","","","","","",""
"","","","","","image-keyboard-response","72","146464","0.0-2.0-5.0-1.25","6400dbb883a12b7946a0c4b5","D2","batch4","","767.2999999523163","stim/yes_17_ver_b1_b.png","f","pattern_response","true","f","pattern_46","767.2999999523163","true","22","","","","","","","","","","","","","","","","","","",""
"","","","","","html-keyboard-response","73","147766","0.0-2.0-5.0-0.26","6400dbb883a12b7946a0c4b5","D2","batch4","","null","<p class=block-text>Trial 27 out of 78</p>","null","pattern_show_trial_num","","","","","","","","","","","","","","","","","","","","","","","","",""
"","","","","","image-keyboard-response","74","149034","0.0-2.0-5.0-1.26","6400dbb883a12b7946a0c4b5","D2","batch4","","1268","stim/no_28_2.png","j","pattern_response","true","j","pattern_11","1268","true","23","","","","","","","","","","","","","","","","","","",""
"","","","","","html-keyboard-response","75","150335","0.0-2.0-5.0-0.27","6400dbb883a12b7946a0c4b5","D2","batch4","","null","<p class=block-text>Trial 28 out of 78</p>","null","pattern_show_trial_num","","","","","","","","","","","","","","","","","","","","","","","","",""
"","","","","","image-keyboard-response","76","151540","0.0-2.0-5.0-1.27","6400dbb883a12b7946a0c4b5","D2","batch4","","1204.5","stim/yes_36_ver_w1_w.png","f","pattern_response","true","f","pattern_58","1204.5","true","24","","","","","","","","","","","","","","","","","","",""
"","","","","","html-keyboard-response","77","152840","0.0-2.0-5.0-0.28","6400dbb883a12b7946a0c4b5","D2","batch4","","null","<p class=block-text>Trial 29 out of 78</p>","null","pattern_show_trial_num","","","","","","","","","","","","","","","","","","","","","","","","",""
"","","","","","image-keyboard-response","78","153702","0.0-2.0-5.0-1.28","6400dbb883a12b7946a0c4b5","D2","batch4","","861.5","stim/yes_53_ver_b1_b.png","f","pattern_response","true","f","pattern_74","861.5","true","25","","","","","","","","","","","","","","","","","","",""
"","","","","","html-keyboard-response","79","155004","0.0-2.0-5.0-0.29","6400dbb883a12b7946a0c4b5","D2","batch4","","null","<p class=block-text>Trial 30 out of 78</p>","null","pattern_show_trial_num","","","","","","","","","","","","","","","","","","","","","","","","",""
"","","","","","image-keyboard-response","80","155924","0.0-2.0-5.0-1.29","6400dbb883a12b7946a0c4b5","D2","batch4","","919.1000000238419","stim/no_18_1_b.png","j","pattern_response","true","j","pattern_05","919.1000000238419","true","26","","","","","","","","","","","","","","","","","","",""
"","","","","","html-keyboard-response","81","157226","0.0-2.0-5.0-0.30","6400dbb883a12b7946a0c4b5","D2","batch4","","null","<p class=block-text>Trial 31 out of 78</p>","null","pattern_show_trial_num","","","","","","","","","","","","","","","","","","","","","","","","",""
"","","","","","image-keyboard-response","82","157849","0.0-2.0-5.0-1.30","6400dbb883a12b7946a0c4b5","D2","batch4","","622.6000000238419","stim/yes_29_hor_b1_b.png","f","pattern_response","true","f","pattern_52","622.6000000238419","true","27","","","","","","","","","","","","","","","","","","",""
"","","","","","html-keyboard-response","83","159151","0.0-2.0-5.0-0.31","6400dbb883a12b7946a0c4b5","D2","batch4","","null","<p class=block-text>Trial 32 out of 78</p>","null","pattern_show_trial_num","","","","","","","","","","","","","","","","","","","","","","","","",""
"","","","","","image-keyboard-response","84","161338","0.0-2.0-5.0-1.31","6400dbb883a12b7946a0c4b5","D2","batch4","","2186.899999976158","stim/no_43_2_b.png","j","pattern_response","true","j","pattern_23","2186.899999976158","true","28","","","","","","","","","","","","","","","","","","",""
"","","","","","html-keyboard-response","85","162639","0.0-2.0-5.0-0.32","6400dbb883a12b7946a0c4b5","D2","batch4","","null","<p class=block-text>Trial 33 out of 78</p>","null","pattern_show_trial_num","","","","","","","","","","","","","","","","","","","","","","","","",""
"","","","","","image-keyboard-response","86","163419","0.0-2.0-5.0-1.32","6400dbb883a12b7946a0c4b5","D2","batch4","","779.2999999523163","stim/yes_23_ver_b1.png","j","pattern_response","false","f","pattern_48","779.2999999523163","false","28","","","","","","","","","","","","","","","","","","",""
"","","","","","html-keyboard-response","87","164720","0.0-2.0-5.0-0.33","6400dbb883a12b7946a0c4b5","D2","batch4","","null","<p class=block-text>Trial 34 out of 78</p>","null","pattern_show_trial_num","","","","","","","","","","","","","","","","","","","","","","","","",""
"","","","","","image-keyboard-response","88","169078","0.0-2.0-5.0-1.33","6400dbb883a12b7946a0c4b5","D2","batch4","","4357.900000095367","stim/yes_58_dia_w1_w.png","j","pattern_response","false","f","pattern_76","4357.900000095367","false","28","","","","","","","","","","","","","","","","","","",""
"","","","","","html-keyboard-response","89","170380","0.0-2.0-5.0-0.34","6400dbb883a12b7946a0c4b5","D2","batch4","","null","<p class=block-text>Trial 35 out of 78</p>","null","pattern_show_trial_num","","","","","","","","","","","","","","","","","","","","","","","","",""
"","","","","","image-keyboard-response","90","172729","0.0-2.0-5.0-1.34","6400dbb883a12b7946a0c4b5","D2","batch4","","2348","stim/no_58_1_w.png","j","pattern_response","true","j","pattern_35","2348","true","29","","","","","","","","","","","","","","","","","","",""
"","","","","","html-keyboard-response","91","174031","0.0-2.0-5.0-0.35","6400dbb883a12b7946a0c4b5","D2","batch4","","null","<p class=block-text>Trial 36 out of 78</p>","null","pattern_show_trial_num","","","","","","","","","","","","","","","","","","","","","","","","",""
"","","","","","image-keyboard-response","92","175676","0.0-2.0-5.0-1.35","6400dbb883a12b7946a0c4b5","D2","batch4","","1644.8000000715256","stim/no_49_2_b.png","j","pattern_response","true","j","pattern_29","1644.8000000715256","true","30","","","","","","","","","","","","","","","","","","",""
"","","","","","html-keyboard-response","93","176978","0.0-2.0-5.0-0.36","6400dbb883a12b7946a0c4b5","D2","batch4","","null","<p class=block-text>Trial 37 out of 78</p>","null","pattern_show_trial_num","","","","","","","","","","","","","","","","","","","","","","","","",""
"","","","","","image-keyboard-response","94","177955","0.0-2.0-5.0-1.36","6400dbb883a12b7946a0c4b5","D2","batch4","","976.2000000476837","stim/yes_30_ver_b1_b.png","f","pattern_response","true","f","pattern_54","976.2000000476837","true","31","","","","","","","","","","","","","","","","","","",""
"","","","","","html-keyboard-response","95","179257","0.0-2.0-5.0-0.37","6400dbb883a12b7946a0c4b5","D2","batch4","","null","<p class=block-text>Trial 38 out of 78</p>","null","pattern_show_trial_num","","","","","","","","","","","","","","","","","","","","","","","","",""
"","","","","","image-keyboard-response","96","182711","0.0-2.0-5.0-1.37","6400dbb883a12b7946a0c4b5","D2","batch4","","3453.7000000476837","stim/no_45_1_w.png","j","pattern_response","true","j","pattern_25","3453.7000000476837","true","32","","","","","","","","","","","","","","","","","","",""
"","","","","","html-keyboard-response","97","184014","0.0-2.0-5.0-0.38","6400dbb883a12b7946a0c4b5","D2","batch4","","null","<p class=block-text>Trial 39 out of 78</p>","null","pattern_show_trial_num","","","","","","","","","","","","","","","","","","","","","","","","",""
"","","","","","image-keyboard-response","98","184613","0.0-2.0-5.0-1.38","6400dbb883a12b7946a0c4b5","D2","batch4","","597.8000000715256","stim/no_12_1.png","j","pattern_response","true","j","pattern_01","597.8000000715256","true","33","","","","","","","","","","","","","","","","","","",""
"","","","","","image-keyboard-response","99","186465","0.0-2.0-6.0","6400dbb883a12b7946a0c4b5","D2","batch4","","1350.7999999523163","stim/empty_board.png","j","attention_check","true","j","","","","","500","[""f"",""j""]","","","","","","","","","","","","","","","","",""
"","","","","","html-keyboard-response","100","187266","0.0-2.0-7.0-0.0","6400dbb883a12b7946a0c4b5","D2","batch4","","null","<p class=block-text>Trial 40 out of 78</p>","null","pattern_show_trial_num","","","","","","","","","","","","","","","","","","","","","","","","",""
"","","","","","image-keyboard-response","101","187937","0.0-2.0-7.0-1.0","6400dbb883a12b7946a0c4b5","D2","batch4","","670.7000000476837","stim/no_20_1_w.png","j","pattern_response","true","j","pattern_06","670.7000000476837","true","34","","","","","","","","","","","","","","","","","","",""
"","","","","","html-keyboard-response","102","189239","0.0-2.0-7.0-0.1","6400dbb883a12b7946a0c4b5","D2","batch4","","null","<p class=block-text>Trial 41 out of 78</p>","null","pattern_show_trial_num","","","","","","","","","","","","","","","","","","","","","","","","",""
"","","","","","image-keyboard-response","103","190203","0.0-2.0-7.0-1.1","6400dbb883a12b7946a0c4b5","D2","batch4","","962.7999999523163","stim/no_13_2_b.png","j","pattern_response","true","j","pattern_02","962.7999999523163","true","35","","","","","","","","","","","","","","","","","","",""
"","","","","","html-keyboard-response","104","191504","0.0-2.0-7.0-0.2","6400dbb883a12b7946a0c4b5","D2","batch4","","null","<p class=block-text>Trial 42 out of 78</p>","null","pattern_show_trial_num","","","","","","","","","","","","","","","","","","","","","","","","",""
"","","","","","image-keyboard-response","105","195294","0.0-2.0-7.0-1.2","6400dbb883a12b7946a0c4b5","D2","batch4","","3789.399999976158","stim/no_62_1_w.png","j","pattern_response","true","j","pattern_36","3789.399999976158","true","36","","","","","","","","","","","","","","","","","","",""
"","","","","","html-keyboard-response","106","196597","0.0-2.0-7.0-0.3","6400dbb883a12b7946a0c4b5","D2","batch4","","null","<p class=block-text>Trial 43 out of 78</p>","null","pattern_show_trial_num","","","","","","","","","","","","","","","","","","","","","","","","",""
"","","","","","image-keyboard-response","107","199949","0.0-2.0-7.0-1.3","6400dbb883a12b7946a0c4b5","D2","batch4","","3351","stim/yes_48_dia_w1_w.png","j","pattern_response","false","f","pattern_69","3351","false","36","","","","","","","","","","","","","","","","","","",""
"","","","","","html-keyboard-response","108","201250","0.0-2.0-7.0-0.4","6400dbb883a12b7946a0c4b5","D2","batch4","","null","<p class=block-text>Trial 44 out of 78</p>","null","pattern_show_trial_num","","","","","","","","","","","","","","","","","","","","","","","","",""
"","","","","","image-keyboard-response","109","203914","0.0-2.0-7.0-1.4","6400dbb883a12b7946a0c4b5","D2","batch4","","2662.8000000715256","stim/no_50_1.png","j","pattern_response","true","j","pattern_30","2662.8000000715256","true","37","","","","","","","","","","","","","","","","","","",""
"","","","","","html-keyboard-response","110","205216","0.0-2.0-7.0-0.5","6400dbb883a12b7946a0c4b5","D2","batch4","","null","<p class=block-text>Trial 45 out of 78</p>","null","pattern_show_trial_num","","","","","","","","","","","","","","","","","","","","","","","","",""
"","","","","","image-keyboard-response","111","207081","0.0-2.0-7.0-1.5","6400dbb883a12b7946a0c4b5","D2","batch4","","1864.1000000238419","stim/no_48_1_w.png","j","pattern_response","true","j","pattern_28","1864.1000000238419","true","38","","","","","","","","","","","","","","","","","","",""
"","","","","","html-keyboard-response","112","208383","0.0-2.0-7.0-0.6","6400dbb883a12b7946a0c4b5","D2","batch4","","null","<p class=block-text>Trial 46 out of 78</p>","null","pattern_show_trial_num","","","","","","","","","","","","","","","","","","","","","","","","",""
"","","","","","image-keyboard-response","113","208977","0.0-2.0-7.0-1.6","6400dbb883a12b7946a0c4b5","D2","batch4","","593.4000000953674","stim/no_32_1_w.png","j","pattern_response","true","j","pattern_14","593.4000000953674","true","39","","","","","","","","","","","","","","","","","","",""
"","","","","","html-keyboard-response","114","210280","0.0-2.0-7.0-0.7","6400dbb883a12b7946a0c4b5","D2","batch4","","null","<p class=block-text>Trial 47 out of 78</p>","null","pattern_show_trial_num","","","","","","","","","","","","","","","","","","","","","","","","",""
"","","","","","image-keyboard-response","115","213860","0.0-2.0-7.0-1.7","6400dbb883a12b7946a0c4b5","D2","batch4","","3579.399999976158","stim/no_55_1_w.png","j","pattern_response","true","j","pattern_34","3579.399999976158","true","40","","","","","","","","","","","","","","","","","","",""
"","","","","","html-keyboard-response","116","215162","0.0-2.0-7.0-0.8","6400dbb883a12b7946a0c4b5","D2","batch4","","null","<p class=block-text>Trial 48 out of 78</p>","null","pattern_show_trial_num","","","","","","","","","","","","","","","","","","","","","","","","",""
"","","","","","image-keyboard-response","117","218303","0.0-2.0-7.0-1.8","6400dbb883a12b7946a0c4b5","D2","batch4","","3141.0999999046326","stim/no_34_1_b.png","j","pattern_response","true","j","pattern_16","3141.0999999046326","true","41","","","","","","","","","","","","","","","","","","",""
"","","","","","html-keyboard-response","118","219605","0.0-2.0-7.0-0.9","6400dbb883a12b7946a0c4b5","D2","batch4","","null","<p class=block-text>Trial 49 out of 78</p>","null","pattern_show_trial_num","","","","","","","","","","","","","","","","","","","","","","","","",""
"","","","","","image-keyboard-response","119","224203","0.0-2.0-7.0-1.9","6400dbb883a12b7946a0c4b5","D2","batch4","","4597.600000023842","stim/no_44_1.png","j","pattern_response","true","j","pattern_24","4597.600000023842","true","42","","","","","","","","","","","","","","","","","","",""
"","","","","","html-keyboard-response","120","225505","0.0-2.0-7.0-0.10","6400dbb883a12b7946a0c4b5","D2","batch4","","null","<p class=block-text>Trial 50 out of 78</p>","null","pattern_show_trial_num","","","","","","","","","","","","","","","","","","","","","","","","",""
"","","","","","image-keyboard-response","121","226561","0.0-2.0-7.0-1.10","6400dbb883a12b7946a0c4b5","D2","batch4","","1055.1000000238419","stim/yes_43_ver_w1_w.png","f","pattern_response","true","f","pattern_65","1055.1000000238419","true","43","","","","","","","","","","","","","","","","","","",""
"","","","","","html-keyboard-response","122","227863","0.0-2.0-7.0-0.11","6400dbb883a12b7946a0c4b5","D2","batch4","","null","<p class=block-text>Trial 51 out of 78</p>","null","pattern_show_trial_num","","","","","","","","","","","","","","","","","","","","","","","","",""
"","","","","","image-keyboard-response","123","229860","0.0-2.0-7.0-1.11","6400dbb883a12b7946a0c4b5","D2","batch4","","1995.6000000238419","stim/no_29_1_b.png","j","pattern_response","true","j","pattern_12","1995.6000000238419","true","44","","","","","","","","","","","","","","","","","","",""
"","","","","","html-keyboard-response","124","231161","0.0-2.0-7.0-0.12","6400dbb883a12b7946a0c4b5","D2","batch4","","null","<p class=block-text>Trial 52 out of 78</p>","null","pattern_show_trial_num","","","","","","","","","","","","","","","","","","","","","","","","",""
"","","","","","image-keyboard-response","125","232671","0.0-2.0-7.0-1.12","6400dbb883a12b7946a0c4b5","D2","batch4","","1509.7999999523163","stim/yes_40_dia_b1_b.png","j","pattern_response","false","f","pattern_63","1509.7999999523163","false","44","","","","","","","","","","","","","","","","","","",""
"","","","","","html-keyboard-response","126","233974","0.0-2.0-7.0-0.13","6400dbb883a12b7946a0c4b5","D2","batch4","","null","<p class=block-text>Trial 53 out of 78</p>","null","pattern_show_trial_num","","","","","","","","","","","","","","","","","","","","","","","","",""
"","","","","","image-keyboard-response","127","236075","0.0-2.0-7.0-1.13","6400dbb883a12b7946a0c4b5","D2","batch4","","2100.7000000476837","stim/yes_45_hor_b2_b.png","f","pattern_response","true","f","pattern_67","2100.7000000476837","true","45","","","","","","","","","","","","","","","","","","",""
"","","","","","html-keyboard-response","128","237376","0.0-2.0-7.0-0.14","6400dbb883a12b7946a0c4b5","D2","batch4","","null","<p class=block-text>Trial 54 out of 78</p>","null","pattern_show_trial_num","","","","","","","","","","","","","","","","","","","","","","","","",""
"","","","","","image-keyboard-response","129","243477","0.0-2.0-7.0-1.14","6400dbb883a12b7946a0c4b5","D2","batch4","","6100.700000047684","stim/no_65_1_b.png","j","pattern_response","true","j","pattern_38","6100.700000047684","true","46","","","","","","","","","","","","","","","","","","",""
"","","","","","html-keyboard-response","130","244779","0.0-2.0-7.0-0.15","6400dbb883a12b7946a0c4b5","D2","batch4","","null","<p class=block-text>Trial 55 out of 78</p>","null","pattern_show_trial_num","","","","","","","","","","","","","","","","","","","","","","","","",""
"","","","","","image-keyboard-response","131","246626","0.0-2.0-7.0-1.15","6400dbb883a12b7946a0c4b5","D2","batch4","","1845.3000000715256","stim/yes_35_dia_b1.png","j","pattern_response","false","f","pattern_57","1845.3000000715256","false","46","","","","","","","","","","","","","","","","","","",""
"","","","","","html-keyboard-response","132","247928","0.0-2.0-7.0-0.16","6400dbb883a12b7946a0c4b5","D2","batch4","","null","<p class=block-text>Trial 56 out of 78</p>","null","pattern_show_trial_num","","","","","","","","","","","","","","","","","","","","","","","","",""
"","","","","","image-keyboard-response","133","248964","0.0-2.0-7.0-1.16","6400dbb883a12b7946a0c4b5","D2","batch4","","1035.7000000476837","stim/yes_60_ver_b1_b.png","f","pattern_response","true","f","pattern_77","1035.7000000476837","true","47","","","","","","","","","","","","","","","","","","",""
"","","","","","html-keyboard-response","134","250266","0.0-2.0-7.0-0.17","6400dbb883a12b7946a0c4b5","D2","batch4","","null","<p class=block-text>Trial 57 out of 78</p>","null","pattern_show_trial_num","","","","","","","","","","","","","","","","","","","","","","","","",""
"","","","","","image-keyboard-response","135","252006","0.0-2.0-7.0-1.17","6400dbb883a12b7946a0c4b5","D2","batch4","","1739.6999999284744","stim/yes_52_ver_w1.png","f","pattern_response","true","f","pattern_73","1739.6999999284744","true","48","","","","","","","","","","","","","","","","","","",""
"","","","","","html-keyboard-response","136","253307","0.0-2.0-7.0-0.18","6400dbb883a12b7946a0c4b5","D2","batch4","","null","<p class=block-text>Trial 58 out of 78</p>","null","pattern_show_trial_num","","","","","","","","","","","","","","","","","","","","","","","","",""
"","","","","","image-keyboard-response","137","256636","0.0-2.0-7.0-1.18","6400dbb883a12b7946a0c4b5","D2","batch4","","3328.2999999523163","stim/no_46_1_b.png","j","pattern_response","true","j","pattern_26","3328.2999999523163","true","49","","","","","","","","","","","","","","","","","","",""
"","","","","","html-keyboard-response","138","257937","0.0-2.0-7.0-0.19","6400dbb883a12b7946a0c4b5","D2","batch4","","null","<p class=block-text>Trial 59 out of 78</p>","null","pattern_show_trial_num","","","","","","","","","","","","","","","","","","","","","","","","",""
"","","","","","image-keyboard-response","139","258711","0.0-2.0-7.0-1.19","6400dbb883a12b7946a0c4b5","D2","batch4","","772.6000000238419","stim/no_26_1_w.png","j","pattern_response","true","j","pattern_10","772.6000000238419","true","50","","","","","","","","","","","","","","","","","","",""
"","","","","","html-keyboard-response","140","260012","0.0-2.0-7.0-0.20","6400dbb883a12b7946a0c4b5","D2","batch4","","null","<p class=block-text>Trial 60 out of 78</p>","null","pattern_show_trial_num","","","","","","","","","","","","","","","","","","","","","","","","",""
"","","","","","image-keyboard-response","141","260746","0.0-2.0-7.0-1.20","6400dbb883a12b7946a0c4b5","D2","batch4","","733","stim/yes_14_hor_b1_w.png","f","pattern_response","true","f","pattern_43","733","true","51","","","","","","","","","","","","","","","","","","",""
"","","","","","html-keyboard-response","142","262047","0.0-2.0-7.0-0.21","6400dbb883a12b7946a0c4b5","D2","batch4","","null","<p class=block-text>Trial 61 out of 78</p>","null","pattern_show_trial_num","","","","","","","","","","","","","","","","","","","","","","","","",""
"","","","","","image-keyboard-response","143","263253","0.0-2.0-7.0-1.21","6400dbb883a12b7946a0c4b5","D2","batch4","","1205.6999999284744","stim/yes_38_hor_b1_b.png","j","pattern_response","false","f","pattern_61","1205.6999999284744","false","51","","","","","","","","","","","","","","","","","","",""
"","","","","","html-keyboard-response","144","264555","0.0-2.0-7.0-0.22","6400dbb883a12b7946a0c4b5","D2","batch4","","null","<p class=block-text>Trial 62 out of 78</p>","null","pattern_show_trial_num","","","","","","","","","","","","","","","","","","","","","","","","",""
"","","","","","image-keyboard-response","145","265807","0.0-2.0-7.0-1.22","6400dbb883a12b7946a0c4b5","D2","batch4","","1251.6000000238419","stim/yes_31_hor_b1.png","f","pattern_response","true","f","pattern_55","1251.6000000238419","true","52","","","","","","","","","","","","","","","","","","",""
"","","","","","html-keyboard-response","146","267108","0.0-2.0-7.0-0.23","6400dbb883a12b7946a0c4b5","D2","batch4","","null","<p class=block-text>Trial 63 out of 78</p>","null","pattern_show_trial_num","","","","","","","","","","","","","","","","","","","","","","","","",""
"","","","","","image-keyboard-response","147","267969","0.0-2.0-7.0-1.23","6400dbb883a12b7946a0c4b5","D2","batch4","","860.3000000715256","stim/yes_22_ver_w1.png","f","pattern_response","true","f","pattern_47","860.3000000715256","true","53","","","","","","","","","","","","","","","","","","",""
"","","","","","html-keyboard-response","148","269270","0.0-2.0-7.0-0.24","6400dbb883a12b7946a0c4b5","D2","batch4","","null","<p class=block-text>Trial 64 out of 78</p>","null","pattern_show_trial_num","","","","","","","","","","","","","","","","","","","","","","","","",""
"","","","","","image-keyboard-response","149","274383","0.0-2.0-7.0-1.24","6400dbb883a12b7946a0c4b5","D2","batch4","","5111.600000023842","stim/no_36_2_w.png","j","pattern_response","true","j","pattern_18","5111.600000023842","true","54","","","","","","","","","","","","","","","","","","",""
"","","","","","html-keyboard-response","150","275684","0.0-2.0-7.0-0.25","6400dbb883a12b7946a0c4b5","D2","batch4","","null","<p class=block-text>Trial 65 out of 78</p>","null","pattern_show_trial_num","","","","","","","","","","","","","","","","","","","","","","","","",""
"","","","","","image-keyboard-response","151","277203","0.0-2.0-7.0-1.25","6400dbb883a12b7946a0c4b5","D2","batch4","","1517.3999999761581","stim/no_42_1_w.png","j","pattern_response","true","j","pattern_22","1517.3999999761581","true","55","","","","","","","","","","","","","","","","","","",""
"","","","","","html-keyboard-response","152","278505","0.0-2.0-7.0-0.26","6400dbb883a12b7946a0c4b5","D2","batch4","","null","<p class=block-text>Trial 66 out of 78</p>","null","pattern_show_trial_num","","","","","","","","","","","","","","","","","","","","","","","","",""
"","","","","","image-keyboard-response","153","279155","0.0-2.0-7.0-1.26","6400dbb883a12b7946a0c4b5","D2","batch4","","649","stim/yes_55_hor_w1_w.png","f","pattern_response","true","f","pattern_75","649","true","56","","","","","","","","","","","","","","","","","","",""
"","","","","","html-keyboard-response","154","280457","0.0-2.0-7.0-0.27","6400dbb883a12b7946a0c4b5","D2","batch4","","null","<p class=block-text>Trial 67 out of 78</p>","null","pattern_show_trial_num","","","","","","","","","","","","","","","","","","","","","","","","",""
"","","","","","image-keyboard-response","155","283120","0.0-2.0-7.0-1.27","6400dbb883a12b7946a0c4b5","D2","batch4","","2662.5","stim/no_38_1_b.png","j","pattern_response","true","j","pattern_20","2662.5","true","57","","","","","","","","","","","","","","","","","","",""
"","","","","","html-keyboard-response","156","284423","0.0-2.0-7.0-0.28","6400dbb883a12b7946a0c4b5","D2","batch4","","null","<p class=block-text>Trial 68 out of 78</p>","null","pattern_show_trial_num","","","","","","","","","","","","","","","","","","","","","","","","",""
"","","","","","image-keyboard-response","157","289391","0.0-2.0-7.0-1.28","6400dbb883a12b7946a0c4b5","D2","batch4","","4967.599999904633","stim/no_70_2.png","j","pattern_response","true","j","pattern_40","4967.599999904633","true","58","","","","","","","","","","","","","","","","","","",""
"","","","","","html-keyboard-response","158","290692","0.0-2.0-7.0-0.29","6400dbb883a12b7946a0c4b5","D2","batch4","","null","<p class=block-text>Trial 69 out of 78</p>","null","pattern_show_trial_num","","","","","","","","","","","","","","","","","","","","","","","","",""
"","","","","","image-keyboard-response","159","292595","0.0-2.0-7.0-1.29","6400dbb883a12b7946a0c4b5","D2","batch4","","1902.1999999284744","stim/yes_50_dia_w1.png","j","pattern_response","false","f","pattern_71","1902.1999999284744","false","58","","","","","","","","","","","","","","","","","","",""
"","","","","","html-keyboard-response","160","293897","0.0-2.0-7.0-0.30","6400dbb883a12b7946a0c4b5","D2","batch4","","null","<p class=block-text>Trial 70 out of 78</p>","null","pattern_show_trial_num","","","","","","","","","","","","","","","","","","","","","","","","",""
"","","","","","image-keyboard-response","161","295258","0.0-2.0-7.0-1.30","6400dbb883a12b7946a0c4b5","D2","batch4","","1361","stim/no_23_1.png","j","pattern_response","true","j","pattern_08","1361","true","59","","","","","","","","","","","","","","","","","","",""
"","","","","","html-keyboard-response","162","296560","0.0-2.0-7.0-0.31","6400dbb883a12b7946a0c4b5","D2","batch4","","null","<p class=block-text>Trial 71 out of 78</p>","null","pattern_show_trial_num","","","","","","","","","","","","","","","","","","","","","","","","",""
"","","","","","image-keyboard-response","163","297624","0.0-2.0-7.0-1.31","6400dbb883a12b7946a0c4b5","D2","batch4","","1064.0999999046326","stim/yes_17_dia_w1.png","f","pattern_response","true","f","pattern_45","1064.0999999046326","true","60","","","","","","","","","","","","","","","","","","",""
"","","","","","html-keyboard-response","164","298927","0.0-2.0-7.0-0.32","6400dbb883a12b7946a0c4b5","D2","batch4","","null","<p class=block-text>Trial 72 out of 78</p>","null","pattern_show_trial_num","","","","","","","","","","","","","","","","","","","","","","","","",""
"","","","","","image-keyboard-response","165","299522","0.0-2.0-7.0-1.32","6400dbb883a12b7946a0c4b5","D2","batch4","","595.3999999761581","stim/yes_25_hor_b1_b.png","f","pattern_response","true","f","pattern_49","595.3999999761581","true","61","","","","","","","","","","","","","","","","","","",""
"","","","","","html-keyboard-response","166","300824","0.0-2.0-7.0-0.33","6400dbb883a12b7946a0c4b5","D2","batch4","","null","<p class=block-text>Trial 73 out of 78</p>","null","pattern_show_trial_num","","","","","","","","","","","","","","","","","","","","","","","","",""
"","","","","","image-keyboard-response","167","301668","0.0-2.0-7.0-1.33","6400dbb883a12b7946a0c4b5","D2","batch4","","843.7000000476837","stim/no_17_1_w.png","j","pattern_response","true","j","pattern_04","843.7000000476837","true","62","","","","","","","","","","","","","","","","","","",""
"","","","","","html-keyboard-response","168","302970","0.0-2.0-7.0-0.34","6400dbb883a12b7946a0c4b5","D2","batch4","","null","<p class=block-text>Trial 74 out of 78</p>","null","pattern_show_trial_num","","","","","","","","","","","","","","","","","","","","","","","","",""
"","","","","","image-keyboard-response","169","304307","0.0-2.0-7.0-1.34","6400dbb883a12b7946a0c4b5","D2","batch4","","1336.6000000238419","stim/yes_37_dia_w1.png","j","pattern_response","false","f","pattern_59","1336.6000000238419","false","62","","","","","","","","","","","","","","","","","","",""
"","","","","","html-keyboard-response","170","305609","0.0-2.0-7.0-0.35","6400dbb883a12b7946a0c4b5","D2","batch4","","null","<p class=block-text>Trial 75 out of 78</p>","null","pattern_show_trial_num","","","","","","","","","","","","","","","","","","","","","","","","",""
"","","","","","image-keyboard-response","171","306641","0.0-2.0-7.0-1.35","6400dbb883a12b7946a0c4b5","D2","batch4","","1031.1000000238419","stim/yes_67_hor_b1.png","f","pattern_response","true","f","pattern_79","1031.1000000238419","true","63","","","","","","","","","","","","","","","","","","",""
"","","","","","html-keyboard-response","172","307942","0.0-2.0-7.0-0.36","6400dbb883a12b7946a0c4b5","D2","batch4","","null","<p class=block-text>Trial 76 out of 78</p>","null","pattern_show_trial_num","","","","","","","","","","","","","","","","","","","","","","","","",""
"","","","","","image-keyboard-response","173","309245","0.0-2.0-7.0-1.36","6400dbb883a12b7946a0c4b5","D2","batch4","","1302.0999999046326","stim/yes_29_ver_w1.png","f","pattern_response","true","f","pattern_53","1302.0999999046326","true","64","","","","","","","","","","","","","","","","","","",""
"","","","","","html-keyboard-response","174","310547","0.0-2.0-7.0-0.37","6400dbb883a12b7946a0c4b5","D2","batch4","","null","<p class=block-text>Trial 77 out of 78</p>","null","pattern_show_trial_num","","","","","","","","","","","","","","","","","","","","","","","","",""
"","","","","","image-keyboard-response","175","311414","0.0-2.0-7.0-1.37","6400dbb883a12b7946a0c4b5","D2","batch4","","866.1000000238419","stim/yes_28_ver_b1.png","f","pattern_response","true","f","pattern_51","866.1000000238419","true","65","","","","","","","","","","","","","","","","","","",""
"","","","","","html-keyboard-response","176","312716","0.0-2.0-7.0-0.38","6400dbb883a12b7946a0c4b5","D2","batch4","","null","<p class=block-text>Trial 78 out of 78</p>","null","pattern_show_trial_num","","","","","","","","","","","","","","","","","","","","","","","","",""
"","","","","","image-keyboard-response","177","316055","0.0-2.0-7.0-1.38","6400dbb883a12b7946a0c4b5","D2","batch4","","3338.8000000715256","stim/no_52_1.png","j","pattern_response","true","j","pattern_32","3338.8000000715256","true","66","","","","","","","","","","","","","","","","","","",""
"","","","","","html-button-response","178","319853","0.0-2.0-8.0","6400dbb883a12b7946a0c4b5","D2","batch4","","3296.5","<p class = block-text>This concludes the 4-in-a-row detection game.Thank you for your responses!<br>
            You responded correctly on 85% of the trials.<br>
            When you are ready, press ""Continue"" button to continue </p>","0","","","","","","","","","","","","","","","","","","","","","","","","","",""
"true","","","","","fullscreen","179","321972","0.0-3.0-0.0","6400dbb883a12b7946a0c4b5","D2","batch4","","","","","","","","","","","","","","","","","","","","","","","","","","","","","",""
"","","","","","instructions","180","350242","0.0-3.0-1.0-0.0-0.0","6400dbb883a12b7946a0c4b5","D2","batch4","[{""page_index"":0,""viewing_time"":7786.299999952316},{""page_index"":1,""viewing_time"":5397.200000047684},{""page_index"":2,""viewing_time"":2953.100000023842},{""page_index"":3,""viewing_time"":2537},{""page_index"":4,""viewing_time"":4536.699999928474},{""page_index"":5,""viewing_time"":3475.600000023842},{""page_index"":6,""viewing_time"":1584.1000000238419}]","28270.100000023842","","","tol-instructions","","","","","","","","","","","","","","","","","","","","","","","","",""
"","","","","","html-button-response","181","351266","0.0-3.0-1.0-1.0-0.0","6400dbb883a12b7946a0c4b5","D2","batch4","","1024.2999999523163","<p class=block-text> Let's answer a few questions <br>","0","tol_enter_quiz","","","","","","","","","","","","","","","","","","","","","","","","",""
"","","","","","html-button-response","182","354631","0.0-3.0-1.0-1.0-1.0","6400dbb883a12b7946a0c4b5","D2","batch4","","3363.600000023842","<p class = block-text>True or False: You can only move the ball on top of a peg. <br></p>","1","tol_quiz","false","","","","","","","","","","","","","","","","","","","","","","","",""
"","","","","","html-button-response","183","355446","0.0-3.0-1.0-1.0-2.0","6400dbb883a12b7946a0c4b5","D2","batch4","","815.2999999523163","<p class = block-text>Incorrect. Remember, you can only move the ball on top of a peg.</p>","0","tol_quiz_feedback","","","","","","","","","","","","","","","","","","","","","","","","",""
"","","","","","html-button-response","184","357190","0.0-3.0-1.0-1.0-3.0","6400dbb883a12b7946a0c4b5","D2","batch4","","1743.2999999523163","<p class = block-text>True or False: You should try to match your board with the target board with fewest moves possible. <br></p>","0","tol_quiz","true","","","","","","","","","","","","","","","","","","","","","","","",""
"","","","","","html-button-response","185","357679","0.0-3.0-1.0-1.0-4.0","6400dbb883a12b7946a0c4b5","D2","batch4","","488","<p class = block-text>Correct! </p>","0","tol_quiz_feedback","","","","","","","","","","","","","","","","","","","","","","","","",""
"","","","","","html-button-response","186","359415","0.0-3.0-1.0-2.0-0.0","6400dbb883a12b7946a0c4b5","D2","batch4","","1735.5","<p class = block-text>You made too many incorrect choices.</p><p class = block-text>You will now repeat the instructions and quiz</p>","0","","","","","","","","","","","","","","","","","","","","","","","","","",""
"","","","","","instructions","187","363806","0.0-3.0-1.1-0.1-0.1","6400dbb883a12b7946a0c4b5","D2","batch4","[{""page_index"":0,""viewing_time"":975.3999999761581},{""page_index"":1,""viewing_time"":623.9000000953674},{""page_index"":2,""viewing_time"":392.5},{""page_index"":3,""viewing_time"":559.5999999046326},{""page_index"":4,""viewing_time"":415.90000009536743},{""page_index"":5,""viewing_time"":383.89999997615814},{""page_index"":6,""viewing_time"":1040}]","4391.300000071526","","","tol-instructions","","","","","","","","","","","","","","","","","","","","","","","","",""
"","","","","","html-button-response","188","364470","0.0-3.0-1.1-1.1-0.1","6400dbb883a12b7946a0c4b5","D2","batch4","","663.7000000476837","<p class=block-text> Let's answer a few questions <br>","0","tol_enter_quiz","","","","","","","","","","","","","","","","","","","","","","","","",""
"","","","","","html-button-response","189","365142","0.0-3.0-1.1-1.1-1.1","6400dbb883a12b7946a0c4b5","D2","batch4","","671.5999999046326","<p class = block-text>True or False: You can only move the ball on top of a peg. <br></p>","0","tol_quiz","true","","","","","","","","","","","","","","","","","","","","","","","",""
"","","","","","html-button-response","190","365702","0.0-3.0-1.1-1.1-2.1","6400dbb883a12b7946a0c4b5","D2","batch4","","559.5","<p class = block-text>Correct! You can only move the ball on top of a peg.</p>","0","tol_quiz_feedback","","","","","","","","","","","","","","","","","","","","","","","","",""
"","","","","","html-button-response","191","366239","0.0-3.0-1.1-1.1-3.1","6400dbb883a12b7946a0c4b5","D2","batch4","","535.8999999761581","<p class = block-text>True or False: You should try to match your board with the target board with fewest moves possible. <br></p>","0","tol_quiz","true","","","","","","","","","","","","","","","","","","","","","","","",""
"","","","","","html-button-response","192","366783","0.0-3.0-1.1-1.1-4.1","6400dbb883a12b7946a0c4b5","D2","batch4","","544.1000000238419","<p class = block-text>Correct! </p>","0","tol_quiz_feedback","","","","","","","","","","","","","","","","","","","","","","","","",""
"","","","","","html-button-response","193","367406","0.0-3.0-2.0","6400dbb883a12b7946a0c4b5","D2","batch4","","622.2000000476837","<p class=block-text> Now that you've understood the game, let's practice a few easier examples before we start!<br> <br>","0","","","","","","","","","","","","","","","","","","","","","","","","","",""
"","","","","","single-stim-button","194","369072","0.0-3.0-3.0-0.0","6400dbb883a12b7946a0c4b5","D2","batch4","","1665","","","tol_practice","","","","","","","","","tol_peg_2","1665","1665","0","[[1,2,0],[0,0],[0]]","1","[[1,2,0],[0,0],[3]]","practice","1665","","","","","","","",""
"","","","","","single-stim-button","195","369847","0.0-3.0-3.0-1.0","6400dbb883a12b7946a0c4b5","D2","batch4","","775","","","tol_practice","","","","","","","","","tol_peg_3","775","775","0","[[1,2,0],[0,0],[3]]","1","[[1,2,0],[0,0],[3]]","practice","775","","","","","","","",""
"","","","","","poldrack-single-stim","196","370848","0.0-3.0-4.0","6400dbb883a12b7946a0c4b5","D2","batch4","","-1","","","tol_feedback","true","","","","","","","","","1000","1000","500","","","","","","-1","none","true","","0","","",""
"","","","","","single-stim-button","197","373574","0.0-3.0-5.0-0.0","6400dbb883a12b7946a0c4b5","D2","batch4","","2726","","","tol_practice","","","","","","","","","tol_peg_1","2726","2726","0","[[1,0,0],[3,0],[0]]","2","[[0,0,0],[3,1],[2]]","practice","2726","","","","","","","",""
"","","","","","single-stim-button","198","377255","0.0-3.0-5.0-1.0","6400dbb883a12b7946a0c4b5","D2","batch4","","3680","","","tol_practice","","","","","","","","","tol_peg_3","3680","3680","0","[[1,0,0],[3,0],[2]]","2","[[0,0,0],[3,1],[2]]","practice","3680","","","","","","","",""
"","","","","","single-stim-button","199","378623","0.0-3.0-5.1-0.1","6400dbb883a12b7946a0c4b5","D2","batch4","","1367","","","tol_practice","","","","","","","","","tol_peg_1","1367","1367","0","[[0,0,0],[3,0],[2]]","3","[[0,0,0],[3,1],[2]]","practice","1367","","","","","","","",""
"","","","","","single-stim-button","200","379215","0.0-3.0-5.1-1.1","6400dbb883a12b7946a0c4b5","D2","batch4","","592","","","tol_practice","","","","","","","","","tol_peg_2","592","592","0","[[0,0,0],[3,1],[2]]","3","[[0,0,0],[3,1],[2]]","practice","592","","","","","","","",""
"","","","","","poldrack-single-stim","201","380217","0.0-3.0-6.0","6400dbb883a12b7946a0c4b5","D2","batch4","","-1","","","tol_feedback","true","","","","","","","","","1000","1000","500","","","","","","-1","none","true","","0","","",""
"","","","","","single-stim-button","202","381998","0.0-3.0-7.0-0.0","6400dbb883a12b7946a0c4b5","D2","batch4","","1781","","","tol_practice","","","","","","","","","tol_peg_2","1781","1781","0","[[1,2,0],[0,0],[0]]","4","[[1,0,0],[2,0],[3]]","practice","1781","","","","","","","",""
"","","","","","single-stim-button","203","382535","0.0-3.0-7.0-1.0","6400dbb883a12b7946a0c4b5","D2","batch4","","537","","","tol_practice","","","","","","","","","tol_peg_3","537","537","0","[[1,2,0],[0,0],[3]]","4","[[1,0,0],[2,0],[3]]","practice","537","","","","","","","",""
"","","","","","single-stim-button","204","383815","0.0-3.0-7.1-0.1","6400dbb883a12b7946a0c4b5","D2","batch4","","1279","","","tol_practice","","","","","","","","","tol_peg_1","1279","1279","0","[[1,0,0],[0,0],[3]]","5","[[1,0,0],[2,0],[3]]","practice","1279","","","","","","","",""
"","","","","","single-stim-button","205","384454","0.0-3.0-7.1-1.1","6400dbb883a12b7946a0c4b5","D2","batch4","","639","","","tol_practice","","","","","","","","","tol_peg_2","639","639","0","[[1,0,0],[2,0],[3]]","5","[[1,0,0],[2,0],[3]]","practice","639","","","","","","","",""
"","","","","","poldrack-single-stim","206","385455","0.0-3.0-8.0","6400dbb883a12b7946a0c4b5","D2","batch4","","-1","","","tol_feedback","true","","","","","","","","","1000","1000","500","","","","","","-1","none","true","","0","","",""
"","","","","","html-button-response","207","386742","0.0-3.0-9.0","6400dbb883a12b7946a0c4b5","D2","batch4","","1287.0999999046326","<div class = centerbox><p class = center-block-text>Great job! You are done with practice trials<br>You are about to start official trials.<br> <br> Problem <strong>1</strong> out of 25 problems</p></div>","0","tol_instruction","","","","","","","","","","","","","","","","","","","","","","","","",""
"","","","","","single-stim-button","208","389774","0.0-3.0-10.0-0.0","6400dbb883a12b7946a0c4b5","D2","batch4","","2031","","","tol_tohand","","","","","","","","","tol_peg_1","2031","2031","0","[[1,0,0],[3,0],[0]]","1","[[1,3,0],[2,0],[0]]","0","0","","","","","","3","",""
"","","","","","single-stim-button","209","391431","0.0-3.0-10.0-1.0","6400dbb883a12b7946a0c4b5","D2","batch4","","1656","","","tol_toboard","","","","","","","","","tol_peg_2","1656","1656","0","[[1,0,0],[3,2],[0]]","1","[[1,3,0],[2,0],[0]]","0","0","","","","","","3","",""
"","","","","","single-stim-button","210","393230","0.0-3.0-10.1-0.1","6400dbb883a12b7946a0c4b5","D2","batch4","","1799","","","tol_tohand","","","","","","","","","tol_peg_2","1799","1799","0","[[1,0,0],[3,0],[0]]","2","[[1,3,0],[2,0],[0]]","0","0","","","","","","3","",""
"","","","","","single-stim-button","211","393767","0.0-3.0-10.1-1.1","6400dbb883a12b7946a0c4b5","D2","batch4","","537","","","tol_toboard","","","","","","","","","tol_peg_3","537","537","0","[[1,0,0],[3,0],[2]]","2","[[1,3,0],[2,0],[0]]","0","0","","","","","","3","",""
"","","","","","single-stim-button","212","394214","0.0-3.0-10.2-0.2","6400dbb883a12b7946a0c4b5","D2","batch4","","447","","","tol_tohand","","","","","","","","","tol_peg_2","447","447","0","[[1,0,0],[0,0],[2]]","3","[[1,3,0],[2,0],[0]]","0","0","","","","","","3","",""
"","","","","","single-stim-button","213","394687","0.0-3.0-10.2-1.2","6400dbb883a12b7946a0c4b5","D2","batch4","","472","","","tol_toboard","","","","","","","","","tol_peg_1","472","472","0","[[1,3,0],[0,0],[2]]","3","[[1,3,0],[2,0],[0]]","0","0","","","","","","3","",""
"","","","","","single-stim-button","214","395375","0.0-3.0-10.3-0.3","6400dbb883a12b7946a0c4b5","D2","batch4","","688","","","tol_tohand","","","","","","","","","tol_peg_3","688","688","0","[[1,3,0],[0,0],[0]]","4","[[1,3,0],[2,0],[0]]","0","0","","","","","","3","",""
"","","","","","single-stim-button","215","395830","0.0-3.0-10.3-1.3","6400dbb883a12b7946a0c4b5","D2","batch4","","455","","","tol_toboard","","","","","","","","","tol_peg_2","455","455","0","[[1,3,0],[2,0],[0]]","4","[[1,3,0],[2,0],[0]]","0","0","","","","","","3","",""
"","","","","","poldrack-single-stim","216","396832","0.0-3.0-11.0","6400dbb883a12b7946a0c4b5","D2","batch4","","-1","","","tol_feedback","true","","","","","","","","","1000","1000","500","","","","","","-1","none","true","2031","4965","","",""
"","","","","","html-button-response","217","397694","0.0-3.0-12.0","6400dbb883a12b7946a0c4b5","D2","batch4","","861.3999999761581","<div class = centerbox><p class = center-block-text>problem <strong>2</strong> out of 25 problems</p></div>","0","tol_trial_num","","","","","","","","","","","","","","","","","","","","","","","","",""
"","","","","","single-stim-button","218","399967","0.0-3.0-13.0-0.0","6400dbb883a12b7946a0c4b5","D2","batch4","","2273","","","tol_tohand","","","","","","","","","tol_peg_2","2273","2273","0","[[1,2,0],[0,0],[0]]","1","[[2,1,3],[0,0],[0]]","1","0","","","","","","5","",""
"","","","","","single-stim-button","219","401567","0.0-3.0-13.0-1.0","6400dbb883a12b7946a0c4b5","D2","batch4","","1600","","","tol_toboard","","","","","","","","","tol_peg_1","1600","1600","0","[[1,2,3],[0,0],[0]]","1","[[2,1,3],[0,0],[0]]","1","0","","","","","","5","",""
"","","","","","single-stim-button","220","403415","0.0-3.0-13.1-0.1","6400dbb883a12b7946a0c4b5","D2","batch4","","1848","","","tol_tohand","","","","","","","","","tol_peg_1","1848","1848","0","[[1,2,0],[0,0],[0]]","2","[[2,1,3],[0,0],[0]]","1","0","","","","","","5","",""
"","","","","","single-stim-button","221","404111","0.0-3.0-13.1-1.1","6400dbb883a12b7946a0c4b5","D2","batch4","","696","","","tol_toboard","","","","","","","","","tol_peg_2","696","696","0","[[1,2,0],[3,0],[0]]","2","[[2,1,3],[0,0],[0]]","1","0","","","","","","5","",""
"","","","","","single-stim-button","222","409143","0.0-3.0-13.2-0.2","6400dbb883a12b7946a0c4b5","D2","batch4","","5032","","","tol_tohand","","","","","","","","","tol_peg_2","5032","5032","0","[[1,2,0],[0,0],[0]]","3","[[2,1,3],[0,0],[0]]","1","0","","","","","","5","",""
"","","","","","single-stim-button","223","409503","0.0-3.0-13.2-1.2","6400dbb883a12b7946a0c4b5","D2","batch4","","360","","","tol_toboard","","","","","","","","","tol_peg_3","360","360","0","[[1,2,0],[0,0],[3]]","3","[[2,1,3],[0,0],[0]]","1","0","","","","","","5","",""
"","","","","","single-stim-button","224","410551","0.0-3.0-13.3-0.3","6400dbb883a12b7946a0c4b5","D2","batch4","","1048","","","tol_tohand","","","","","","","","","tol_peg_1","1048","1048","0","[[1,0,0],[0,0],[3]]","4","[[2,1,3],[0,0],[0]]","1","0","","","","","","5","",""
"","","","","","single-stim-button","225","412615","0.0-3.0-13.3-1.3","6400dbb883a12b7946a0c4b5","D2","batch4","","2064","","","tol_toboard","","","","","","","","","tol_peg_2","2064","2064","0","[[1,0,0],[2,0],[3]]","4","[[2,1,3],[0,0],[0]]","1","0","","","","","","5","",""
"","","","","","single-stim-button","226","413007","0.0-3.0-13.4-0.4","6400dbb883a12b7946a0c4b5","D2","batch4","","391","","","tol_tohand","","","","","","","","","tol_peg_1","391","391","0","[[0,0,0],[2,0],[3]]","5","[[2,1,3],[0,0],[0]]","1","0","","","","","","5","",""
"","","","","","single-stim-button","227","416463","0.0-3.0-13.4-1.4","6400dbb883a12b7946a0c4b5","D2","batch4","","3456","","","tol_toboard","","","","","","","","","tol_peg_1","3456","3456","0","[[1,0,0],[2,0],[3]]","5","[[2,1,3],[0,0],[0]]","1","0","","","","","","5","",""
"","","","","","single-stim-button","228","418423","0.0-3.0-13.5-0.5","6400dbb883a12b7946a0c4b5","D2","batch4","","1960","","","tol_tohand","","","","","","","","","tol_peg_2","1960","1960","0","[[1,0,0],[0,0],[3]]","6","[[2,1,3],[0,0],[0]]","1","0","","","","","","5","",""
"","","","","","single-stim-button","229","418999","0.0-3.0-13.5-1.5","6400dbb883a12b7946a0c4b5","D2","batch4","","576","","","tol_toboard","","","","","","","","","tol_peg_1","576","576","0","[[1,2,0],[0,0],[3]]","6","[[2,1,3],[0,0],[0]]","1","0","","","","","","5","",""
"","","","","","single-stim-button","230","419575","0.0-3.0-13.6-0.6","6400dbb883a12b7946a0c4b5","D2","batch4","","576","","","tol_tohand","","","","","","","","","tol_peg_3","576","576","0","[[1,2,0],[0,0],[0]]","7","[[2,1,3],[0,0],[0]]","1","0","","","","","","5","",""
"","","","","","single-stim-button","231","420023","0.0-3.0-13.6-1.6","6400dbb883a12b7946a0c4b5","D2","batch4","","447","","","tol_toboard","","","","","","","","","tol_peg_2","447","447","0","[[1,2,0],[3,0],[0]]","7","[[2,1,3],[0,0],[0]]","1","0","","","","","","5","",""
"","","","","","single-stim-button","232","420719","0.0-3.0-13.7-0.7","6400dbb883a12b7946a0c4b5","D2","batch4","","696","","","tol_tohand","","","","","","","","","tol_peg_1","696","696","0","[[1,0,0],[3,0],[0]]","8","[[2,1,3],[0,0],[0]]","1","0","","","","","","5","",""
"","","","","","single-stim-button","233","421422","0.0-3.0-13.7-1.7","6400dbb883a12b7946a0c4b5","D2","batch4","","703","","","tol_toboard","","","","","","","","","tol_peg_2","703","703","0","[[1,0,0],[3,2],[0]]","8","[[2,1,3],[0,0],[0]]","1","0","","","","","","5","",""
"","","","","","single-stim-button","234","421999","0.0-3.0-13.8-0.8","6400dbb883a12b7946a0c4b5","D2","batch4","","576","","","tol_tohand","","","","","","","","","tol_peg_1","576","576","0","[[0,0,0],[3,2],[0]]","9","[[2,1,3],[0,0],[0]]","1","0","","","","","","5","",""
"","","","","","single-stim-button","235","423335","0.0-3.0-13.8-1.8","6400dbb883a12b7946a0c4b5","D2","batch4","","1336","","","tol_toboard","","","","","","","","","tol_peg_3","1336","1336","0","[[0,0,0],[3,2],[1]]","9","[[2,1,3],[0,0],[0]]","1","0","","","","","","5","",""
"","","","","","single-stim-button","236","423783","0.0-3.0-13.9-0.9","6400dbb883a12b7946a0c4b5","D2","batch4","","447","","","tol_tohand","","","","","","","","","tol_peg_2","447","447","0","[[0,0,0],[3,0],[1]]","10","[[2,1,3],[0,0],[0]]","1","0","","","","","","5","",""
"","","","","","single-stim-button","237","424255","0.0-3.0-13.9-1.9","6400dbb883a12b7946a0c4b5","D2","batch4","","472","","","tol_toboard","","","","","","","","","tol_peg_1","472","472","0","[[2,0,0],[3,0],[1]]","10","[[2,1,3],[0,0],[0]]","1","0","","","","","","5","",""
"","","","","","single-stim-button","238","425215","0.0-3.0-13.10-0.10","6400dbb883a12b7946a0c4b5","D2","batch4","","959","","","tol_tohand","","","","","","","","","tol_peg_3","959","959","0","[[2,0,0],[3,0],[0]]","11","[[2,1,3],[0,0],[0]]","1","0","","","","","","5","",""
"","","","","","single-stim-button","239","426048","0.0-3.0-13.10-1.10","6400dbb883a12b7946a0c4b5","D2","batch4","","833","","","tol_toboard","","","","","","","","","tol_peg_1","833","833","0","[[2,1,0],[3,0],[0]]","11","[[2,1,3],[0,0],[0]]","1","0","","","","","","5","",""
"","","","","","single-stim-button","240","426582","0.0-3.0-13.11-0.11","6400dbb883a12b7946a0c4b5","D2","batch4","","534","","","tol_tohand","","","","","","","","","tol_peg_2","534","534","0","[[2,1,0],[0,0],[0]]","12","[[2,1,3],[0,0],[0]]","1","0","","","","","","5","",""
"","","","","","single-stim-button","241","427103","0.0-3.0-13.11-1.11","6400dbb883a12b7946a0c4b5","D2","batch4","","520","","","tol_toboard","","","","","","","","","tol_peg_1","520","520","0","[[2,1,3],[0,0],[0]]","12","[[2,1,3],[0,0],[0]]","1","0","","","","","","5","",""
"","","","","","poldrack-single-stim","242","428104","0.0-3.0-14.0","6400dbb883a12b7946a0c4b5","D2","batch4","","-1","","","tol_feedback","true","","","","","","","","","1000","1000","500","","","","","","-1","none","true","2273","16340","","",""
"","","","","","html-button-response","243","429558","0.0-3.0-15.0","6400dbb883a12b7946a0c4b5","D2","batch4","","1454.2999999523163","<div class = centerbox><p class = center-block-text>problem <strong>3</strong> out of 25 problems</p></div>","0","tol_trial_num","","","","","","","","","","","","","","","","","","","","","","","","",""
"","","","","","single-stim-button","244","432023","0.0-3.0-16.0-0.0","6400dbb883a12b7946a0c4b5","D2","batch4","","2464","","","tol_tohand","","","","","","","","","tol_peg_1","2464","2464","0","[[2,0,0],[0,0],[1]]","1","[[1,2,0],[3,0],[0]]","2","0","","","","","","4","",""
"","","","","","single-stim-button","245","432783","0.0-3.0-16.0-1.0","6400dbb883a12b7946a0c4b5","D2","batch4","","759","","","tol_toboard","","","","","","","","","tol_peg_2","759","759","0","[[2,0,0],[3,0],[1]]","1","[[1,2,0],[3,0],[0]]","2","0","","","","","","4","",""
"","","","","","single-stim-button","246","433215","0.0-3.0-16.1-0.1","6400dbb883a12b7946a0c4b5","D2","batch4","","431","","","tol_tohand","","","","","","","","","tol_peg_1","431","431","0","[[0,0,0],[3,0],[1]]","2","[[1,2,0],[3,0],[0]]","2","0","","","","","","4","",""
"","","","","","single-stim-button","247","433639","0.0-3.0-16.1-1.1","6400dbb883a12b7946a0c4b5","D2","batch4","","424","","","tol_toboard","","","","","","","","","tol_peg_2","424","424","0","[[0,0,0],[3,2],[1]]","2","[[1,2,0],[3,0],[0]]","2","0","","","","","","4","",""
"","","","","","single-stim-button","248","434287","0.0-3.0-16.2-0.2","6400dbb883a12b7946a0c4b5","D2","batch4","","647","","","tol_tohand","","","","","","","","","tol_peg_3","647","647","0","[[0,0,0],[3,2],[0]]","3","[[1,2,0],[3,0],[0]]","2","0","","","","","","4","",""
"","","","","","single-stim-button","249","434855","0.0-3.0-16.2-1.2","6400dbb883a12b7946a0c4b5","D2","batch4","","567","","","tol_toboard","","","","","","","","","tol_peg_1","567","567","0","[[1,0,0],[3,2],[0]]","3","[[1,2,0],[3,0],[0]]","2","0","","","","","","4","",""
"","","","","","single-stim-button","250","435639","0.0-3.0-16.3-0.3","6400dbb883a12b7946a0c4b5","D2","batch4","","784","","","tol_tohand","","","","","","","","","tol_peg_2","784","784","0","[[1,0,0],[3,0],[0]]","4","[[1,2,0],[3,0],[0]]","2","0","","","","","","4","",""
"","","","","","single-stim-button","251","436327","0.0-3.0-16.3-1.3","6400dbb883a12b7946a0c4b5","D2","batch4","","688","","","tol_toboard","","","","","","","","","tol_peg_1","688","688","0","[[1,2,0],[3,0],[0]]","4","[[1,2,0],[3,0],[0]]","2","0","","","","","","4","",""
"","","","","","poldrack-single-stim","252","437328","0.0-3.0-17.0","6400dbb883a12b7946a0c4b5","D2","batch4","","-1","","","tol_feedback","true","","","","","","","","","1000","1000","500","","","","","","-1","none","true","2464","4326","","",""
"","","","","","html-button-response","253","438367","0.0-3.0-18.0","6400dbb883a12b7946a0c4b5","D2","batch4","","1038.6000000238419","<div class = centerbox><p class = center-block-text>problem <strong>4</strong> out of 25 problems</p></div>","0","tol_trial_num","","","","","","","","","","","","","","","","","","","","","","","","",""
"","","","","","single-stim-button","254","441159","0.0-3.0-19.0-0.0","6400dbb883a12b7946a0c4b5","D2","batch4","","2792","","","tol_tohand","","","","","","","","","tol_peg_2","2792","2792","0","[[3,0,0],[2,0],[0]]","1","[[3,0,0],[1,0],[2]]","3","0","","","","","","3","",""
"","","","","","single-stim-button","255","442519","0.0-3.0-19.0-1.0","6400dbb883a12b7946a0c4b5","D2","batch4","","1360","","","tol_toboard","","","","","","","","","tol_peg_3","1360","1360","0","[[3,0,0],[2,0],[1]]","1","[[3,0,0],[1,0],[2]]","3","0","","","","","","3","",""
"","","","","","single-stim-button","256","442943","0.0-3.0-19.1-0.1","6400dbb883a12b7946a0c4b5","D2","batch4","","424","","","tol_tohand","","","","","","","","","tol_peg_2","424","424","0","[[3,0,0],[0,0],[1]]","2","[[3,0,0],[1,0],[2]]","3","0","","","","","","3","",""
"","","","","","single-stim-button","257","444999","0.0-3.0-19.1-1.1","6400dbb883a12b7946a0c4b5","D2","batch4","","2055","","","tol_toboard","","","","","","","","","tol_peg_1","2055","2055","0","[[3,2,0],[0,0],[1]]","2","[[3,0,0],[1,0],[2]]","3","0","","","","","","3","",""
"","","","","","single-stim-button","258","445664","0.0-3.0-19.2-0.2","6400dbb883a12b7946a0c4b5","D2","batch4","","665","","","tol_tohand","","","","","","","","","tol_peg_3","665","665","0","[[3,2,0],[0,0],[0]]","3","[[3,0,0],[1,0],[2]]","3","0","","","","","","3","",""
"","","","","","single-stim-button","259","446032","0.0-3.0-19.2-1.2","6400dbb883a12b7946a0c4b5","D2","batch4","","367","","","tol_toboard","","","","","","","","","tol_peg_2","367","367","0","[[3,2,0],[1,0],[0]]","3","[[3,0,0],[1,0],[2]]","3","0","","","","","","3","",""
"","","","","","single-stim-button","260","446551","0.0-3.0-19.3-0.3","6400dbb883a12b7946a0c4b5","D2","batch4","","519","","","tol_tohand","","","","","","","","","tol_peg_1","519","519","0","[[3,0,0],[1,0],[0]]","4","[[3,0,0],[1,0],[2]]","3","0","","","","","","3","",""
"","","","","","single-stim-button","261","446951","0.0-3.0-19.3-1.3","6400dbb883a12b7946a0c4b5","D2","batch4","","400","","","tol_toboard","","","","","","","","","tol_peg_3","400","400","0","[[3,0,0],[1,0],[2]]","4","[[3,0,0],[1,0],[2]]","3","0","","","","","","3","",""
"","","","","","poldrack-single-stim","262","447952","0.0-3.0-20.0","6400dbb883a12b7946a0c4b5","D2","batch4","","-1","","","tol_feedback","true","","","","","","","","","1000","1000","500","","","","","","-1","none","true","2792","4400","","",""
"","","","","","html-button-response","263","448783","0.0-3.0-21.0","6400dbb883a12b7946a0c4b5","D2","batch4","","830.1000000238419","<div class = centerbox><p class = center-block-text>problem <strong>5</strong> out of 25 problems</p></div>","0","tol_trial_num","","","","","","","","","","","","","","","","","","","","","","","","",""
"","","","","","single-stim-button","264","451591","0.0-3.0-22.0-0.0","6400dbb883a12b7946a0c4b5","D2","batch4","","2807","","","tol_tohand","","","","","","","","","tol_peg_2","2807","2807","0","[[1,0,0],[0,0],[3]]","1","[[0,0,0],[1,2],[3]]","4","0","","","","","","7","",""
"","","","","","single-stim-button","265","452615","0.0-3.0-22.0-1.0","6400dbb883a12b7946a0c4b5","D2","batch4","","1024","","","tol_toboard","","","","","","","","","tol_peg_1","1024","1024","0","[[1,2,0],[0,0],[3]]","1","[[0,0,0],[1,2],[3]]","4","0","","","","","","7","",""
"","","","","","single-stim-button","266","454088","0.0-3.0-22.1-0.1","6400dbb883a12b7946a0c4b5","D2","batch4","","1473","","","tol_tohand","","","","","","","","","tol_peg_3","1473","1473","0","[[1,2,0],[0,0],[0]]","2","[[0,0,0],[1,2],[3]]","4","0","","","","","","7","",""
"","","","","","single-stim-button","267","457335","0.0-3.0-22.1-1.1","6400dbb883a12b7946a0c4b5","D2","batch4","","3246","","","tol_toboard","","","","","","","","","tol_peg_1","3246","3246","0","[[1,2,3],[0,0],[0]]","2","[[0,0,0],[1,2],[3]]","4","0","","","","","","7","",""
"","","","","","single-stim-button","268","458671","0.0-3.0-22.2-0.2","6400dbb883a12b7946a0c4b5","D2","batch4","","1335","","","tol_tohand","","","","","","","","","tol_peg_1","1335","1335","0","[[1,2,0],[0,0],[0]]","3","[[0,0,0],[1,2],[3]]","4","0","","","","","","7","",""
"","","","","","single-stim-button","269","459527","0.0-3.0-22.2-1.2","6400dbb883a12b7946a0c4b5","D2","batch4","","856","","","tol_toboard","","","","","","","","","tol_peg_3","856","856","0","[[1,2,0],[0,0],[3]]","3","[[0,0,0],[1,2],[3]]","4","0","","","","","","7","",""
"","","","","","single-stim-button","270","460672","0.0-3.0-22.3-0.3","6400dbb883a12b7946a0c4b5","D2","batch4","","1145","","","tol_tohand","","","","","","","","","tol_peg_1","1145","1145","0","[[1,0,0],[0,0],[3]]","4","[[0,0,0],[1,2],[3]]","4","0","","","","","","7","",""
"","","","","","single-stim-button","271","463295","0.0-3.0-22.3-1.3","6400dbb883a12b7946a0c4b5","D2","batch4","","2623","","","tol_toboard","","","","","","","","","tol_peg_1","2623","2623","0","[[1,2,0],[0,0],[3]]","4","[[0,0,0],[1,2],[3]]","4","0","","","","","","7","",""
"","","","","","single-stim-button","272","463967","0.0-3.0-22.4-0.4","6400dbb883a12b7946a0c4b5","D2","batch4","","672","","","tol_tohand","","","","","","","","","tol_peg_3","672","672","0","[[1,2,0],[0,0],[0]]","5","[[0,0,0],[1,2],[3]]","4","0","","","","","","7","",""
"","","","","","single-stim-button","273","464799","0.0-3.0-22.4-1.4","6400dbb883a12b7946a0c4b5","D2","batch4","","832","","","tol_toboard","","","","","","","","","tol_peg_1","832","832","0","[[1,2,3],[0,0],[0]]","5","[[0,0,0],[1,2],[3]]","4","0","","","","","","7","",""
"","","","","","single-stim-button","274","466031","0.0-3.0-22.5-0.5","6400dbb883a12b7946a0c4b5","D2","batch4","","1232","","","tol_tohand","","","","","","","","","tol_peg_1","1232","1232","0","[[1,2,0],[0,0],[0]]","6","[[0,0,0],[1,2],[3]]","4","0","","","","","","7","",""
"","","","","","single-stim-button","275","466463","0.0-3.0-22.5-1.5","6400dbb883a12b7946a0c4b5","D2","batch4","","431","","","tol_toboard","","","","","","","","","tol_peg_2","431","431","0","[[1,2,0],[3,0],[0]]","6","[[0,0,0],[1,2],[3]]","4","0","","","","","","7","",""
"","","","","","single-stim-button","276","466919","0.0-3.0-22.6-0.6","6400dbb883a12b7946a0c4b5","D2","batch4","","455","","","tol_tohand","","","","","","","","","tol_peg_1","455","455","0","[[1,0,0],[3,0],[0]]","7","[[0,0,0],[1,2],[3]]","4","0","","","","","","7","",""
"","","","","","single-stim-button","277","467631","0.0-3.0-22.6-1.6","6400dbb883a12b7946a0c4b5","D2","batch4","","712","","","tol_toboard","","","","","","","","","tol_peg_3","712","712","0","[[1,0,0],[3,0],[2]]","7","[[0,0,0],[1,2],[3]]","4","0","","","","","","7","",""
"","","","","","single-stim-button","278","468543","0.0-3.0-22.7-0.7","6400dbb883a12b7946a0c4b5","D2","batch4","","912","","","tol_tohand","","","","","","","","","tol_peg_2","912","912","0","[[1,0,0],[0,0],[2]]","8","[[0,0,0],[1,2],[3]]","4","0","","","","","","7","",""
"","","","","","single-stim-button","279","469487","0.0-3.0-22.7-1.7","6400dbb883a12b7946a0c4b5","D2","batch4","","944","","","tol_toboard","","","","","","","","","tol_peg_1","944","944","0","[[1,3,0],[0,0],[2]]","8","[[0,0,0],[1,2],[3]]","4","0","","","","","","7","",""
"","","","","","single-stim-button","280","470943","0.0-3.0-22.8-0.8","6400dbb883a12b7946a0c4b5","D2","batch4","","1456","","","tol_tohand","","","","","","","","","tol_peg_1","1456","1456","0","[[1,0,0],[0,0],[2]]","9","[[0,0,0],[1,2],[3]]","4","0","","","","","","7","",""
"","","","","","single-stim-button","281","471591","0.0-3.0-22.8-1.8","6400dbb883a12b7946a0c4b5","D2","batch4","","647","","","tol_toboard","","","","","","","","","tol_peg_1","647","647","0","[[1,3,0],[0,0],[2]]","9","[[0,0,0],[1,2],[3]]","4","0","","","","","","7","",""
"","","","","","single-stim-button","282","472399","0.0-3.0-22.9-0.9","6400dbb883a12b7946a0c4b5","D2","batch4","","808","","","tol_tohand","","","","","","","","","tol_peg_1","808","808","0","[[1,0,0],[0,0],[2]]","10","[[0,0,0],[1,2],[3]]","4","0","","","","","","7","",""
"","","","","","single-stim-button","283","473775","0.0-3.0-22.9-1.9","6400dbb883a12b7946a0c4b5","D2","batch4","","1376","","","tol_toboard","","","","","","","","","tol_peg_2","1376","1376","0","[[1,0,0],[3,0],[2]]","10","[[0,0,0],[1,2],[3]]","4","0","","","","","","7","",""
"","","","","","single-stim-button","284","476015","0.0-3.0-22.10-0.10","6400dbb883a12b7946a0c4b5","D2","batch4","","2240","","","tol_tohand","","","","","","","","","tol_peg_3","2240","2240","0","[[1,0,0],[3,0],[0]]","11","[[0,0,0],[1,2],[3]]","4","0","","","","","","7","",""
"","","","","","single-stim-button","285","478975","0.0-3.0-22.10-1.10","6400dbb883a12b7946a0c4b5","D2","batch4","","2960","","","tol_toboard","","","","","","","","","tol_peg_1","2960","2960","0","[[1,2,0],[3,0],[0]]","11","[[0,0,0],[1,2],[3]]","4","0","","","","","","7","",""
"","","","","","single-stim-button","286","479551","0.0-3.0-22.11-0.11","6400dbb883a12b7946a0c4b5","D2","batch4","","576","","","tol_tohand","","","","","","","","","tol_peg_2","576","576","0","[[1,2,0],[0,0],[0]]","12","[[0,0,0],[1,2],[3]]","4","0","","","","","","7","",""
"","","","","","single-stim-button","287","480167","0.0-3.0-22.11-1.11","6400dbb883a12b7946a0c4b5","D2","batch4","","615","","","tol_toboard","","","","","","","","","tol_peg_3","615","615","0","[[1,2,0],[0,0],[3]]","12","[[0,0,0],[1,2],[3]]","4","0","","","","","","7","",""
"","","","","","single-stim-button","288","487000","0.0-3.0-22.12-0.12","6400dbb883a12b7946a0c4b5","D2","batch4","","6833","","","tol_tohand","","","","","","","","","tol_peg_3","6833","6833","0","[[1,2,0],[0,0],[0]]","13","[[0,0,0],[1,2],[3]]","4","0","","","","","","7","",""
"","","","","","single-stim-button","289","487976","0.0-3.0-22.12-1.12","6400dbb883a12b7946a0c4b5","D2","batch4","","976","","","tol_toboard","","","","","","","","","tol_peg_2","976","976","0","[[1,2,0],[3,0],[0]]","13","[[0,0,0],[1,2],[3]]","4","0","","","","","","7","",""
"","","","","","single-stim-button","290","488577","0.0-3.0-22.13-0.13","6400dbb883a12b7946a0c4b5","D2","batch4","","601","","","tol_tohand","","","","","","","","","tol_peg_1","601","601","0","[[1,0,0],[3,0],[0]]","14","[[0,0,0],[1,2],[3]]","4","0","","","","","","7","",""
"","","","","","single-stim-button","291","489130","0.0-3.0-22.13-1.13","6400dbb883a12b7946a0c4b5","D2","batch4","","553","","","tol_toboard","","","","","","","","","tol_peg_2","553","553","0","[[1,0,0],[3,2],[0]]","14","[[0,0,0],[1,2],[3]]","4","0","","","","","","7","",""
"","","","","","single-stim-button","292","489675","0.0-3.0-22.14-0.14","6400dbb883a12b7946a0c4b5","D2","batch4","","544","","","tol_tohand","","","","","","","","","tol_peg_1","544","544","0","[[0,0,0],[3,2],[0]]","15","[[0,0,0],[1,2],[3]]","4","0","","","","","","7","",""
"","","","","","single-stim-button","293","490556","0.0-3.0-22.14-1.14","6400dbb883a12b7946a0c4b5","D2","batch4","","881","","","tol_toboard","","","","","","","","","tol_peg_3","881","881","0","[[0,0,0],[3,2],[1]]","15","[[0,0,0],[1,2],[3]]","4","0","","","","","","7","",""
"","","","","","single-stim-button","294","491761","0.0-3.0-22.15-0.15","6400dbb883a12b7946a0c4b5","D2","batch4","","1204","","","tol_tohand","","","","","","","","","tol_peg_2","1204","1204","0","[[0,0,0],[3,0],[1]]","16","[[0,0,0],[1,2],[3]]","4","0","","","","","","7","",""
"","","","","","single-stim-button","295","493331","0.0-3.0-22.15-1.15","6400dbb883a12b7946a0c4b5","D2","batch4","","1570","","","tol_toboard","","","","","","","","","tol_peg_1","1570","1570","0","[[2,0,0],[3,0],[1]]","16","[[0,0,0],[1,2],[3]]","4","0","","","","","","7","",""
"","","","","","single-stim-button","296","494249","0.0-3.0-22.16-0.16","6400dbb883a12b7946a0c4b5","D2","batch4","","917","","","tol_tohand","","","","","","","","","tol_peg_2","917","917","0","[[2,0,0],[0,0],[1]]","17","[[0,0,0],[1,2],[3]]","4","0","","","","","","7","",""
"","","","","","single-stim-button","297","497524","0.0-3.0-22.16-1.16","6400dbb883a12b7946a0c4b5","D2","batch4","","3275","","","tol_toboard","","","","","","","","","tol_peg_1","3275","3275","0","[[2,3,0],[0,0],[1]]","17","[[0,0,0],[1,2],[3]]","4","0","","","","","","7","",""
"","","","","","single-stim-button","298","500105","0.0-3.0-22.17-0.17","6400dbb883a12b7946a0c4b5","D2","batch4","","2581","","","tol_tohand","","","","","","","","","tol_peg_3","2581","2581","0","[[2,3,0],[0,0],[0]]","18","[[0,0,0],[1,2],[3]]","4","0","","","","","","7","",""
"","","","","","single-stim-button","299","501130","0.0-3.0-22.17-1.17","6400dbb883a12b7946a0c4b5","D2","batch4","","1024","","","tol_toboard","","","","","","","","","tol_peg_2","1024","1024","0","[[2,3,0],[1,0],[0]]","18","[[0,0,0],[1,2],[3]]","4","0","","","","","","7","",""
"","","","","","single-stim-button","300","501853","0.0-3.0-22.18-0.18","6400dbb883a12b7946a0c4b5","D2","batch4","","723","","","tol_tohand","","","","","","","","","tol_peg_1","723","723","0","[[2,0,0],[1,0],[0]]","19","[[0,0,0],[1,2],[3]]","4","0","","","","","","7","",""
"","","","","","single-stim-button","301","502857","0.0-3.0-22.18-1.18","6400dbb883a12b7946a0c4b5","D2","batch4","","1004","","","tol_toboard","","","","","","","","","tol_peg_3","1004","1004","0","[[2,0,0],[1,0],[3]]","19","[[0,0,0],[1,2],[3]]","4","0","","","","","","7","",""
"","","","","","single-stim-button","302","503724","0.0-3.0-22.19-0.19","6400dbb883a12b7946a0c4b5","D2","batch4","","867","","","tol_tohand","","","","","","","","","tol_peg_1","867","867","0","[[0,0,0],[1,0],[3]]","20","[[0,0,0],[1,2],[3]]","4","0","","","","","","7","",""
"","","","","","single-stim-button","303","504412","0.0-3.0-22.19-1.19","6400dbb883a12b7946a0c4b5","D2","batch4","","687","","","tol_toboard","","","","","","","","","tol_peg_2","687","687","0","[[0,0,0],[1,2],[3]]","20","[[0,0,0],[1,2],[3]]","4","0","","","","","","7","",""
"","","","","","poldrack-single-stim","304","505414","0.0-3.0-23.0","6400dbb883a12b7946a0c4b5","D2","batch4","","-1","","","tol_feedback","true","","","","","","","","","1000","1000","500","","","","","","-1","none","true","2807","29381","","",""
"","","","","","html-button-response","305","506340","0.0-3.0-24.0","6400dbb883a12b7946a0c4b5","D2","batch4","","925.7000000476837","<div class = centerbox><p class = center-block-text>problem <strong>6</strong> out of 25 problems</p></div>","0","tol_trial_num","","","","","","","","","","","","","","","","","","","","","","","","",""
"","","","","","single-stim-button","306","508411","0.0-3.0-25.0-0.0","6400dbb883a12b7946a0c4b5","D2","batch4","","2071","","","tol_tohand","","","","","","","","","tol_peg_2","2071","2071","0","[[0,0,0],[1,0],[3]]","1","[[1,0,0],[2,3],[0]]","5","0","","","","","","6","",""
"","","","","","single-stim-button","307","510928","0.0-3.0-25.0-1.0","6400dbb883a12b7946a0c4b5","D2","batch4","","2517","","","tol_toboard","","","","","","","","","tol_peg_1","2517","2517","0","[[2,0,0],[1,0],[3]]","1","[[1,0,0],[2,3],[0]]","5","0","","","","","","6","",""
"","","","","","single-stim-button","308","511729","0.0-3.0-25.1-0.1","6400dbb883a12b7946a0c4b5","D2","batch4","","801","","","tol_tohand","","","","","","","","","tol_peg_2","801","801","0","[[2,0,0],[0,0],[3]]","2","[[1,0,0],[2,3],[0]]","5","0","","","","","","6","",""
"","","","","","single-stim-button","309","516847","0.0-3.0-25.1-1.1","6400dbb883a12b7946a0c4b5","D2","batch4","","5117","","","tol_toboard","","","","","","","","","tol_peg_2","5117","5117","0","[[2,0,0],[1,0],[3]]","2","[[1,0,0],[2,3],[0]]","5","0","","","","","","6","",""
"","","","","","single-stim-button","310","517535","0.0-3.0-25.2-0.2","6400dbb883a12b7946a0c4b5","D2","batch4","","688","","","tol_tohand","","","","","","","","","tol_peg_1","688","688","0","[[0,0,0],[1,0],[3]]","3","[[1,0,0],[2,3],[0]]","5","0","","","","","","6","",""
"","","","","","single-stim-button","311","518789","0.0-3.0-25.2-1.2","6400dbb883a12b7946a0c4b5","D2","batch4","","1254","","","tol_toboard","","","","","","","","","tol_peg_2","1254","1254","0","[[0,0,0],[1,2],[3]]","3","[[1,0,0],[2,3],[0]]","5","0","","","","","","6","",""
"","","","","","single-stim-button","312","522609","0.0-3.0-25.3-0.3","6400dbb883a12b7946a0c4b5","D2","batch4","","3820","","","tol_tohand","","","","","","","","","tol_peg_3","3820","3820","0","[[0,0,0],[1,2],[0]]","4","[[1,0,0],[2,3],[0]]","5","0","","","","","","6","",""
"","","","","","single-stim-button","313","523533","0.0-3.0-25.3-1.3","6400dbb883a12b7946a0c4b5","D2","batch4","","924","","","tol_toboard","","","","","","","","","tol_peg_1","924","924","0","[[3,0,0],[1,2],[0]]","4","[[1,0,0],[2,3],[0]]","5","0","","","","","","6","",""
"","","","","","single-stim-button","314","524315","0.0-3.0-25.4-0.4","6400dbb883a12b7946a0c4b5","D2","batch4","","781","","","tol_tohand","","","","","","","","","tol_peg_2","781","781","0","[[3,0,0],[1,0],[0]]","5","[[1,0,0],[2,3],[0]]","5","0","","","","","","6","",""
"","","","","","single-stim-button","315","526005","0.0-3.0-25.4-1.4","6400dbb883a12b7946a0c4b5","D2","batch4","","1690","","","tol_toboard","","","","","","","","","tol_peg_3","1690","1690","0","[[3,0,0],[1,0],[2]]","5","[[1,0,0],[2,3],[0]]","5","0","","","","","","6","",""
"","","","","","single-stim-button","316","526836","0.0-3.0-25.5-0.5","6400dbb883a12b7946a0c4b5","D2","batch4","","831","","","tol_tohand","","","","","","","","","tol_peg_1","831","831","0","[[0,0,0],[1,0],[2]]","6","[[1,0,0],[2,3],[0]]","5","0","","","","","","6","",""
"","","","","","single-stim-button","317","529703","0.0-3.0-25.5-1.5","6400dbb883a12b7946a0c4b5","D2","batch4","","2866","","","tol_toboard","","","","","","","","","tol_peg_1","2866","2866","0","[[3,0,0],[1,0],[2]]","6","[[1,0,0],[2,3],[0]]","5","0","","","","","","6","",""
"","","","","","single-stim-button","318","530993","0.0-3.0-25.6-0.6","6400dbb883a12b7946a0c4b5","D2","batch4","","1289","","","tol_tohand","","","","","","","","","tol_peg_3","1289","1289","0","[[3,0,0],[1,0],[0]]","7","[[1,0,0],[2,3],[0]]","5","0","","","","","","6","",""
"","","","","","single-stim-button","319","531881","0.0-3.0-25.6-1.6","6400dbb883a12b7946a0c4b5","D2","batch4","","888","","","tol_toboard","","","","","","","","","tol_peg_1","888","888","0","[[3,2,0],[1,0],[0]]","7","[[1,0,0],[2,3],[0]]","5","0","","","","","","6","",""
"","","","","","single-stim-button","320","532597","0.0-3.0-25.7-0.7","6400dbb883a12b7946a0c4b5","D2","batch4","","715","","","tol_tohand","","","","","","","","","tol_peg_2","715","715","0","[[3,2,0],[0,0],[0]]","8","[[1,0,0],[2,3],[0]]","5","0","","","","","","6","",""
"","","","","","single-stim-button","321","533229","0.0-3.0-25.7-1.7","6400dbb883a12b7946a0c4b5","D2","batch4","","631","","","tol_toboard","","","","","","","","","tol_peg_3","631","631","0","[[3,2,0],[0,0],[1]]","8","[[1,0,0],[2,3],[0]]","5","0","","","","","","6","",""
"","","","","","single-stim-button","322","533874","0.0-3.0-25.8-0.8","6400dbb883a12b7946a0c4b5","D2","batch4","","644","","","tol_tohand","","","","","","","","","tol_peg_1","644","644","0","[[3,0,0],[0,0],[1]]","9","[[1,0,0],[2,3],[0]]","5","0","","","","","","6","",""
"","","","","","single-stim-button","323","534706","0.0-3.0-25.8-1.8","6400dbb883a12b7946a0c4b5","D2","batch4","","832","","","tol_toboard","","","","","","","","","tol_peg_2","832","832","0","[[3,0,0],[2,0],[1]]","9","[[1,0,0],[2,3],[0]]","5","0","","","","","","6","",""
"","","","","","single-stim-button","324","535257","0.0-3.0-25.9-0.9","6400dbb883a12b7946a0c4b5","D2","batch4","","551","","","tol_tohand","","","","","","","","","tol_peg_1","551","551","0","[[0,0,0],[2,0],[1]]","10","[[1,0,0],[2,3],[0]]","5","0","","","","","","6","",""
"","","","","","single-stim-button","325","535995","0.0-3.0-25.9-1.9","6400dbb883a12b7946a0c4b5","D2","batch4","","737","","","tol_toboard","","","","","","","","","tol_peg_2","737","737","0","[[0,0,0],[2,3],[1]]","10","[[1,0,0],[2,3],[0]]","5","0","","","","","","6","",""
"","","","","","single-stim-button","326","536718","0.0-3.0-25.10-0.10","6400dbb883a12b7946a0c4b5","D2","batch4","","723","","","tol_tohand","","","","","","","","","tol_peg_3","723","723","0","[[0,0,0],[2,3],[0]]","11","[[1,0,0],[2,3],[0]]","5","0","","","","","","6","",""
"","","","","","single-stim-button","327","537507","0.0-3.0-25.10-1.10","6400dbb883a12b7946a0c4b5","D2","batch4","","789","","","tol_toboard","","","","","","","","","tol_peg_1","789","789","0","[[1,0,0],[2,3],[0]]","11","[[1,0,0],[2,3],[0]]","5","0","","","","","","6","",""
"","","","","","poldrack-single-stim","328","538508","0.0-3.0-26.0","6400dbb883a12b7946a0c4b5","D2","batch4","","-1","","","tol_feedback","true","","","","","","","","","1000","1000","500","","","","","","-1","none","true","2071","12914","","",""
"","","","","","html-button-response","329","539678","0.0-3.0-27.0","6400dbb883a12b7946a0c4b5","D2","batch4","","1169","<div class = centerbox><p class = center-block-text>problem <strong>7</strong> out of 25 problems</p></div>","0","tol_trial_num","","","","","","","","","","","","","","","","","","","","","","","","",""
"","","","","","single-stim-button","330","543282","0.0-3.0-28.0-0.0","6400dbb883a12b7946a0c4b5","D2","batch4","","3603","","","tol_tohand","","","","","","","","","tol_peg_1","3603","3603","0","[[2,0,0],[0,0],[3]]","1","[[1,2,0],[3,0],[0]]","6","0","","","","","","5","",""
"","","","","","single-stim-button","331","544443","0.0-3.0-28.0-1.0","6400dbb883a12b7946a0c4b5","D2","batch4","","1161","","","tol_toboard","","","","","","","","","tol_peg_2","1161","1161","0","[[2,0,0],[1,0],[3]]","1","[[1,2,0],[3,0],[0]]","6","0","","","","","","5","",""
"","","","","","single-stim-button","332","545159","0.0-3.0-28.1-0.1","6400dbb883a12b7946a0c4b5","D2","batch4","","716","","","tol_tohand","","","","","","","","","tol_peg_1","716","716","0","[[0,0,0],[1,0],[3]]","2","[[1,2,0],[3,0],[0]]","6","0","","","","","","5","",""
"","","","","","single-stim-button","333","546098","0.0-3.0-28.1-1.1","6400dbb883a12b7946a0c4b5","D2","batch4","","938","","","tol_toboard","","","","","","","","","tol_peg_2","938","938","0","[[0,0,0],[1,2],[3]]","2","[[1,2,0],[3,0],[0]]","6","0","","","","","","5","",""
"","","","","","single-stim-button","334","547932","0.0-3.0-28.2-0.2","6400dbb883a12b7946a0c4b5","D2","batch4","","1834","","","tol_tohand","","","","","","","","","tol_peg_2","1834","1834","0","[[0,0,0],[1,0],[3]]","3","[[1,2,0],[3,0],[0]]","6","0","","","","","","5","",""
"","","","","","single-stim-button","335","551702","0.0-3.0-28.2-1.2","6400dbb883a12b7946a0c4b5","D2","batch4","","3770","","","tol_toboard","","","","","","","","","tol_peg_1","3770","3770","0","[[2,0,0],[1,0],[3]]","3","[[1,2,0],[3,0],[0]]","6","0","","","","","","5","",""
"","","","","","single-stim-button","336","552418","0.0-3.0-28.3-0.3","6400dbb883a12b7946a0c4b5","D2","batch4","","716","","","tol_tohand","","","","","","","","","tol_peg_3","716","716","0","[[2,0,0],[1,0],[0]]","4","[[1,2,0],[3,0],[0]]","6","0","","","","","","5","",""
"","","","","","single-stim-button","337","554260","0.0-3.0-28.3-1.3","6400dbb883a12b7946a0c4b5","D2","batch4","","1842","","","tol_toboard","","","","","","","","","tol_peg_2","1842","1842","0","[[2,0,0],[1,3],[0]]","4","[[1,2,0],[3,0],[0]]","6","0","","","","","","5","",""
"","","","","","single-stim-button","338","554934","0.0-3.0-28.4-0.4","6400dbb883a12b7946a0c4b5","D2","batch4","","674","","","tol_tohand","","","","","","","","","tol_peg_2","674","674","0","[[2,0,0],[1,0],[0]]","5","[[1,2,0],[3,0],[0]]","6","0","","","","","","5","",""
"","","","","","single-stim-button","339","556867","0.0-3.0-28.4-1.4","6400dbb883a12b7946a0c4b5","D2","batch4","","1933","","","tol_toboard","","","","","","","","","tol_peg_1","1933","1933","0","[[2,3,0],[1,0],[0]]","5","[[1,2,0],[3,0],[0]]","6","0","","","","","","5","",""
"","","","","","single-stim-button","340","557621","0.0-3.0-28.5-0.5","6400dbb883a12b7946a0c4b5","D2","batch4","","752","","","tol_tohand","","","","","","","","","tol_peg_2","752","752","0","[[2,3,0],[0,0],[0]]","6","[[1,2,0],[3,0],[0]]","6","0","","","","","","5","",""
"","","","","","single-stim-button","341","558351","0.0-3.0-28.5-1.5","6400dbb883a12b7946a0c4b5","D2","batch4","","730","","","tol_toboard","","","","","","","","","tol_peg_3","730","730","0","[[2,3,0],[0,0],[1]]","6","[[1,2,0],[3,0],[0]]","6","0","","","","","","5","",""
"","","","","","single-stim-button","342","559183","0.0-3.0-28.6-0.6","6400dbb883a12b7946a0c4b5","D2","batch4","","832","","","tol_tohand","","","","","","","","","tol_peg_1","832","832","0","[[2,0,0],[0,0],[1]]","7","[[1,2,0],[3,0],[0]]","6","0","","","","","","5","",""
"","","","","","single-stim-button","343","560165","0.0-3.0-28.6-1.6","6400dbb883a12b7946a0c4b5","D2","batch4","","981","","","tol_toboard","","","","","","","","","tol_peg_2","981","981","0","[[2,0,0],[3,0],[1]]","7","[[1,2,0],[3,0],[0]]","6","0","","","","","","5","",""
"","","","","","single-stim-button","344","560824","0.0-3.0-28.7-0.7","6400dbb883a12b7946a0c4b5","D2","batch4","","659","","","tol_tohand","","","","","","","","","tol_peg_1","659","659","0","[[0,0,0],[3,0],[1]]","8","[[1,2,0],[3,0],[0]]","6","0","","","","","","5","",""
"","","","","","single-stim-button","345","561633","0.0-3.0-28.7-1.7","6400dbb883a12b7946a0c4b5","D2","batch4","","809","","","tol_toboard","","","","","","","","","tol_peg_2","809","809","0","[[0,0,0],[3,2],[1]]","8","[[1,2,0],[3,0],[0]]","6","0","","","","","","5","",""
"","","","","","single-stim-button","346","562279","0.0-3.0-28.8-0.8","6400dbb883a12b7946a0c4b5","D2","batch4","","645","","","tol_tohand","","","","","","","","","tol_peg_3","645","645","0","[[0,0,0],[3,2],[0]]","9","[[1,2,0],[3,0],[0]]","6","0","","","","","","5","",""
"","","","","","single-stim-button","347","563081","0.0-3.0-28.8-1.8","6400dbb883a12b7946a0c4b5","D2","batch4","","802","","","tol_toboard","","","","","","","","","tol_peg_1","802","802","0","[[1,0,0],[3,2],[0]]","9","[[1,2,0],[3,0],[0]]","6","0","","","","","","5","",""
