"success","timeout","failed_images","failed_audio","failed_video","trial_type","trial_index","time_elapsed","internal_node_id","subject_id","study_id","session_id","view_history","rt","stimulus","response","task","correct","answer","item","fiar_detect_rt","fiar_detect_correct","total_correct_fiar_detect","post_trial_gap","choices","spm_correct","spm_rt","mouse_click","stim_duration","block_duration","timing_post_trial","current_position","tol_num_moves_made","tol_target","tol_problem_id","tol_rt","key_press","possible_responses","tol_correct","preplanning","tol_rt_per_trial","tol_min_moves"
"true","false","[]","[]","[]","preload","0","996","0.0-0.0","640188f192ec944654326ec3","A3","batch1","","","","","","","","","","","","","","","","","","","","","","","","","","","","","",""
"true","","","","","fullscreen","1","8246","0.0-1.0-0.0","640188f192ec944654326ec3","A3","batch1","","","","","","","","","","","","","","","","","","","","","","","","","","","","","",""
"true","","","","","fullscreen","2","10906","0.0-2.0-0.0","640188f192ec944654326ec3","A3","batch1","","","","","","","","","","","","","","","","","","","","","","","","","","","","","",""
"","","","","","instructions","3","29939","0.0-2.0-1.0-0.0","640188f192ec944654326ec3","A3","batch1","[{""page_index"":0,""viewing_time"":14650.5},{""page_index"":1,""viewing_time"":4381.400000095367}]","19032.099999904633","","","","","","","","","","","","","","","","","","","","","","","","","","","",""
"","","","","","html-button-response","4","30878","0.0-2.0-1.0-1.0-0.0","640188f192ec944654326ec3","A3","batch1","","938.7000000476837","<p class=block-text> Let's answer a few questions <br>","0","pattern_enter_quiz","","","","","","","","","","","","","","","","","","","","","","","","",""
"","","","","","html-button-response","5","32199","0.0-2.0-1.0-1.0-1.0","640188f192ec944654326ec3","A3","batch1","","1320","<p class = block-text>True or False: You will have as much time as you want to make each choice. <br></p>","1","pattern_quiz","true","","","","","","","","","","","","","","","","","","","","","","","",""
"","","","","","html-button-response","6","32853","0.0-2.0-1.0-1.0-2.0","640188f192ec944654326ec3","A3","batch1","","653.0999999046326","<p class = block-text>Correct! You should make your choice <strong> as fast as you can</strong>.</p>","0","pattern_quiz_feedback","","","","","","","","","","","","","","","","","","","","","","","","",""
"","","","","","html-button-response","7","34499","0.0-2.0-1.0-1.0-3.0","640188f192ec944654326ec3","A3","batch1","","1645.4000000953674","<p class = block-text>True or False: You will look for 4 pieces in black or white color connected in a row either horizontally, vertically or diagonally. <br></p>","0","pattern_quiz","true","","","","","","","","","","","","","","","","","","","","","","","",""
"","","","","","html-button-response","8","34940","0.0-2.0-1.0-1.0-4.0","640188f192ec944654326ec3","A3","batch1","","439.7999999523163","<p class = block-text>Correct! </p>","0","pattern_quiz_feedback","","","","","","","","","","","","","","","","","","","","","","","","",""
"","","","","","html-button-response","9","36069","0.0-2.0-2.0","640188f192ec944654326ec3","A3","batch1","","1128.2000000476837","<p class=block-text> Now that you've understood the game, let's do a few practice trials before we start!<br> <br>","0","pattern_enter_practice","","","","","","","","","","","","","","","","","","","","","","","","",""
"","","","","","image-keyboard-response","10","37025","0.0-2.0-3.0-0.0","640188f192ec944654326ec3","A3","batch1","","954.2000000476837","stim/prac_yes_18_hor_w1.png","f","pattern_practice","true","f","","","","","","","","","","","","","","","","","","","","","","",""
"","","","","","html-keyboard-response","11","38028","0.0-2.0-3.0-1.0","640188f192ec944654326ec3","A3","batch1","","null","<p style=""font-size:30px;color:green;"">Correct!</p>","null","pattern_feedback","","","","","","","","","","","","","","","","","","","","","","","","",""
"","","","","","image-keyboard-response","12","39408","0.0-2.0-3.0-0.1","640188f192ec944654326ec3","A3","batch1","","1378.1000001430511","stim/prac_no_18_1.png","j","pattern_practice","true","j","","","","","","","","","","","","","","","","","","","","","","",""
"","","","","","html-keyboard-response","13","40409","0.0-2.0-3.0-1.1","640188f192ec944654326ec3","A3","batch1","","null","<p style=""font-size:30px;color:green;"">Correct!</p>","null","pattern_feedback","","","","","","","","","","","","","","","","","","","","","","","","",""
"","","","","","image-keyboard-response","14","41260","0.0-2.0-3.0-0.2","640188f192ec944654326ec3","A3","batch1","","849.9000000953674","stim/prac_yes_16_ver_w1.png","f","pattern_practice","true","f","","","","","","","","","","","","","","","","","","","","","","",""
"","","","","","html-keyboard-response","15","42283","0.0-2.0-3.0-1.2","640188f192ec944654326ec3","A3","batch1","","null","<p style=""font-size:30px;color:green;"">Correct!</p>","null","pattern_feedback","","","","","","","","","","","","","","","","","","","","","","","","",""
"","","","","","image-keyboard-response","16","43167","0.0-2.0-3.0-0.3","640188f192ec944654326ec3","A3","batch1","","883.2000000476837","stim/prac_no_16_1.png","j","pattern_practice","true","j","","","","","","","","","","","","","","","","","","","","","","",""
"","","","","","html-keyboard-response","17","44186","0.0-2.0-3.0-1.3","640188f192ec944654326ec3","A3","batch1","","null","<p style=""font-size:30px;color:green;"">Correct!</p>","null","pattern_feedback","","","","","","","","","","","","","","","","","","","","","","","","",""
"","","","","","image-keyboard-response","18","45088","0.0-2.0-3.0-0.4","640188f192ec944654326ec3","A3","batch1","","900.5","stim/prac_yes_20_dia_b1.png","j","pattern_practice","false","f","","","","","","","","","","","","","","","","","","","","","","",""
"","","","","","html-keyboard-response","19","46105","0.0-2.0-3.0-1.4","640188f192ec944654326ec3","A3","batch1","","null","<p style=""font-size:30px;color:red;"">Wrong.</p>","null","pattern_feedback","","","","","","","","","","","","","","","","","","","","","","","","",""
"","","","","","html-button-response","20","47353","0.0-2.0-4.0","640188f192ec944654326ec3","A3","batch1","","1246.0999999046326","<p class=block-text> Good job! You are done with practice trials!<br>
        You responded correctly on 80% of the trials.<br>
        Press the button below to start official trials. Now you won't see any feedback about your response</p>","0","pattern_enter_official_trials","","","","","","","","","","","","","","","","","","","","","","","","",""
"","","","","","html-keyboard-response","21","48167","0.0-2.0-5.0-0.0","640188f192ec944654326ec3","A3","batch1","","null","<p class=block-text>Trial 1 out of 78</p>","null","pattern_show_trial_num","","","","","","","","","","","","","","","","","","","","","","","","",""
"","","","","","image-keyboard-response","22","50668","0.0-2.0-5.0-1.0","640188f192ec944654326ec3","A3","batch1","","2500","stim/no_45_1_w.png","j","pattern_response","true","j","pattern_25","2500","true","1","","","","","","","","","","","","","","","","","","",""
"","","","","","html-keyboard-response","23","51989","0.0-2.0-5.0-0.1","640188f192ec944654326ec3","A3","batch1","","null","<p class=block-text>Trial 2 out of 78</p>","null","pattern_show_trial_num","","","","","","","","","","","","","","","","","","","","","","","","",""
"","","","","","image-keyboard-response","24","54275","0.0-2.0-5.0-1.1","640188f192ec944654326ec3","A3","batch1","","2285.5","stim/yes_44_ver_w1_w.png","f","pattern_response","true","f","pattern_66","2285.5","true","2","","","","","","","","","","","","","","","","","","",""
"","","","","","html-keyboard-response","25","55601","0.0-2.0-5.0-0.2","640188f192ec944654326ec3","A3","batch1","","null","<p class=block-text>Trial 3 out of 78</p>","null","pattern_show_trial_num","","","","","","","","","","","","","","","","","","","","","","","","",""
"","","","","","image-keyboard-response","26","56518","0.0-2.0-5.0-1.2","640188f192ec944654326ec3","A3","batch1","","916.2999999523163","stim/yes_39_hor_w1_w.png","f","pattern_response","true","f","pattern_62","916.2999999523163","true","3","","","","","","","","","","","","","","","","","","",""
"","","","","","html-keyboard-response","27","57832","0.0-2.0-5.0-0.3","640188f192ec944654326ec3","A3","batch1","","null","<p class=block-text>Trial 4 out of 78</p>","null","pattern_show_trial_num","","","","","","","","","","","","","","","","","","","","","","","","",""
"","","","","","image-keyboard-response","28","62546","0.0-2.0-5.0-1.3","640188f192ec944654326ec3","A3","batch1","","4713.400000095367","stim/yes_70_ver_b1.png","f","pattern_response","true","f","pattern_80","4713.400000095367","true","4","","","","","","","","","","","","","","","","","","",""
"","","","","","html-keyboard-response","29","63868","0.0-2.0-5.0-0.4","640188f192ec944654326ec3","A3","batch1","","null","<p class=block-text>Trial 5 out of 78</p>","null","pattern_show_trial_num","","","","","","","","","","","","","","","","","","","","","","","","",""
"","","","","","image-keyboard-response","30","66010","0.0-2.0-5.0-1.4","640188f192ec944654326ec3","A3","batch1","","2140.899999856949","stim/yes_51_dia_b1.png","j","pattern_response","false","f","pattern_72","2140.899999856949","false","4","","","","","","","","","","","","","","","","","","",""
"","","","","","html-keyboard-response","31","67329","0.0-2.0-5.0-0.5","640188f192ec944654326ec3","A3","batch1","","null","<p class=block-text>Trial 6 out of 78</p>","null","pattern_show_trial_num","","","","","","","","","","","","","","","","","","","","","","","","",""
"","","","","","image-keyboard-response","32","68646","0.0-2.0-5.0-1.5","640188f192ec944654326ec3","A3","batch1","","1315.8999998569489","stim/yes_30_ver_b1_b.png","f","pattern_response","true","f","pattern_54","1315.8999998569489","true","5","","","","","","","","","","","","","","","","","","",""
"","","","","","html-keyboard-response","33","69966","0.0-2.0-5.0-0.6","640188f192ec944654326ec3","A3","batch1","","null","<p class=block-text>Trial 7 out of 78</p>","null","pattern_show_trial_num","","","","","","","","","","","","","","","","","","","","","","","","",""
"","","","","","image-keyboard-response","34","73033","0.0-2.0-5.0-1.6","640188f192ec944654326ec3","A3","batch1","","3065.9000000953674","stim/no_33_1_b.png","j","pattern_response","true","j","pattern_15","3065.9000000953674","true","6","","","","","","","","","","","","","","","","","","",""
"","","","","","html-keyboard-response","35","74351","0.0-2.0-5.0-0.7","640188f192ec944654326ec3","A3","batch1","","null","<p class=block-text>Trial 8 out of 78</p>","null","pattern_show_trial_num","","","","","","","","","","","","","","","","","","","","","","","","",""
"","","","","","image-keyboard-response","36","75296","0.0-2.0-5.0-1.7","640188f192ec944654326ec3","A3","batch1","","944","stim/yes_49_hor_w1_b.png","f","pattern_response","true","f","pattern_70","944","true","7","","","","","","","","","","","","","","","","","","",""
"","","","","","html-keyboard-response","37","76617","0.0-2.0-5.0-0.8","640188f192ec944654326ec3","A3","batch1","","null","<p class=block-text>Trial 9 out of 78</p>","null","pattern_show_trial_num","","","","","","","","","","","","","","","","","","","","","","","","",""
"","","","","","image-keyboard-response","38","78729","0.0-2.0-5.0-1.8","640188f192ec944654326ec3","A3","batch1","","2111.600000143051","stim/no_22_1_b.png","j","pattern_response","true","j","pattern_07","2111.600000143051","true","8","","","","","","","","","","","","","","","","","","",""
"","","","","","html-keyboard-response","39","80053","0.0-2.0-5.0-0.9","640188f192ec944654326ec3","A3","batch1","","null","<p class=block-text>Trial 10 out of 78</p>","null","pattern_show_trial_num","","","","","","","","","","","","","","","","","","","","","","","","",""
"","","","","","image-keyboard-response","40","80957","0.0-2.0-5.0-1.9","640188f192ec944654326ec3","A3","batch1","","902.2999999523163","stim/no_12_1.png","j","pattern_response","true","j","pattern_01","902.2999999523163","true","9","","","","","","","","","","","","","","","","","","",""
"","","","","","html-keyboard-response","41","82268","0.0-2.0-5.0-0.10","640188f192ec944654326ec3","A3","batch1","","null","<p class=block-text>Trial 11 out of 78</p>","null","pattern_show_trial_num","","","","","","","","","","","","","","","","","","","","","","","","",""
"","","","","","image-keyboard-response","42","82964","0.0-2.0-5.0-1.10","640188f192ec944654326ec3","A3","batch1","","695.5","stim/yes_15_dia_b1u_b.png","f","pattern_response","true","f","pattern_44","695.5","true","10","","","","","","","","","","","","","","","","","","",""
"","","","","","html-keyboard-response","43","84272","0.0-2.0-5.0-0.11","640188f192ec944654326ec3","A3","batch1","","null","<p class=block-text>Trial 12 out of 78</p>","null","pattern_show_trial_num","","","","","","","","","","","","","","","","","","","","","","","","",""
"","","","","","image-keyboard-response","44","87197","0.0-2.0-5.0-1.11","640188f192ec944654326ec3","A3","batch1","","2924.7999999523163","stim/yes_42_dia_w1_w.png","f","pattern_response","true","f","pattern_64","2924.7999999523163","true","11","","","","","","","","","","","","","","","","","","",""
"","","","","","html-keyboard-response","45","88513","0.0-2.0-5.0-0.12","640188f192ec944654326ec3","A3","batch1","","null","<p class=block-text>Trial 13 out of 78</p>","null","pattern_show_trial_num","","","","","","","","","","","","","","","","","","","","","","","","",""
"","","","","","image-keyboard-response","46","89271","0.0-2.0-5.0-1.12","640188f192ec944654326ec3","A3","batch1","","756.5999999046326","stim/yes_36_ver_w1_w.png","f","pattern_response","true","f","pattern_58","756.5999999046326","true","12","","","","","","","","","","","","","","","","","","",""
"","","","","","html-keyboard-response","47","90599","0.0-2.0-5.0-0.13","640188f192ec944654326ec3","A3","batch1","","null","<p class=block-text>Trial 14 out of 78</p>","null","pattern_show_trial_num","","","","","","","","","","","","","","","","","","","","","","","","",""
"","","","","","image-keyboard-response","48","92320","0.0-2.0-5.0-1.13","640188f192ec944654326ec3","A3","batch1","","1719.9000000953674","stim/yes_33_dia_w1_w.png","f","pattern_response","true","f","pattern_56","1719.9000000953674","true","13","","","","","","","","","","","","","","","","","","",""
"","","","","","html-keyboard-response","49","93636","0.0-2.0-5.0-0.14","640188f192ec944654326ec3","A3","batch1","","null","<p class=block-text>Trial 15 out of 78</p>","null","pattern_show_trial_num","","","","","","","","","","","","","","","","","","","","","","","","",""
"","","","","","image-keyboard-response","50","100108","0.0-2.0-5.0-1.14","640188f192ec944654326ec3","A3","batch1","","6470","stim/no_53_1_b.png","j","pattern_response","true","j","pattern_33","6470","true","14","","","","","","","","","","","","","","","","","","",""
"","","","","","html-keyboard-response","51","101420","0.0-2.0-5.0-0.15","640188f192ec944654326ec3","A3","batch1","","null","<p class=block-text>Trial 16 out of 78</p>","null","pattern_show_trial_num","","","","","","","","","","","","","","","","","","","","","","","","",""
"","","","","","image-keyboard-response","52","106290","0.0-2.0-5.0-1.15","640188f192ec944654326ec3","A3","batch1","","4868.699999809265","stim/no_58_1_w.png","f","pattern_response","false","j","pattern_35","4868.699999809265","false","14","","","","","","","","","","","","","","","","","","",""
"","","","","","html-keyboard-response","53","107604","0.0-2.0-5.0-0.16","640188f192ec944654326ec3","A3","batch1","","null","<p class=block-text>Trial 17 out of 78</p>","null","pattern_show_trial_num","","","","","","","","","","","","","","","","","","","","","","","","",""
"","","","","","image-keyboard-response","54","108418","0.0-2.0-5.0-1.16","640188f192ec944654326ec3","A3","batch1","","813.5","stim/yes_26_dia_w2_w.png","f","pattern_response","true","f","pattern_50","813.5","true","15","","","","","","","","","","","","","","","","","","",""
"","","","","","html-keyboard-response","55","109741","0.0-2.0-5.0-0.17","640188f192ec944654326ec3","A3","batch1","","null","<p class=block-text>Trial 18 out of 78</p>","null","pattern_show_trial_num","","","","","","","","","","","","","","","","","","","","","","","","",""
"","","","","","image-keyboard-response","56","112850","0.0-2.0-5.0-1.17","640188f192ec944654326ec3","A3","batch1","","3108.2999999523163","stim/no_37_2_w.png","j","pattern_response","true","j","pattern_19","3108.2999999523163","true","16","","","","","","","","","","","","","","","","","","",""
"","","","","","html-keyboard-response","57","114181","0.0-2.0-5.0-0.18","640188f192ec944654326ec3","A3","batch1","","null","<p class=block-text>Trial 19 out of 78</p>","null","pattern_show_trial_num","","","","","","","","","","","","","","","","","","","","","","","","",""
"","","","","","image-keyboard-response","58","115018","0.0-2.0-5.0-1.18","640188f192ec944654326ec3","A3","batch1","","836.2000000476837","stim/no_15_1_w.png","j","pattern_response","true","j","pattern_03","836.2000000476837","true","17","","","","","","","","","","","","","","","","","","",""
"","","","","","html-keyboard-response","59","116334","0.0-2.0-5.0-0.19","640188f192ec944654326ec3","A3","batch1","","null","<p class=block-text>Trial 20 out of 78</p>","null","pattern_show_trial_num","","","","","","","","","","","","","","","","","","","","","","","","",""
"","","","","","image-keyboard-response","60","119658","0.0-2.0-5.0-1.19","640188f192ec944654326ec3","A3","batch1","","3323.100000143051","stim/no_39_1_w.png","j","pattern_response","true","j","pattern_21","3323.100000143051","true","18","","","","","","","","","","","","","","","","","","",""
"","","","","","html-keyboard-response","61","120978","0.0-2.0-5.0-0.20","640188f192ec944654326ec3","A3","batch1","","null","<p class=block-text>Trial 21 out of 78</p>","null","pattern_show_trial_num","","","","","","","","","","","","","","","","","","","","","","","","",""
"","","","","","image-keyboard-response","62","122078","0.0-2.0-5.0-1.20","640188f192ec944654326ec3","A3","batch1","","1098.7000000476837","stim/yes_23_ver_b1.png","f","pattern_response","true","f","pattern_48","1098.7000000476837","true","19","","","","","","","","","","","","","","","","","","",""
"","","","","","html-keyboard-response","63","123401","0.0-2.0-5.0-0.21","640188f192ec944654326ec3","A3","batch1","","null","<p class=block-text>Trial 22 out of 78</p>","null","pattern_show_trial_num","","","","","","","","","","","","","","","","","","","","","","","","",""
"","","","","","image-keyboard-response","64","126134","0.0-2.0-5.0-1.21","640188f192ec944654326ec3","A3","batch1","","2731.4000000953674","stim/yes_37_hor_w1_w.png","j","pattern_response","false","f","pattern_60","2731.4000000953674","false","19","","","","","","","","","","","","","","","","","","",""
"","","","","","html-keyboard-response","65","127456","0.0-2.0-5.0-0.22","640188f192ec944654326ec3","A3","batch1","","null","<p class=block-text>Trial 23 out of 78</p>","null","pattern_show_trial_num","","","","","","","","","","","","","","","","","","","","","","","","",""
"","","","","","image-keyboard-response","66","128121","0.0-2.0-5.0-1.22","640188f192ec944654326ec3","A3","batch1","","663.7000000476837","stim/yes_17_ver_b1_b.png","f","pattern_response","true","f","pattern_46","663.7000000476837","true","20","","","","","","","","","","","","","","","","","","",""
"","","","","","html-keyboard-response","67","129446","0.0-2.0-5.0-0.23","640188f192ec944654326ec3","A3","batch1","","null","<p class=block-text>Trial 24 out of 78</p>","null","pattern_show_trial_num","","","","","","","","","","","","","","","","","","","","","","","","",""
"","","","","","image-keyboard-response","68","132349","0.0-2.0-5.0-1.23","640188f192ec944654326ec3","A3","batch1","","2902.2000000476837","stim/no_36_1_b.png","j","pattern_response","true","j","pattern_17","2902.2000000476837","true","21","","","","","","","","","","","","","","","","","","",""
"","","","","","html-keyboard-response","69","133672","0.0-2.0-5.0-0.24","640188f192ec944654326ec3","A3","batch1","","null","<p class=block-text>Trial 25 out of 78</p>","null","pattern_show_trial_num","","","","","","","","","","","","","","","","","","","","","","","","",""
"","","","","","image-keyboard-response","70","136302","0.0-2.0-5.0-1.24","640188f192ec944654326ec3","A3","batch1","","2628.5","stim/no_25_1_b.png","j","pattern_response","true","j","pattern_09","2628.5","true","22","","","","","","","","","","","","","","","","","","",""
"","","","","","html-keyboard-response","71","137621","0.0-2.0-5.0-0.25","640188f192ec944654326ec3","A3","batch1","","null","<p class=block-text>Trial 26 out of 78</p>","null","pattern_show_trial_num","","","","","","","","","","","","","","","","","","","","","","","","",""
"","","","","","image-keyboard-response","72","138269","0.0-2.0-5.0-1.25","640188f192ec944654326ec3","A3","batch1","","647","stim/yes_29_hor_b1_b.png","f","pattern_response","true","f","pattern_52","647","true","23","","","","","","","","","","","","","","","","","","",""
"","","","","","html-keyboard-response","73","139596","0.0-2.0-5.0-0.26","640188f192ec944654326ec3","A3","batch1","","null","<p class=block-text>Trial 27 out of 78</p>","null","pattern_show_trial_num","","","","","","","","","","","","","","","","","","","","","","","","",""
"","","","","","image-keyboard-response","74","142516","0.0-2.0-5.0-1.26","640188f192ec944654326ec3","A3","batch1","","2918.600000143051","stim/no_28_2.png","j","pattern_response","true","j","pattern_11","2918.600000143051","true","24","","","","","","","","","","","","","","","","","","",""
"","","","","","html-keyboard-response","75","143829","0.0-2.0-5.0-0.27","640188f192ec944654326ec3","A3","batch1","","null","<p class=block-text>Trial 28 out of 78</p>","null","pattern_show_trial_num","","","","","","","","","","","","","","","","","","","","","","","","",""
"","","","","","image-keyboard-response","76","145556","0.0-2.0-5.0-1.27","640188f192ec944654326ec3","A3","batch1","","1725.7000000476837","stim/no_18_1_b.png","j","pattern_response","true","j","pattern_05","1725.7000000476837","true","25","","","","","","","","","","","","","","","","","","",""
"","","","","","html-keyboard-response","77","146870","0.0-2.0-5.0-0.28","640188f192ec944654326ec3","A3","batch1","","null","<p class=block-text>Trial 29 out of 78</p>","null","pattern_show_trial_num","","","","","","","","","","","","","","","","","","","","","","","","",""
"","","","","","image-keyboard-response","78","149868","0.0-2.0-5.0-1.28","640188f192ec944654326ec3","A3","batch1","","2997","stim/no_30_1_b.png","j","pattern_response","true","j","pattern_13","2997","true","26","","","","","","","","","","","","","","","","","","",""
"","","","","","html-keyboard-response","79","151182","0.0-2.0-5.0-0.29","640188f192ec944654326ec3","A3","batch1","","null","<p class=block-text>Trial 30 out of 78</p>","null","pattern_show_trial_num","","","","","","","","","","","","","","","","","","","","","","","","",""
"","","","","","image-keyboard-response","80","157723","0.0-2.0-5.0-1.29","640188f192ec944654326ec3","A3","batch1","","6540.100000143051","stim/no_49_2_b.png","j","pattern_response","true","j","pattern_29","6540.100000143051","true","27","","","","","","","","","","","","","","","","","","",""
"","","","","","html-keyboard-response","81","159049","0.0-2.0-5.0-0.30","640188f192ec944654326ec3","A3","batch1","","null","<p class=block-text>Trial 31 out of 78</p>","null","pattern_show_trial_num","","","","","","","","","","","","","","","","","","","","","","","","",""
"","","","","","image-keyboard-response","82","164891","0.0-2.0-5.0-1.30","640188f192ec944654326ec3","A3","batch1","","5841.200000047684","stim/yes_63_dia_b1.png","j","pattern_response","false","f","pattern_78","5841.200000047684","false","27","","","","","","","","","","","","","","","","","","",""
"","","","","","html-keyboard-response","83","166213","0.0-2.0-5.0-0.31","640188f192ec944654326ec3","A3","batch1","","null","<p class=block-text>Trial 32 out of 78</p>","null","pattern_show_trial_num","","","","","","","","","","","","","","","","","","","","","","","","",""
"","","","","","image-keyboard-response","84","172785","0.0-2.0-5.0-1.31","640188f192ec944654326ec3","A3","batch1","","6571.600000143051","stim/no_67_1.png","j","pattern_response","true","j","pattern_39","6571.600000143051","true","28","","","","","","","","","","","","","","","","","","",""
"","","","","","html-keyboard-response","85","174104","0.0-2.0-5.0-0.32","640188f192ec944654326ec3","A3","batch1","","null","<p class=block-text>Trial 33 out of 78</p>","null","pattern_show_trial_num","","","","","","","","","","","","","","","","","","","","","","","","",""
"","","","","","image-keyboard-response","86","178074","0.0-2.0-5.0-1.32","640188f192ec944654326ec3","A3","batch1","","3968.5999999046326","stim/yes_58_dia_w1_w.png","j","pattern_response","false","f","pattern_76","3968.5999999046326","false","28","","","","","","","","","","","","","","","","","","",""
"","","","","","html-keyboard-response","87","179380","0.0-2.0-5.0-0.33","640188f192ec944654326ec3","A3","batch1","","null","<p class=block-text>Trial 34 out of 78</p>","null","pattern_show_trial_num","","","","","","","","","","","","","","","","","","","","","","","","",""
"","","","","","image-keyboard-response","88","183765","0.0-2.0-5.0-1.33","640188f192ec944654326ec3","A3","batch1","","4383.700000047684","stim/yes_53_ver_b1_b.png","j","pattern_response","false","f","pattern_74","4383.700000047684","false","28","","","","","","","","","","","","","","","","","","",""
"","","","","","html-keyboard-response","89","185086","0.0-2.0-5.0-0.34","640188f192ec944654326ec3","A3","batch1","","null","<p class=block-text>Trial 35 out of 78</p>","null","pattern_show_trial_num","","","","","","","","","","","","","","","","","","","","","","","","",""
"","","","","","image-keyboard-response","90","188008","0.0-2.0-5.0-1.34","640188f192ec944654326ec3","A3","batch1","","2917.5","stim/no_47_1_b.png","j","pattern_response","true","j","pattern_27","2917.5","true","29","","","","","","","","","","","","","","","","","","",""
"","","","","","html-keyboard-response","91","189326","0.0-2.0-5.0-0.35","640188f192ec944654326ec3","A3","batch1","","null","<p class=block-text>Trial 36 out of 78</p>","null","pattern_show_trial_num","","","","","","","","","","","","","","","","","","","","","","","","",""
"","","","","","image-keyboard-response","92","193212","0.0-2.0-5.0-1.35","640188f192ec944654326ec3","A3","batch1","","3885.0999999046326","stim/yes_46_ver_b1_b.png","j","pattern_response","false","f","pattern_68","3885.0999999046326","false","29","","","","","","","","","","","","","","","","","","",""
"","","","","","html-keyboard-response","93","194533","0.0-2.0-5.0-0.36","640188f192ec944654326ec3","A3","batch1","","null","<p class=block-text>Trial 37 out of 78</p>","null","pattern_show_trial_num","","","","","","","","","","","","","","","","","","","","","","","","",""
"","","","","","image-keyboard-response","94","201079","0.0-2.0-5.0-1.36","640188f192ec944654326ec3","A3","batch1","","6544.799999952316","stim/no_51_1.png","j","pattern_response","true","j","pattern_31","6544.799999952316","true","30","","","","","","","","","","","","","","","","","","",""
"","","","","","html-keyboard-response","95","202389","0.0-2.0-5.0-0.37","640188f192ec944654326ec3","A3","batch1","","null","<p class=block-text>Trial 38 out of 78</p>","null","pattern_show_trial_num","","","","","","","","","","","","","","","","","","","","","","","","",""
"","","","","","image-keyboard-response","96","203260","0.0-2.0-5.0-1.37","640188f192ec944654326ec3","A3","batch1","","869.9000000953674","stim/yes_12_hor_w1_w.png","f","pattern_response","true","f","pattern_42","869.9000000953674","true","31","","","","","","","","","","","","","","","","","","",""
"","","","","","html-keyboard-response","97","204577","0.0-2.0-5.0-0.38","640188f192ec944654326ec3","A3","batch1","","null","<p class=block-text>Trial 39 out of 78</p>","null","pattern_show_trial_num","","","","","","","","","","","","","","","","","","","","","","","","",""
"","","","","","image-keyboard-response","98","209459","0.0-2.0-5.0-1.38","640188f192ec944654326ec3","A3","batch1","","4881.099999904633","stim/no_43_2_b.png","j","pattern_response","true","j","pattern_23","4881.099999904633","true","32","","","","","","","","","","","","","","","","","","",""
"","","","","","image-keyboard-response","99","212794","0.0-2.0-6.0","640188f192ec944654326ec3","A3","batch1","","2832.5999999046326","stim/empty_board.png","j","attention_check","true","j","","","","","500","[""f"",""j""]","","","","","","","","","","","","","","","","",""
"","","","","","html-keyboard-response","100","213610","0.0-2.0-7.0-0.0","640188f192ec944654326ec3","A3","batch1","","null","<p class=block-text>Trial 40 out of 78</p>","null","pattern_show_trial_num","","","","","","","","","","","","","","","","","","","","","","","","",""
"","","","","","image-keyboard-response","101","215047","0.0-2.0-7.0-1.0","640188f192ec944654326ec3","A3","batch1","","1436.2000000476837","stim/no_17_1_w.png","j","pattern_response","true","j","pattern_04","1436.2000000476837","true","33","","","","","","","","","","","","","","","","","","",""
"","","","","","html-keyboard-response","102","216365","0.0-2.0-7.0-0.1","640188f192ec944654326ec3","A3","batch1","","null","<p class=block-text>Trial 41 out of 78</p>","null","pattern_show_trial_num","","","","","","","","","","","","","","","","","","","","","","","","",""
"","","","","","image-keyboard-response","103","219030","0.0-2.0-7.0-1.1","640188f192ec944654326ec3","A3","batch1","","2664.2000000476837","stim/yes_35_dia_b1.png","f","pattern_response","true","f","pattern_57","2664.2000000476837","true","34","","","","","","","","","","","","","","","","","","",""
"","","","","","html-keyboard-response","104","220352","0.0-2.0-7.0-0.2","640188f192ec944654326ec3","A3","batch1","","null","<p class=block-text>Trial 42 out of 78</p>","null","pattern_show_trial_num","","","","","","","","","","","","","","","","","","","","","","","","",""
"","","","","","image-keyboard-response","105","221031","0.0-2.0-7.0-1.2","640188f192ec944654326ec3","A3","batch1","","676.9000000953674","stim/yes_25_hor_b1_b.png","f","pattern_response","true","f","pattern_49","676.9000000953674","true","35","","","","","","","","","","","","","","","","","","",""
"","","","","","html-keyboard-response","106","222362","0.0-2.0-7.0-0.3","640188f192ec944654326ec3","A3","batch1","","null","<p class=block-text>Trial 43 out of 78</p>","null","pattern_show_trial_num","","","","","","","","","","","","","","","","","","","","","","","","",""
"","","","","","image-keyboard-response","107","224526","0.0-2.0-7.0-1.3","640188f192ec944654326ec3","A3","batch1","","2162.7000000476837","stim/yes_52_ver_w1.png","f","pattern_response","true","f","pattern_73","2162.7000000476837","true","36","","","","","","","","","","","","","","","","","","",""
"","","","","","html-keyboard-response","108","225834","0.0-2.0-7.0-0.4","640188f192ec944654326ec3","A3","batch1","","null","<p class=block-text>Trial 44 out of 78</p>","null","pattern_show_trial_num","","","","","","","","","","","","","","","","","","","","","","","","",""
"","","","","","image-keyboard-response","109","226829","0.0-2.0-7.0-1.4","640188f192ec944654326ec3","A3","batch1","","994.2000000476837","stim/yes_28_ver_b1.png","f","pattern_response","true","f","pattern_51","994.2000000476837","true","37","","","","","","","","","","","","","","","","","","",""
"","","","","","html-keyboard-response","110","228142","0.0-2.0-7.0-0.5","640188f192ec944654326ec3","A3","batch1","","null","<p class=block-text>Trial 45 out of 78</p>","null","pattern_show_trial_num","","","","","","","","","","","","","","","","","","","","","","","","",""
"","","","","","image-keyboard-response","111","228825","0.0-2.0-7.0-1.5","640188f192ec944654326ec3","A3","batch1","","682","stim/yes_14_hor_b1_w.png","f","pattern_response","true","f","pattern_43","682","true","38","","","","","","","","","","","","","","","","","","",""
"","","","","","html-keyboard-response","112","230138","0.0-2.0-7.0-0.6","640188f192ec944654326ec3","A3","batch1","","null","<p class=block-text>Trial 46 out of 78</p>","null","pattern_show_trial_num","","","","","","","","","","","","","","","","","","","","","","","","",""
"","","","","","image-keyboard-response","113","231109","0.0-2.0-7.0-1.6","640188f192ec944654326ec3","A3","batch1","","970.2000000476837","stim/yes_43_ver_w1_w.png","f","pattern_response","true","f","pattern_65","970.2000000476837","true","39","","","","","","","","","","","","","","","","","","",""
"","","","","","html-keyboard-response","114","232417","0.0-2.0-7.0-0.7","640188f192ec944654326ec3","A3","batch1","","null","<p class=block-text>Trial 47 out of 78</p>","null","pattern_show_trial_num","","","","","","","","","","","","","","","","","","","","","","","","",""
"","","","","","image-keyboard-response","115","233229","0.0-2.0-7.0-1.7","640188f192ec944654326ec3","A3","batch1","","811.2000000476837","stim/yes_45_hor_b2_b.png","f","pattern_response","true","f","pattern_67","811.2000000476837","true","40","","","","","","","","","","","","","","","","","","",""
"","","","","","html-keyboard-response","116","234557","0.0-2.0-7.0-0.8","640188f192ec944654326ec3","A3","batch1","","null","<p class=block-text>Trial 48 out of 78</p>","null","pattern_show_trial_num","","","","","","","","","","","","","","","","","","","","","","","","",""
"","","","","","image-keyboard-response","117","235713","0.0-2.0-7.0-1.8","640188f192ec944654326ec3","A3","batch1","","1154.7999999523163","stim/no_26_1_w.png","j","pattern_response","true","j","pattern_10","1154.7999999523163","true","41","","","","","","","","","","","","","","","","","","",""
"","","","","","html-keyboard-response","118","237025","0.0-2.0-7.0-0.9","640188f192ec944654326ec3","A3","batch1","","null","<p class=block-text>Trial 49 out of 78</p>","null","pattern_show_trial_num","","","","","","","","","","","","","","","","","","","","","","","","",""
"","","","","","image-keyboard-response","119","241824","0.0-2.0-7.0-1.9","640188f192ec944654326ec3","A3","batch1","","4798.5","stim/yes_48_dia_w1_w.png","j","pattern_response","false","f","pattern_69","4798.5","false","41","","","","","","","","","","","","","","","","","","",""
"","","","","","html-keyboard-response","120","243141","0.0-2.0-7.0-0.10","640188f192ec944654326ec3","A3","batch1","","null","<p class=block-text>Trial 50 out of 78</p>","null","pattern_show_trial_num","","","","","","","","","","","","","","","","","","","","","","","","",""
"","","","","","image-keyboard-response","121","245516","0.0-2.0-7.0-1.10","640188f192ec944654326ec3","A3","batch1","","2373.4000000953674","stim/no_32_1_w.png","j","pattern_response","true","j","pattern_14","2373.4000000953674","true","42","","","","","","","","","","","","","","","","","","",""
"","","","","","html-keyboard-response","122","246838","0.0-2.0-7.0-0.11","640188f192ec944654326ec3","A3","batch1","","null","<p class=block-text>Trial 51 out of 78</p>","null","pattern_show_trial_num","","","","","","","","","","","","","","","","","","","","","","","","",""
"","","","","","image-keyboard-response","123","251944","0.0-2.0-7.0-1.11","640188f192ec944654326ec3","A3","batch1","","5104.600000143051","stim/no_65_1_b.png","j","pattern_response","true","j","pattern_38","5104.600000143051","true","43","","","","","","","","","","","","","","","","","","",""
"","","","","","html-keyboard-response","124","253259","0.0-2.0-7.0-0.12","640188f192ec944654326ec3","A3","batch1","","null","<p class=block-text>Trial 52 out of 78</p>","null","pattern_show_trial_num","","","","","","","","","","","","","","","","","","","","","","","","",""
"","","","","","image-keyboard-response","125","255224","0.0-2.0-7.0-1.12","640188f192ec944654326ec3","A3","batch1","","1963.9000000953674","stim/no_20_1_w.png","j","pattern_response","true","j","pattern_06","1963.9000000953674","true","44","","","","","","","","","","","","","","","","","","",""
"","","","","","html-keyboard-response","126","256549","0.0-2.0-7.0-0.13","640188f192ec944654326ec3","A3","batch1","","null","<p class=block-text>Trial 53 out of 78</p>","null","pattern_show_trial_num","","","","","","","","","","","","","","","","","","","","","","","","",""
"","","","","","image-keyboard-response","127","258167","0.0-2.0-7.0-1.13","640188f192ec944654326ec3","A3","batch1","","1616.5","stim/yes_38_hor_b1_b.png","f","pattern_response","true","f","pattern_61","1616.5","true","45","","","","","","","","","","","","","","","","","","",""
"","","","","","html-keyboard-response","128","259475","0.0-2.0-7.0-0.14","640188f192ec944654326ec3","A3","batch1","","null","<p class=block-text>Trial 54 out of 78</p>","null","pattern_show_trial_num","","","","","","","","","","","","","","","","","","","","","","","","",""
"","","","","","image-keyboard-response","129","261995","0.0-2.0-7.0-1.14","640188f192ec944654326ec3","A3","batch1","","2519","stim/yes_37_dia_w1.png","f","pattern_response","true","f","pattern_59","2519","true","46","","","","","","","","","","","","","","","","","","",""
"","","","","","html-keyboard-response","130","263298","0.0-2.0-7.0-0.15","640188f192ec944654326ec3","A3","batch1","","null","<p class=block-text>Trial 55 out of 78</p>","null","pattern_show_trial_num","","","","","","","","","","","","","","","","","","","","","","","","",""
"","","","","","image-keyboard-response","131","268067","0.0-2.0-7.0-1.15","640188f192ec944654326ec3","A3","batch1","","4767.799999952316","stim/no_46_1_b.png","j","pattern_response","true","j","pattern_26","4767.799999952316","true","47","","","","","","","","","","","","","","","","","","",""
"","","","","","html-keyboard-response","132","269384","0.0-2.0-7.0-0.16","640188f192ec944654326ec3","A3","batch1","","null","<p class=block-text>Trial 56 out of 78</p>","null","pattern_show_trial_num","","","","","","","","","","","","","","","","","","","","","","","","",""
"","","","","","image-keyboard-response","133","270119","0.0-2.0-7.0-1.16","640188f192ec944654326ec3","A3","batch1","","733.4000000953674","stim/yes_67_hor_b1.png","f","pattern_response","true","f","pattern_79","733.4000000953674","true","48","","","","","","","","","","","","","","","","","","",""
"","","","","","html-keyboard-response","134","271445","0.0-2.0-7.0-0.17","640188f192ec944654326ec3","A3","batch1","","null","<p class=block-text>Trial 57 out of 78</p>","null","pattern_show_trial_num","","","","","","","","","","","","","","","","","","","","","","","","",""
"","","","","","image-keyboard-response","135","274506","0.0-2.0-7.0-1.17","640188f192ec944654326ec3","A3","batch1","","3056.4000000953674","stim/yes_50_dia_w1.png","f","pattern_response","true","f","pattern_71","3056.4000000953674","true","49","","","","","","","","","","","","","","","","","","",""
"","","","","","html-keyboard-response","136","275836","0.0-2.0-7.0-0.18","640188f192ec944654326ec3","A3","batch1","","null","<p class=block-text>Trial 58 out of 78</p>","null","pattern_show_trial_num","","","","","","","","","","","","","","","","","","","","","","","","",""
"","","","","","image-keyboard-response","137","276645","0.0-2.0-7.0-1.18","640188f192ec944654326ec3","A3","batch1","","808.1000001430511","stim/yes_22_ver_w1.png","f","pattern_response","true","f","pattern_47","808.1000001430511","true","50","","","","","","","","","","","","","","","","","","",""
"","","","","","html-keyboard-response","138","277961","0.0-2.0-7.0-0.19","640188f192ec944654326ec3","A3","batch1","","null","<p class=block-text>Trial 59 out of 78</p>","null","pattern_show_trial_num","","","","","","","","","","","","","","","","","","","","","","","","",""
"","","","","","image-keyboard-response","139","279213","0.0-2.0-7.0-1.19","640188f192ec944654326ec3","A3","batch1","","1251.5999999046326","stim/yes_29_ver_w1.png","f","pattern_response","true","f","pattern_53","1251.5999999046326","true","51","","","","","","","","","","","","","","","","","","",""
"","","","","","html-keyboard-response","140","280533","0.0-2.0-7.0-0.20","640188f192ec944654326ec3","A3","batch1","","null","<p class=block-text>Trial 60 out of 78</p>","null","pattern_show_trial_num","","","","","","","","","","","","","","","","","","","","","","","","",""
"","","","","","image-keyboard-response","141","285686","0.0-2.0-7.0-1.20","640188f192ec944654326ec3","A3","batch1","","5152","stim/no_50_1.png","j","pattern_response","true","j","pattern_30","5152","true","52","","","","","","","","","","","","","","","","","","",""
"","","","","","html-keyboard-response","142","287003","0.0-2.0-7.0-0.21","640188f192ec944654326ec3","A3","batch1","","null","<p class=block-text>Trial 61 out of 78</p>","null","pattern_show_trial_num","","","","","","","","","","","","","","","","","","","","","","","","",""
"","","","","","image-keyboard-response","143","290209","0.0-2.0-7.0-1.21","640188f192ec944654326ec3","A3","batch1","","3203.7999999523163","stim/no_55_1_w.png","j","pattern_response","true","j","pattern_34","3203.7999999523163","true","53","","","","","","","","","","","","","","","","","","",""
"","","","","","html-keyboard-response","144","291524","0.0-2.0-7.0-0.22","640188f192ec944654326ec3","A3","batch1","","null","<p class=block-text>Trial 62 out of 78</p>","null","pattern_show_trial_num","","","","","","","","","","","","","","","","","","","","","","","","",""
"","","","","","image-keyboard-response","145","292316","0.0-2.0-7.0-1.22","640188f192ec944654326ec3","A3","batch1","","791.3000001907349","stim/yes_55_hor_w1_w.png","f","pattern_response","true","f","pattern_75","791.3000001907349","true","54","","","","","","","","","","","","","","","","","","",""
"","","","","","html-keyboard-response","146","293634","0.0-2.0-7.0-0.23","640188f192ec944654326ec3","A3","batch1","","null","<p class=block-text>Trial 63 out of 78</p>","null","pattern_show_trial_num","","","","","","","","","","","","","","","","","","","","","","","","",""
"","","","","","image-keyboard-response","147","295100","0.0-2.0-7.0-1.23","640188f192ec944654326ec3","A3","batch1","","1465.7999999523163","stim/no_13_2_b.png","j","pattern_response","true","j","pattern_02","1465.7999999523163","true","55","","","","","","","","","","","","","","","","","","",""
"","","","","","html-keyboard-response","148","296423","0.0-2.0-7.0-0.24","640188f192ec944654326ec3","A3","batch1","","null","<p class=block-text>Trial 64 out of 78</p>","null","pattern_show_trial_num","","","","","","","","","","","","","","","","","","","","","","","","",""
"","","","","","image-keyboard-response","149","297408","0.0-2.0-7.0-1.24","640188f192ec944654326ec3","A3","batch1","","984.2999999523163","stim/yes_31_hor_b1.png","f","pattern_response","true","f","pattern_55","984.2999999523163","true","56","","","","","","","","","","","","","","","","","","",""
"","","","","","html-keyboard-response","150","298718","0.0-2.0-7.0-0.25","640188f192ec944654326ec3","A3","batch1","","null","<p class=block-text>Trial 65 out of 78</p>","null","pattern_show_trial_num","","","","","","","","","","","","","","","","","","","","","","","","",""
"","","","","","image-keyboard-response","151","303672","0.0-2.0-7.0-1.25","640188f192ec944654326ec3","A3","batch1","","4953.700000047684","stim/no_70_2.png","j","pattern_response","true","j","pattern_40","4953.700000047684","true","57","","","","","","","","","","","","","","","","","","",""
"","","","","","html-keyboard-response","152","304984","0.0-2.0-7.0-0.26","640188f192ec944654326ec3","A3","batch1","","null","<p class=block-text>Trial 66 out of 78</p>","null","pattern_show_trial_num","","","","","","","","","","","","","","","","","","","","","","","","",""
"","","","","","image-keyboard-response","153","310444","0.0-2.0-7.0-1.26","640188f192ec944654326ec3","A3","batch1","","5457.700000047684","stim/no_62_1_w.png","j","pattern_response","true","j","pattern_36","5457.700000047684","true","58","","","","","","","","","","","","","","","","","","",""
"","","","","","html-keyboard-response","154","311766","0.0-2.0-7.0-0.27","640188f192ec944654326ec3","A3","batch1","","null","<p class=block-text>Trial 67 out of 78</p>","null","pattern_show_trial_num","","","","","","","","","","","","","","","","","","","","","","","","",""
"","","","","","image-keyboard-response","155","314471","0.0-2.0-7.0-1.27","640188f192ec944654326ec3","A3","batch1","","2703.399999856949","stim/no_44_1.png","j","pattern_response","true","j","pattern_24","2703.399999856949","true","59","","","","","","","","","","","","","","","","","","",""
"","","","","","html-keyboard-response","156","315783","0.0-2.0-7.0-0.28","640188f192ec944654326ec3","A3","batch1","","null","<p class=block-text>Trial 68 out of 78</p>","null","pattern_show_trial_num","","","","","","","","","","","","","","","","","","","","","","","","",""
"","","","","","image-keyboard-response","157","317263","0.0-2.0-7.0-1.28","640188f192ec944654326ec3","A3","batch1","","1479.2000000476837","stim/yes_17_dia_w1.png","f","pattern_response","true","f","pattern_45","1479.2000000476837","true","60","","","","","","","","","","","","","","","","","","",""
"","","","","","html-keyboard-response","158","318581","0.0-2.0-7.0-0.29","640188f192ec944654326ec3","A3","batch1","","null","<p class=block-text>Trial 69 out of 78</p>","null","pattern_show_trial_num","","","","","","","","","","","","","","","","","","","","","","","","",""
"","","","","","image-keyboard-response","159","320639","0.0-2.0-7.0-1.29","640188f192ec944654326ec3","A3","batch1","","2056.800000190735","stim/no_23_1.png","j","pattern_response","true","j","pattern_08","2056.800000190735","true","61","","","","","","","","","","","","","","","","","","",""
"","","","","","html-keyboard-response","160","321960","0.0-2.0-7.0-0.30","640188f192ec944654326ec3","A3","batch1","","null","<p class=block-text>Trial 70 out of 78</p>","null","pattern_show_trial_num","","","","","","","","","","","","","","","","","","","","","","","","",""
"","","","","","image-keyboard-response","161","326014","0.0-2.0-7.0-1.30","640188f192ec944654326ec3","A3","batch1","","4052.399999856949","stim/no_36_2_w.png","j","pattern_response","true","j","pattern_18","4052.399999856949","true","62","","","","","","","","","","","","","","","","","","",""
"","","","","","html-keyboard-response","162","327334","0.0-2.0-7.0-0.31","640188f192ec944654326ec3","A3","batch1","","null","<p class=block-text>Trial 71 out of 78</p>","null","pattern_show_trial_num","","","","","","","","","","","","","","","","","","","","","","","","",""
"","","","","","image-keyboard-response","163","329570","0.0-2.0-7.0-1.31","640188f192ec944654326ec3","A3","batch1","","2234.2999999523163","stim/no_29_1_b.png","j","pattern_response","true","j","pattern_12","2234.2999999523163","true","63","","","","","","","","","","","","","","","","","","",""
"","","","","","html-keyboard-response","164","330887","0.0-2.0-7.0-0.32","640188f192ec944654326ec3","A3","batch1","","null","<p class=block-text>Trial 72 out of 78</p>","null","pattern_show_trial_num","","","","","","","","","","","","","","","","","","","","","","","","",""
"","","","","","image-keyboard-response","165","334799","0.0-2.0-7.0-1.32","640188f192ec944654326ec3","A3","batch1","","3910.7999999523163","stim/yes_60_ver_b1_b.png","f","pattern_response","true","f","pattern_77","3910.7999999523163","true","64","","","","","","","","","","","","","","","","","","",""
"","","","","","html-keyboard-response","166","336112","0.0-2.0-7.0-0.33","640188f192ec944654326ec3","A3","batch1","","null","<p class=block-text>Trial 73 out of 78</p>","null","pattern_show_trial_num","","","","","","","","","","","","","","","","","","","","","","","","",""
"","","","","","image-keyboard-response","167","340089","0.0-2.0-7.0-1.33","640188f192ec944654326ec3","A3","batch1","","3975.5","stim/no_34_1_b.png","j","pattern_response","true","j","pattern_16","3975.5","true","65","","","","","","","","","","","","","","","","","","",""
"","","","","","html-keyboard-response","168","341412","0.0-2.0-7.0-0.34","640188f192ec944654326ec3","A3","batch1","","null","<p class=block-text>Trial 74 out of 78</p>","null","pattern_show_trial_num","","","","","","","","","","","","","","","","","","","","","","","","",""
"","","","","","image-keyboard-response","169","345752","0.0-2.0-7.0-1.34","640188f192ec944654326ec3","A3","batch1","","4338.600000143051","stim/no_38_1_b.png","j","pattern_response","true","j","pattern_20","4338.600000143051","true","66","","","","","","","","","","","","","","","","","","",""
"","","","","","html-keyboard-response","170","347075","0.0-2.0-7.0-0.35","640188f192ec944654326ec3","A3","batch1","","null","<p class=block-text>Trial 75 out of 78</p>","null","pattern_show_trial_num","","","","","","","","","","","","","","","","","","","","","","","","",""
"","","","","","image-keyboard-response","171","349617","0.0-2.0-7.0-1.35","640188f192ec944654326ec3","A3","batch1","","2540","stim/yes_40_dia_b1_b.png","j","pattern_response","false","f","pattern_63","2540","false","66","","","","","","","","","","","","","","","","","","",""
"","","","","","html-keyboard-response","172","350929","0.0-2.0-7.0-0.36","640188f192ec944654326ec3","A3","batch1","","null","<p class=block-text>Trial 76 out of 78</p>","null","pattern_show_trial_num","","","","","","","","","","","","","","","","","","","","","","","","",""
"","","","","","image-keyboard-response","173","354503","0.0-2.0-7.0-1.36","640188f192ec944654326ec3","A3","batch1","","3571.9000000953674","stim/no_48_1_w.png","j","pattern_response","true","j","pattern_28","3571.9000000953674","true","67","","","","","","","","","","","","","","","","","","",""
"","","","","","html-keyboard-response","174","355827","0.0-2.0-7.0-0.37","640188f192ec944654326ec3","A3","batch1","","null","<p class=block-text>Trial 77 out of 78</p>","null","pattern_show_trial_num","","","","","","","","","","","","","","","","","","","","","","","","",""
"","","","","","image-keyboard-response","175","358351","0.0-2.0-7.0-1.37","640188f192ec944654326ec3","A3","batch1","","2523.2000000476837","stim/no_42_1_w.png","j","pattern_response","true","j","pattern_22","2523.2000000476837","true","68","","","","","","","","","","","","","","","","","","",""
"","","","","","html-keyboard-response","176","359662","0.0-2.0-7.0-0.38","640188f192ec944654326ec3","A3","batch1","","null","<p class=block-text>Trial 78 out of 78</p>","null","pattern_show_trial_num","","","","","","","","","","","","","","","","","","","","","","","","",""
"","","","","","image-keyboard-response","177","362695","0.0-2.0-7.0-1.38","640188f192ec944654326ec3","A3","batch1","","3032","stim/no_52_1.png","j","pattern_response","true","j","pattern_32","3032","true","69","","","","","","","","","","","","","","","","","","",""
"","","","","","html-button-response","178","366478","0.0-2.0-8.0","640188f192ec944654326ec3","A3","batch1","","3277.600000143051","<p class = block-text>This concludes the 4-in-a-row detection game.Thank you for your responses!<br>
            You responded correctly on 88% of the trials.<br>
            When you are ready, press ""Continue"" button to continue </p>","0","","","","","","","","","","","","","","","","","","","","","","","","","",""
"true","","","","","fullscreen","179","369097","0.0-3.0-0.0","640188f192ec944654326ec3","A3","batch1","","","","","spm_fullscreen","","","","","","","","","","","","","","","","","","","","","","","","",""
"","","","","","html-button-response","180","385977","0.0-3.0-1.0","640188f192ec944654326ec3","A3","batch1","","16879.799999952316","<p class = block-text><b>Instructions</b> <br>This is a widely used intelligence test in research. <br>In this test, a figure with a missing piece will be presented.<br>Below the figure are alternative pieces to complete the figure, only one of which is correct.<br> Different figures might involve different principles for obtaining the missing piece<br>Your job is to select the most logical piece to complete the figure.</p>","0","","","","","","","","","","","","","","","","","","","","","","","","","",""
"","","","","","html-keyboard-response","181","386785","0.0-3.0-2.0-0.0","640188f192ec944654326ec3","A3","batch1","","null","<p class=block-text>Trial 1 out of 60</p>","null","spm_show_trial_num","","","","","","","","","","","","","","","","","","","","","","","","",""
"","","","","","image-button-response","182","407914","0.0-3.0-2.0-1.0","640188f192ec944654326ec3","A3","batch1","","21126.700000047684","img/question_1_1.jpeg","3","spm_respsonse","1","4","mat_01","","","","","","1","21126.700000047684","","","","","","","","","","","","","","",""
"","","","","","html-keyboard-response","183","408978","0.0-3.0-2.0-0.1","640188f192ec944654326ec3","A3","batch1","","null","<p class=block-text>Trial 2 out of 60</p>","null","spm_show_trial_num","","","","","","","","","","","","","","","","","","","","","","","","",""
"","","","","","image-button-response","184","412926","0.0-3.0-2.0-1.1","640188f192ec944654326ec3","A3","batch1","","3945.7999999523163","img/question_1_2.jpeg","4","spm_respsonse","1","5","mat_02","","","","","","1","3945.7999999523163","","","","","","","","","","","","","","",""
"","","","","","html-keyboard-response","185","414002","0.0-3.0-2.0-0.2","640188f192ec944654326ec3","A3","batch1","","null","<p class=block-text>Trial 3 out of 60</p>","null","spm_show_trial_num","","","","","","","","","","","","","","","","","","","","","","","","",""
"","","","","","image-button-response","186","417572","0.0-3.0-2.0-1.2","640188f192ec944654326ec3","A3","batch1","","3568.100000143051","img/question_1_3.jpeg","0","spm_respsonse","1","1","mat_03","","","","","","1","3568.100000143051","","","","","","","","","","","","","","",""
"","","","","","html-keyboard-response","187","418629","0.0-3.0-2.0-0.3","640188f192ec944654326ec3","A3","batch1","","null","<p class=block-text>Trial 4 out of 60</p>","null","spm_show_trial_num","","","","","","","","","","","","","","","","","","","","","","","","",""
"","","","","","image-button-response","188","422958","0.0-3.0-2.0-1.3","640188f192ec944654326ec3","A3","batch1","","4327.599999904633","img/question_1_4.jpeg","1","spm_respsonse","1","2","mat_04","","","","","","1","4327.599999904633","","","","","","","","","","","","","","",""
"","","","","","html-keyboard-response","189","424022","0.0-3.0-2.0-0.4","640188f192ec944654326ec3","A3","batch1","","null","<p class=block-text>Trial 5 out of 60</p>","null","spm_show_trial_num","","","","","","","","","","","","","","","","","","","","","","","","",""
"","","","","","image-button-response","190","430680","0.0-3.0-2.0-1.4","640188f192ec944654326ec3","A3","batch1","","6655.600000143051","img/question_1_5.jpeg","5","spm_respsonse","1","6","mat_05","","","","","","1","6655.600000143051","","","","","","","","","","","","","","",""
"","","","","","html-keyboard-response","191","431749","0.0-3.0-2.0-0.5","640188f192ec944654326ec3","A3","batch1","","null","<p class=block-text>Trial 6 out of 60</p>","null","spm_show_trial_num","","","","","","","","","","","","","","","","","","","","","","","","",""
"","","","","","image-button-response","192","437821","0.0-3.0-2.0-1.5","640188f192ec944654326ec3","A3","batch1","","6070.100000143051","img/question_1_6.jpeg","2","spm_respsonse","1","3","mat_06","","","","","","1","6070.100000143051","","","","","","","","","","","","","","",""
"","","","","","html-keyboard-response","193","438896","0.0-3.0-2.0-0.6","640188f192ec944654326ec3","A3","batch1","","null","<p class=block-text>Trial 7 out of 60</p>","null","spm_show_trial_num","","","","","","","","","","","","","","","","","","","","","","","","",""
"","","","","","image-button-response","194","444500","0.0-3.0-2.0-1.6","640188f192ec944654326ec3","A3","batch1","","5602.099999904633","img/question_1_7.jpeg","5","spm_respsonse","1","6","mat_07","","","","","","1","5602.099999904633","","","","","","","","","","","","","","",""
"","","","","","html-keyboard-response","195","445564","0.0-3.0-2.0-0.7","640188f192ec944654326ec3","A3","batch1","","null","<p class=block-text>Trial 8 out of 60</p>","null","spm_show_trial_num","","","","","","","","","","","","","","","","","","","","","","","","",""
"","","","","","image-button-response","196","450262","0.0-3.0-2.0-1.7","640188f192ec944654326ec3","A3","batch1","","4696","img/question_1_8.jpeg","1","spm_respsonse","1","2","mat_08","","","","","","1","4696","","","","","","","","","","","","","","",""
"","","","","","html-keyboard-response","197","451337","0.0-3.0-2.0-0.8","640188f192ec944654326ec3","A3","batch1","","null","<p class=block-text>Trial 9 out of 60</p>","null","spm_show_trial_num","","","","","","","","","","","","","","","","","","","","","","","","",""
"","","","","","image-button-response","198","456257","0.0-3.0-2.0-1.8","640188f192ec944654326ec3","A3","batch1","","4917.5","img/question_1_9.jpeg","0","spm_respsonse","1","1","mat_09","","","","","","1","4917.5","","","","","","","","","","","","","","",""
"","","","","","html-keyboard-response","199","457331","0.0-3.0-2.0-0.9","640188f192ec944654326ec3","A3","batch1","","null","<p class=block-text>Trial 10 out of 60</p>","null","spm_show_trial_num","","","","","","","","","","","","","","","","","","","","","","","","",""
"","","","","","image-button-response","200","464543","0.0-3.0-2.0-1.9","640188f192ec944654326ec3","A3","batch1","","7210.599999904633","img/question_1_10.jpeg","2","spm_respsonse","1","3","mat_10","","","","","","1","7210.599999904633","","","","","","","","","","","","","","",""
"","","","","","html-keyboard-response","201","465606","0.0-3.0-2.0-0.10","640188f192ec944654326ec3","A3","batch1","","null","<p class=block-text>Trial 11 out of 60</p>","null","spm_show_trial_num","","","","","","","","","","","","","","","","","","","","","","","","",""
"","","","","","image-button-response","202","472587","0.0-3.0-2.0-1.10","640188f192ec944654326ec3","A3","batch1","","6979.5","img/question_1_11.jpeg","3","spm_respsonse","1","4","mat_11","","","","","","1","6979.5","","","","","","","","","","","","","","",""
"","","","","","html-keyboard-response","203","473659","0.0-3.0-2.0-0.11","640188f192ec944654326ec3","A3","batch1","","null","<p class=block-text>Trial 12 out of 60</p>","null","spm_show_trial_num","","","","","","","","","","","","","","","","","","","","","","","","",""
"","","","","","image-button-response","204","480940","0.0-3.0-2.0-1.11","640188f192ec944654326ec3","A3","batch1","","7279.700000047684","img/question_1_12.jpeg","0","spm_respsonse","0","5","mat_12","","","","","","0","7279.700000047684","","","","","","","","","","","","","","",""
"","","","","","html-keyboard-response","205","482000","0.0-3.0-2.0-0.12","640188f192ec944654326ec3","A3","batch1","","null","<p class=block-text>Trial 13 out of 60</p>","null","spm_show_trial_num","","","","","","","","","","","","","","","","","","","","","","","","",""
"","","","","","image-button-response","206","485638","0.0-3.0-2.0-1.12","640188f192ec944654326ec3","A3","batch1","","3636.7999999523163","img/question_2_1.jpeg","1","spm_respsonse","1","2","mat_13","","","","","","1","3636.7999999523163","","","","","","","","","","","","","","",""
"","","","","","html-keyboard-response","207","486712","0.0-3.0-2.0-0.13","640188f192ec944654326ec3","A3","batch1","","null","<p class=block-text>Trial 14 out of 60</p>","null","spm_show_trial_num","","","","","","","","","","","","","","","","","","","","","","","","",""
"","","","","","image-button-response","208","491990","0.0-3.0-2.0-1.13","640188f192ec944654326ec3","A3","batch1","","5275.900000095367","img/question_2_2.jpeg","5","spm_respsonse","1","6","mat_14","","","","","","1","5275.900000095367","","","","","","","","","","","","","","",""
"","","","","","html-keyboard-response","209","493058","0.0-3.0-2.0-0.14","640188f192ec944654326ec3","A3","batch1","","null","<p class=block-text>Trial 15 out of 60</p>","null","spm_show_trial_num","","","","","","","","","","","","","","","","","","","","","","","","",""
"","","","","","image-button-response","210","496934","0.0-3.0-2.0-1.14","640188f192ec944654326ec3","A3","batch1","","3874.7999999523163","img/question_2_3.jpeg","0","spm_respsonse","1","1","mat_15","","","","","","1","3874.7999999523163","","","","","","","","","","","","","","",""
"","","","","","html-keyboard-response","211","498000","0.0-3.0-2.0-0.15","640188f192ec944654326ec3","A3","batch1","","null","<p class=block-text>Trial 16 out of 60</p>","null","spm_show_trial_num","","","","","","","","","","","","","","","","","","","","","","","","",""
"","","","","","image-button-response","212","502347","0.0-3.0-2.0-1.15","640188f192ec944654326ec3","A3","batch1","","4346","img/question_2_4.jpeg","1","spm_respsonse","1","2","mat_16","","","","","","1","4346","","","","","","","","","","","","","","",""
"","","","","","html-keyboard-response","213","503418","0.0-3.0-2.0-0.16","640188f192ec944654326ec3","A3","batch1","","null","<p class=block-text>Trial 17 out of 60</p>","null","spm_show_trial_num","","","","","","","","","","","","","","","","","","","","","","","","",""
"","","","","","image-button-response","214","507891","0.0-3.0-2.0-1.16","640188f192ec944654326ec3","A3","batch1","","4472.299999952316","img/question_2_5.jpeg","0","spm_respsonse","1","1","mat_17","","","","","","1","4472.299999952316","","","","","","","","","","","","","","",""
"","","","","","html-keyboard-response","215","508963","0.0-3.0-2.0-0.17","640188f192ec944654326ec3","A3","batch1","","null","<p class=block-text>Trial 18 out of 60</p>","null","spm_show_trial_num","","","","","","","","","","","","","","","","","","","","","","","","",""
"","","","","","image-button-response","216","513819","0.0-3.0-2.0-1.17","640188f192ec944654326ec3","A3","batch1","","4855","img/question_2_6.jpeg","2","spm_respsonse","1","3","mat_18","","","","","","1","4855","","","","","","","","","","","","","","",""
"","","","","","html-keyboard-response","217","514880","0.0-3.0-2.0-0.18","640188f192ec944654326ec3","A3","batch1","","null","<p class=block-text>Trial 19 out of 60</p>","null","spm_show_trial_num","","","","","","","","","","","","","","","","","","","","","","","","",""
"","","","","","image-button-response","218","522207","0.0-3.0-2.0-1.18","640188f192ec944654326ec3","A3","batch1","","7325.099999904633","img/question_2_7.jpeg","4","spm_respsonse","1","5","mat_19","","","","","","1","7325.099999904633","","","","","","","","","","","","","","",""
"","","","","","html-keyboard-response","219","523276","0.0-3.0-2.0-0.19","640188f192ec944654326ec3","A3","batch1","","null","<p class=block-text>Trial 20 out of 60</p>","null","spm_show_trial_num","","","","","","","","","","","","","","","","","","","","","","","","",""
"","","","","","image-button-response","220","530698","0.0-3.0-2.0-1.19","640188f192ec944654326ec3","A3","batch1","","7420","img/question_2_8.jpeg","5","spm_respsonse","1","6","mat_20","","","","","","1","7420","","","","","","","","","","","","","","",""
"","","","","","html-keyboard-response","221","531767","0.0-3.0-2.0-0.20","640188f192ec944654326ec3","A3","batch1","","null","<p class=block-text>Trial 21 out of 60</p>","null","spm_show_trial_num","","","","","","","","","","","","","","","","","","","","","","","","",""
"","","","","","image-button-response","222","534912","0.0-3.0-2.0-1.20","640188f192ec944654326ec3","A3","batch1","","3143.100000143051","img/question_2_9.jpeg","3","spm_respsonse","1","4","mat_21","","","","","","1","3143.100000143051","","","","","","","","","","","","","","",""
"","","","","","html-keyboard-response","223","535964","0.0-3.0-2.0-0.21","640188f192ec944654326ec3","A3","batch1","","null","<p class=block-text>Trial 22 out of 60</p>","null","spm_show_trial_num","","","","","","","","","","","","","","","","","","","","","","","","",""
"","","","","","image-button-response","224","541410","0.0-3.0-2.0-1.21","640188f192ec944654326ec3","A3","batch1","","5444.099999904633","img/question_2_10.jpeg","2","spm_respsonse","1","3","mat_22","","","","","","1","5444.099999904633","","","","","","","","","","","","","","",""
"","","","","","html-keyboard-response","225","542476","0.0-3.0-2.0-0.22","640188f192ec944654326ec3","A3","batch1","","null","<p class=block-text>Trial 23 out of 60</p>","null","spm_show_trial_num","","","","","","","","","","","","","","","","","","","","","","","","",""
"","","","","","image-button-response","226","547580","0.0-3.0-2.0-1.22","640188f192ec944654326ec3","A3","batch1","","5102.099999904633","img/question_2_11.jpeg","3","spm_respsonse","1","4","mat_23","","","","","","1","5102.099999904633","","","","","","","","","","","","","","",""
"","","","","","html-keyboard-response","227","548648","0.0-3.0-2.0-0.23","640188f192ec944654326ec3","A3","batch1","","null","<p class=block-text>Trial 24 out of 60</p>","null","spm_show_trial_num","","","","","","","","","","","","","","","","","","","","","","","","",""
"","","","","","image-button-response","228","567041","0.0-3.0-2.0-1.23","640188f192ec944654326ec3","A3","batch1","","18391.200000047684","img/question_2_12.jpeg","4","spm_respsonse","1","5","mat_24","","","","","","1","18391.200000047684","","","","","","","","","","","","","","",""
"","","","","","html-button-response","229","568962","0.0-3.0-3.0","640188f192ec944654326ec3","A3","batch1","","1655.3999998569489","<p class = block-text>Attention check: Please choose 1<br></p>","0","attention_check","true","","","","","","","","","","","","","","","","","","","","","","","",""
"","","","","","html-keyboard-response","230","569763","0.0-3.0-4.0-0.0","640188f192ec944654326ec3","A3","batch1","","null","<p class=block-text>Trial 25 out of 60</p>","null","spm_show_trial_num","","","","","","","","","","","","","","","","","","","","","","","","",""
"","","","","","image-button-response","231","577674","0.0-3.0-4.0-1.0","640188f192ec944654326ec3","A3","batch1","","7909.099999904633","img/question_3_1.jpeg","7","spm_respsonse","1","8","mat_25","","","","","","1","7909.099999904633","","","","","","","","","","","","","","",""
"","","","","","html-keyboard-response","232","578745","0.0-3.0-4.0-0.1","640188f192ec944654326ec3","A3","batch1","","null","<p class=block-text>Trial 26 out of 60</p>","null","spm_show_trial_num","","","","","","","","","","","","","","","","","","","","","","","","",""
"","","","","","image-button-response","233","588416","0.0-3.0-4.0-1.1","640188f192ec944654326ec3","A3","batch1","","9670","img/question_3_2.jpeg","1","spm_respsonse","1","2","mat_26","","","","","","1","9670","","","","","","","","","","","","","","",""
"","","","","","html-keyboard-response","234","589487","0.0-3.0-4.0-0.2","640188f192ec944654326ec3","A3","batch1","","null","<p class=block-text>Trial 27 out of 60</p>","null","spm_show_trial_num","","","","","","","","","","","","","","","","","","","","","","","","",""
"","","","","","image-button-response","235","599401","0.0-3.0-4.0-1.2","640188f192ec944654326ec3","A3","batch1","","9912.100000143051","img/question_3_3.jpeg","2","spm_respsonse","1","3","mat_27","","","","","","1","9912.100000143051","","","","","","","","","","","","","","",""
"","","","","","html-keyboard-response","236","600464","0.0-3.0-4.0-0.3","640188f192ec944654326ec3","A3","batch1","","null","<p class=block-text>Trial 28 out of 60</p>","null","spm_show_trial_num","","","","","","","","","","","","","","","","","","","","","","","","",""
"","","","","","image-button-response","237","614316","0.0-3.0-4.0-1.3","640188f192ec944654326ec3","A3","batch1","","13850","img/question_3_4.jpeg","7","spm_respsonse","1","8","mat_28","","","","","","1","13850","","","","","","","","","","","","","","",""
"","","","","","html-keyboard-response","238","615372","0.0-3.0-4.0-0.4","640188f192ec944654326ec3","A3","batch1","","null","<p class=block-text>Trial 29 out of 60</p>","null","spm_show_trial_num","","","","","","","","","","","","","","","","","","","","","","","","",""
"","","","","","image-button-response","239","621930","0.0-3.0-4.0-1.4","640188f192ec944654326ec3","A3","batch1","","6556","img/question_3_5.jpeg","6","spm_respsonse","1","7","mat_29","","","","","","1","6556","","","","","","","","","","","","","","",""
"","","","","","html-keyboard-response","240","623004","0.0-3.0-4.0-0.5","640188f192ec944654326ec3","A3","batch1","","null","<p class=block-text>Trial 30 out of 60</p>","null","spm_show_trial_num","","","","","","","","","","","","","","","","","","","","","","","","",""
"","","","","","image-button-response","241","633089","0.0-3.0-4.0-1.5","640188f192ec944654326ec3","A3","batch1","","10083.200000047684","img/question_3_6.jpeg","3","spm_respsonse","1","4","mat_30","","","","","","1","10083.200000047684","","","","","","","","","","","","","","",""
"","","","","","html-keyboard-response","242","634153","0.0-3.0-4.0-0.6","640188f192ec944654326ec3","A3","batch1","","null","<p class=block-text>Trial 31 out of 60</p>","null","spm_show_trial_num","","","","","","","","","","","","","","","","","","","","","","","","",""
"","","","","","image-button-response","243","642441","0.0-3.0-4.0-1.6","640188f192ec944654326ec3","A3","batch1","","8286.099999904633","img/question_3_7.jpeg","4","spm_respsonse","1","5","mat_31","","","","","","1","8286.099999904633","","","","","","","","","","","","","","",""
"","","","","","html-keyboard-response","244","643516","0.0-3.0-4.0-0.7","640188f192ec944654326ec3","A3","batch1","","null","<p class=block-text>Trial 32 out of 60</p>","null","spm_show_trial_num","","","","","","","","","","","","","","","","","","","","","","","","",""
"","","","","","image-button-response","245","655726","0.0-3.0-4.0-1.7","640188f192ec944654326ec3","A3","batch1","","12208.300000190735","img/question_3_8.jpeg","0","spm_respsonse","1","1","mat_32","","","","","","1","12208.300000190735","","","","","","","","","","","","","","",""
"","","","","","html-keyboard-response","246","656797","0.0-3.0-4.0-0.8","640188f192ec944654326ec3","A3","batch1","","null","<p class=block-text>Trial 33 out of 60</p>","null","spm_show_trial_num","","","","","","","","","","","","","","","","","","","","","","","","",""
"","","","","","image-button-response","247","669416","0.0-3.0-4.0-1.8","640188f192ec944654326ec3","A3","batch1","","12616.599999904633","img/question_3_9.jpeg","6","spm_respsonse","1","7","mat_33","","","","","","1","12616.599999904633","","","","","","","","","","","","","","",""
"","","","","","html-keyboard-response","248","670490","0.0-3.0-4.0-0.9","640188f192ec944654326ec3","A3","batch1","","null","<p class=block-text>Trial 34 out of 60</p>","null","spm_show_trial_num","","","","","","","","","","","","","","","","","","","","","","","","",""
"","","","","","image-button-response","249","683167","0.0-3.0-4.0-1.9","640188f192ec944654326ec3","A3","batch1","","12674.900000095367","img/question_3_10.jpeg","5","spm_respsonse","1","6","mat_34","","","","","","1","12674.900000095367","","","","","","","","","","","","","","",""
"","","","","","html-keyboard-response","250","684233","0.0-3.0-4.0-0.10","640188f192ec944654326ec3","A3","batch1","","null","<p class=block-text>Trial 35 out of 60</p>","null","spm_show_trial_num","","","","","","","","","","","","","","","","","","","","","","","","",""
"","","","","","image-button-response","251","698800","0.0-3.0-4.0-1.10","640188f192ec944654326ec3","A3","batch1","","14565.299999952316","img/question_3_11.jpeg","0","spm_respsonse","1","1","mat_35","","","","","","1","14565.299999952316","","","","","","","","","","","","","","",""
"","","","","","html-keyboard-response","252","699862","0.0-3.0-4.0-0.11","640188f192ec944654326ec3","A3","batch1","","null","<p class=block-text>Trial 36 out of 60</p>","null","spm_show_trial_num","","","","","","","","","","","","","","","","","","","","","","","","",""
"","","","","","image-button-response","253","735826","0.0-3.0-4.0-1.11","640188f192ec944654326ec3","A3","batch1","","35962.700000047684","img/question_3_12.jpeg","1","spm_respsonse","1","2","mat_36","","","","","","1","35962.700000047684","","","","","","","","","","","","","","",""
"","","","","","html-keyboard-response","254","736895","0.0-3.0-4.0-0.12","640188f192ec944654326ec3","A3","batch1","","null","<p class=block-text>Trial 37 out of 60</p>","null","spm_show_trial_num","","","","","","","","","","","","","","","","","","","","","","","","",""
"","","","","","image-button-response","255","739812","0.0-3.0-4.0-1.12","640188f192ec944654326ec3","A3","batch1","","2915.7000000476837","img/question_4_1.jpeg","2","spm_respsonse","1","3","mat_37","","","","","","1","2915.7000000476837","","","","","","","","","","","","","","",""
"","","","","","html-keyboard-response","256","740875","0.0-3.0-4.0-0.13","640188f192ec944654326ec3","A3","batch1","","null","<p class=block-text>Trial 38 out of 60</p>","null","spm_show_trial_num","","","","","","","","","","","","","","","","","","","","","","","","",""
"","","","","","image-button-response","257","748591","0.0-3.0-4.0-1.13","640188f192ec944654326ec3","A3","batch1","","7714.299999952316","img/question_4_2.jpeg","3","spm_respsonse","1","4","mat_38","","","","","","1","7714.299999952316","","","","","","","","","","","","","","",""
"","","","","","html-keyboard-response","258","749658","0.0-3.0-4.0-0.14","640188f192ec944654326ec3","A3","batch1","","null","<p class=block-text>Trial 39 out of 60</p>","null","spm_show_trial_num","","","","","","","","","","","","","","","","","","","","","","","","",""
"","","","","","image-button-response","259","755288","0.0-3.0-4.0-1.14","640188f192ec944654326ec3","A3","batch1","","5629","img/question_4_3.jpeg","2","spm_respsonse","1","3","mat_39","","","","","","1","5629","","","","","","","","","","","","","","",""
"","","","","","html-keyboard-response","260","756343","0.0-3.0-4.0-0.15","640188f192ec944654326ec3","A3","batch1","","null","<p class=block-text>Trial 40 out of 60</p>","null","spm_show_trial_num","","","","","","","","","","","","","","","","","","","","","","","","",""
"","","","","","image-button-response","261","767460","0.0-3.0-4.0-1.15","640188f192ec944654326ec3","A3","batch1","","11115.200000047684","img/question_4_4.jpeg","6","spm_respsonse","1","7","mat_40","","","","","","1","11115.200000047684","","","","","","","","","","","","","","",""
"","","","","","html-keyboard-response","262","768527","0.0-3.0-4.0-0.16","640188f192ec944654326ec3","A3","batch1","","null","<p class=block-text>Trial 41 out of 60</p>","null","spm_show_trial_num","","","","","","","","","","","","","","","","","","","","","","","","",""
"","","","","","image-button-response","263","783664","0.0-3.0-4.0-1.16","640188f192ec944654326ec3","A3","batch1","","15135.399999856949","img/question_4_5.jpeg","7","spm_respsonse","1","8","mat_41","","","","","","1","15135.399999856949","","","","","","","","","","","","","","",""
"","","","","","html-keyboard-response","264","784727","0.0-3.0-4.0-0.17","640188f192ec944654326ec3","A3","batch1","","null","<p class=block-text>Trial 42 out of 60</p>","null","spm_show_trial_num","","","","","","","","","","","","","","","","","","","","","","","","",""
"","","","","","image-button-response","265","800171","0.0-3.0-4.0-1.17","640188f192ec944654326ec3","A3","batch1","","15442.400000095367","img/question_4_6.jpeg","5","spm_respsonse","1","6","mat_42","","","","","","1","15442.400000095367","","","","","","","","","","","","","","",""
"","","","","","html-keyboard-response","266","801230","0.0-3.0-4.0-0.18","640188f192ec944654326ec3","A3","batch1","","null","<p class=block-text>Trial 43 out of 60</p>","null","spm_show_trial_num","","","","","","","","","","","","","","","","","","","","","","","","",""
"","","","","","image-button-response","267","826589","0.0-3.0-4.0-1.18","640188f192ec944654326ec3","A3","batch1","","25358.200000047684","img/question_4_7.jpeg","4","spm_respsonse","1","5","mat_43","","","","","","1","25358.200000047684","","","","","","","","","","","","","","",""
"","","","","","html-keyboard-response","268","827659","0.0-3.0-4.0-0.19","640188f192ec944654326ec3","A3","batch1","","null","<p class=block-text>Trial 44 out of 60</p>","null","spm_show_trial_num","","","","","","","","","","","","","","","","","","","","","","","","",""
"","","","","","image-button-response","269","836034","0.0-3.0-4.0-1.19","640188f192ec944654326ec3","A3","batch1","","8373.200000047684","img/question_4_8.jpeg","3","spm_respsonse","1","4","mat_44","","","","","","1","8373.200000047684","","","","","","","","","","","","","","",""
"","","","","","html-keyboard-response","270","837094","0.0-3.0-4.0-0.20","640188f192ec944654326ec3","A3","batch1","","null","<p class=block-text>Trial 45 out of 60</p>","null","spm_show_trial_num","","","","","","","","","","","","","","","","","","","","","","","","",""
"","","","","","image-button-response","271","854000","0.0-3.0-4.0-1.20","640188f192ec944654326ec3","A3","batch1","","16904.5","img/question_4_9.jpeg","0","spm_respsonse","1","1","mat_45","","","","","","1","16904.5","","","","","","","","","","","","","","",""
"","","","","","html-keyboard-response","272","855077","0.0-3.0-4.0-0.21","640188f192ec944654326ec3","A3","batch1","","null","<p class=block-text>Trial 46 out of 60</p>","null","spm_show_trial_num","","","","","","","","","","","","","","","","","","","","","","","","",""
"","","","","","image-button-response","273","882262","0.0-3.0-4.0-1.21","640188f192ec944654326ec3","A3","batch1","","27183.800000190735","img/question_4_10.jpeg","1","spm_respsonse","1","2","mat_46","","","","","","1","27183.800000190735","","","","","","","","","","","","","","",""
"","","","","","html-keyboard-response","274","883327","0.0-3.0-4.0-0.22","640188f192ec944654326ec3","A3","batch1","","null","<p class=block-text>Trial 47 out of 60</p>","null","spm_show_trial_num","","","","","","","","","","","","","","","","","","","","","","","","",""
"","","","","","image-button-response","275","928737","0.0-3.0-4.0-1.22","640188f192ec944654326ec3","A3","batch1","","45407.299999952316","img/question_4_11.jpeg","5","spm_respsonse","0","5","mat_47","","","","","","0","45407.299999952316","","","","","","","","","","","","","","",""
"","","","","","html-keyboard-response","276","929811","0.0-3.0-4.0-0.23","640188f192ec944654326ec3","A3","batch1","","null","<p class=block-text>Trial 48 out of 60</p>","null","spm_show_trial_num","","","","","","","","","","","","","","","","","","","","","","","","",""
"","","","","","image-button-response","277","956793","0.0-3.0-4.0-1.23","640188f192ec944654326ec3","A3","batch1","","26980.60000014305","img/question_4_12.jpeg","3","spm_respsonse","0","6","mat_48","","","","","","0","26980.60000014305","","","","","","","","","","","","","","",""
"","","","","","html-keyboard-response","278","957869","0.0-3.0-4.0-0.24","640188f192ec944654326ec3","A3","batch1","","null","<p class=block-text>Trial 49 out of 60</p>","null","spm_show_trial_num","","","","","","","","","","","","","","","","","","","","","","","","",""
"","","","","","image-button-response","279","976907","0.0-3.0-4.0-1.24","640188f192ec944654326ec3","A3","batch1","","19036.599999904633","img/question_5_1.jpeg","6","spm_respsonse","1","7","mat_49","","","","","","1","19036.599999904633","","","","","","","","","","","","","","",""
"","","","","","html-keyboard-response","280","977972","0.0-3.0-4.0-0.25","640188f192ec944654326ec3","A3","batch1","","null","<p class=block-text>Trial 50 out of 60</p>","null","spm_show_trial_num","","","","","","","","","","","","","","","","","","","","","","","","",""
"","","","","","image-button-response","281","1009398","0.0-3.0-4.0-1.25","640188f192ec944654326ec3","A3","batch1","","31424.200000047684","img/question_5_2.jpeg","5","spm_respsonse","1","6","mat_50","","","","","","1","31424.200000047684","","","","","","","","","","","","","","",""
"","","","","","html-keyboard-response","282","1010475","0.0-3.0-4.0-0.26","640188f192ec944654326ec3","A3","batch1","","null","<p class=block-text>Trial 51 out of 60</p>","null","spm_show_trial_num","","","","","","","","","","","","","","","","","","","","","","","","",""
"","","","","","image-button-response","283","1025972","0.0-3.0-4.0-1.26","640188f192ec944654326ec3","A3","batch1","","15494.899999856949","img/question_5_3.jpeg","7","spm_respsonse","1","8","mat_51","","","","","","1","15494.899999856949","","","","","","","","","","","","","","",""
"","","","","","html-keyboard-response","284","1027034","0.0-3.0-4.0-0.27","640188f192ec944654326ec3","A3","batch1","","null","<p class=block-text>Trial 52 out of 60</p>","null","spm_show_trial_num","","","","","","","","","","","","","","","","","","","","","","","","",""
"","","","","","image-button-response","285","1045556","0.0-3.0-4.0-1.27","640188f192ec944654326ec3","A3","batch1","","18520.200000047684","img/question_5_4.jpeg","1","spm_respsonse","1","2","mat_52","","","","","","1","18520.200000047684","","","","","","","","","","","","","","",""
"","","","","","html-keyboard-response","286","1046625","0.0-3.0-4.0-0.28","640188f192ec944654326ec3","A3","batch1","","null","<p class=block-text>Trial 53 out of 60</p>","null","spm_show_trial_num","","","","","","","","","","","","","","","","","","","","","","","","",""
"","","","","","image-button-response","287","1065206","0.0-3.0-4.0-1.28","640188f192ec944654326ec3","A3","batch1","","18579.5","img/question_5_5.jpeg","0","spm_respsonse","1","1","mat_53","","","","","","1","18579.5","","","","","","","","","","","","","","",""
"","","","","","html-keyboard-response","288","1066280","0.0-3.0-4.0-0.29","640188f192ec944654326ec3","A3","batch1","","null","<p class=block-text>Trial 54 out of 60</p>","null","spm_show_trial_num","","","","","","","","","","","","","","","","","","","","","","","","",""
"","","","","","image-button-response","289","1086368","0.0-3.0-4.0-1.29","640188f192ec944654326ec3","A3","batch1","","20087.10000014305","img/question_5_6.jpeg","4","spm_respsonse","1","5","mat_54","","","","","","1","20087.10000014305","","","","","","","","","","","","","","",""
"","","","","","html-keyboard-response","290","1087444","0.0-3.0-4.0-0.30","640188f192ec944654326ec3","A3","batch1","","null","<p class=block-text>Trial 55 out of 60</p>","null","spm_show_trial_num","","","","","","","","","","","","","","","","","","","","","","","","",""
"","","","","","image-button-response","291","1150200","0.0-3.0-4.0-1.30","640188f192ec944654326ec3","A3","batch1","","62754.09999990463","img/question_5_7.jpeg","1","spm_respsonse","0","1","mat_55","","","","","","0","62754.09999990463","","","","","","","","","","","","","","",""
"","","","","","html-keyboard-response","292","1151253","0.0-3.0-4.0-0.31","640188f192ec944654326ec3","A3","batch1","","null","<p class=block-text>Trial 56 out of 60</p>","null","spm_show_trial_num","","","","","","","","","","","","","","","","","","","","","","","","",""
"","","","","","image-button-response","293","1183080","0.0-3.0-4.0-1.31","640188f192ec944654326ec3","A3","batch1","","31825.800000190735","img/question_5_8.jpeg","5","spm_respsonse","1","6","mat_56","","","","","","1","31825.800000190735","","","","","","","","","","","","","","",""
"","","","","","html-keyboard-response","294","1184131","0.0-3.0-4.0-0.32","640188f192ec944654326ec3","A3","batch1","","null","<p class=block-text>Trial 57 out of 60</p>","null","spm_show_trial_num","","","","","","","","","","","","","","","","","","","","","","","","",""
"","","","","","image-button-response","295","1219034","0.0-3.0-4.0-1.32","640188f192ec944654326ec3","A3","batch1","","34901.59999990463","img/question_5_9.jpeg","2","spm_respsonse","1","3","mat_57","","","","","","1","34901.59999990463","","","","","","","","","","","","","","",""
"","","","","","html-keyboard-response","296","1220108","0.0-3.0-4.0-0.33","640188f192ec944654326ec3","A3","batch1","","null","<p class=block-text>Trial 58 out of 60</p>","null","spm_show_trial_num","","","","","","","","","","","","","","","","","","","","","","","","",""
"","","","","","image-button-response","297","1256569","0.0-3.0-4.0-1.33","640188f192ec944654326ec3","A3","batch1","","36459.10000014305","img/question_5_10.jpeg","0","spm_respsonse","0","2","mat_58","","","","","","0","36459.10000014305","","","","","","","","","","","","","","",""
"","","","","","html-keyboard-response","298","1257635","0.0-3.0-4.0-0.34","640188f192ec944654326ec3","A3","batch1","","null","<p class=block-text>Trial 59 out of 60</p>","null","spm_show_trial_num","","","","","","","","","","","","","","","","","","","","","","","","",""
"","","","","","image-button-response","299","1322483","0.0-3.0-4.0-1.34","640188f192ec944654326ec3","A3","batch1","","64847.10000014305","img/question_5_11.jpeg","6","spm_respsonse","0","4","mat_59","","","","","","0","64847.10000014305","","","","","","","","","","","","","","",""
"","","","","","html-keyboard-response","300","1323556","0.0-3.0-4.0-0.35","640188f192ec944654326ec3","A3","batch1","","null","<p class=block-text>Trial 60 out of 60</p>","null","spm_show_trial_num","","","","","","","","","","","","","","","","","","","","","","","","",""
"","","","","","image-button-response","301","1364672","0.0-3.0-4.0-1.35","640188f192ec944654326ec3","A3","batch1","","41114.700000047684","img/question_5_12.jpeg","3","spm_respsonse","0","5","mat_60","","","","","","0","41114.700000047684","","","","","","","","","","","","","","",""
"","","","","","html-button-response","302","1366552","0.0-3.0-5.0","640188f192ec944654326ec3","A3","batch1","","1628","<p class= block-text>This concludes the Standard Progressive Matrix game. Thank you for your responses!<br> When you are ready, click the button continue</p>","0","spm_goodbye","","","","","","","","","","","","","","","","","","","","","","","","",""
"true","","","","","fullscreen","303","1368708","0.0-4.0-0.0","640188f192ec944654326ec3","A3","batch1","","","","","","","","","","","","","","","","","","","","","","","","","","","","","",""
"","","","","","instructions","304","1461069","0.0-4.0-1.0-0.0-0.0","640188f192ec944654326ec3","A3","batch1","[{""page_index"":0,""viewing_time"":43252.09999990463},{""page_index"":1,""viewing_time"":10828},{""page_index"":2,""viewing_time"":2595.7999999523163},{""page_index"":3,""viewing_time"":16007.300000190735},{""page_index"":4,""viewing_time"":10899.599999904633},{""page_index"":5,""viewing_time"":7088.599999904633},{""page_index"":6,""viewing_time"":1689.3000001907349}]","92360.89999985695","","","tol-instructions","","","","","","","","","","","","","","","","","","","","","","","","",""
"","","","","","html-button-response","305","1461981","0.0-4.0-1.0-1.0-0.0","640188f192ec944654326ec3","A3","batch1","","911.5","<p class=block-text> Let's answer a few questions <br>","0","tol_enter_quiz","","","","","","","","","","","","","","","","","","","","","","","","",""
"","","","","","html-button-response","306","1464716","0.0-4.0-1.0-1.0-1.0","640188f192ec944654326ec3","A3","batch1","","2734.0999999046326","<p class = block-text>True or False: You can only move the ball on top of a peg. <br></p>","0","tol_quiz","true","","","","","","","","","","","","","","","","","","","","","","","",""
"","","","","","html-button-response","307","1465412","0.0-4.0-1.0-1.0-2.0","640188f192ec944654326ec3","A3","batch1","","694.0999999046326","<p class = block-text>Correct! You can only move the ball on top of a peg.</p>","0","tol_quiz_feedback","","","","","","","","","","","","","","","","","","","","","","","","",""
"","","","","","html-button-response","308","1467392","0.0-4.0-1.0-1.0-3.0","640188f192ec944654326ec3","A3","batch1","","1979.3999998569489","<p class = block-text>True or False: You should try to match your board with the target board with fewest moves possible. <br></p>","0","tol_quiz","true","","","","","","","","","","","","","","","","","","","","","","","",""
"","","","","","html-button-response","309","1467860","0.0-4.0-1.0-1.0-4.0","640188f192ec944654326ec3","A3","batch1","","467.09999990463257","<p class = block-text>Correct! </p>","0","tol_quiz_feedback","","","","","","","","","","","","","","","","","","","","","","","","",""
"","","","","","html-button-response","310","1469268","0.0-4.0-2.0","640188f192ec944654326ec3","A3","batch1","","1407.0999999046326","<p class=block-text> Now that you've understood the game, let's practice a few easier examples before we start!<br> <br>","0","","","","","","","","","","","","","","","","","","","","","","","","","",""
"","","","","","single-stim-button","311","1471451","0.0-4.0-3.0-0.0","640188f192ec944654326ec3","A3","batch1","","2183","","","tol_practice","","","","","","","","","","","tol_peg_2","2183","2183","0","[[1,2,0],[0,0],[0]]","1","[[1,2,0],[0,0],[3]]","practice","2183","","","","","",""
"","","","","","single-stim-button","312","1472811","0.0-4.0-3.0-1.0","640188f192ec944654326ec3","A3","batch1","","1360","","","tol_practice","","","","","","","","","","","tol_peg_3","1360","1360","0","[[1,2,0],[0,0],[3]]","1","[[1,2,0],[0,0],[3]]","practice","1360","","","","","",""
"","","","","","poldrack-single-stim","313","1473815","0.0-4.0-4.0","640188f192ec944654326ec3","A3","batch1","","-1","","","tol_feedback","true","","","","","","","","","","","1000","1000","500","","","","","","-1","none","true","","0",""
"","","","","","single-stim-button","314","1477317","0.0-4.0-5.0-0.0","640188f192ec944654326ec3","A3","batch1","","3502","","","tol_practice","","","","","","","","","","","tol_peg_1","3502","3502","0","[[1,0,0],[3,0],[0]]","2","[[0,0,0],[3,1],[2]]","practice","3502","","","","","",""
"","","","","","single-stim-button","315","1477974","0.0-4.0-5.0-1.0","640188f192ec944654326ec3","A3","batch1","","657","","","tol_practice","","","","","","","","","","","tol_peg_3","657","657","0","[[1,0,0],[3,0],[2]]","2","[[0,0,0],[3,1],[2]]","practice","657","","","","","",""
"","","","","","single-stim-button","316","1479037","0.0-4.0-5.1-0.1","640188f192ec944654326ec3","A3","batch1","","1062","","","tol_practice","","","","","","","","","","","tol_peg_1","1062","1062","0","[[0,0,0],[3,0],[2]]","3","[[0,0,0],[3,1],[2]]","practice","1062","","","","","",""
"","","","","","single-stim-button","317","1479531","0.0-4.0-5.1-1.1","640188f192ec944654326ec3","A3","batch1","","494","","","tol_practice","","","","","","","","","","","tol_peg_2","494","494","0","[[0,0,0],[3,1],[2]]","3","[[0,0,0],[3,1],[2]]","practice","494","","","","","",""
"","","","","","poldrack-single-stim","318","1480533","0.0-4.0-6.0","640188f192ec944654326ec3","A3","batch1","","-1","","","tol_feedback","true","","","","","","","","","","","1000","1000","500","","","","","","-1","none","true","","0",""
"","","","","","single-stim-button","319","1483752","0.0-4.0-7.0-0.0","640188f192ec944654326ec3","A3","batch1","","3218","","","tol_practice","","","","","","","","","","","tol_peg_2","3218","3218","0","[[1,2,0],[0,0],[0]]","4","[[1,0,0],[2,0],[3]]","practice","3218","","","","","",""
"","","","","","single-stim-button","320","1484329","0.0-4.0-7.0-1.0","640188f192ec944654326ec3","A3","batch1","","576","","","tol_practice","","","","","","","","","","","tol_peg_3","576","576","0","[[1,2,0],[0,0],[3]]","4","[[1,0,0],[2,0],[3]]","practice","576","","","","","",""
"","","","","","single-stim-button","321","1484889","0.0-4.0-7.1-0.1","640188f192ec944654326ec3","A3","batch1","","560","","","tol_practice","","","","","","","","","","","tol_peg_1","560","560","0","[[1,0,0],[0,0],[3]]","5","[[1,0,0],[2,0],[3]]","practice","560","","","","","",""
"","","","","","single-stim-button","322","1485280","0.0-4.0-7.1-1.1","640188f192ec944654326ec3","A3","batch1","","391","","","tol_practice","","","","","","","","","","","tol_peg_2","391","391","0","[[1,0,0],[2,0],[3]]","5","[[1,0,0],[2,0],[3]]","practice","391","","","","","",""
"","","","","","poldrack-single-stim","323","1486281","0.0-4.0-8.0","640188f192ec944654326ec3","A3","batch1","","-1","","","tol_feedback","true","","","","","","","","","","","1000","1000","500","","","","","","-1","none","true","","0",""
"","","","","","html-button-response","324","1489151","0.0-4.0-9.0","640188f192ec944654326ec3","A3","batch1","","2869.2999999523163","<div class = centerbox><p class = center-block-text>Great job! You are done with practice trials<br>You are about to start official trials.<br> <br> Problem <strong>1</strong> out of 25 problems</p></div>","0","tol_instruction","","","","","","","","","","","","","","","","","","","","","","","","",""
"","","","","","single-stim-button","325","1501125","0.0-4.0-10.0-0.0","640188f192ec944654326ec3","A3","batch1","","10971","","","tol_tohand","","","","","","","","","","","tol_peg_2","10971","10971","0","[[1,2,0],[0,0],[0]]","1","[[1,3,0],[2,0],[0]]","0","0","","","","","","3"
"","","","","","single-stim-button","326","1501810","0.0-4.0-10.0-1.0","640188f192ec944654326ec3","A3","batch1","","684","","","tol_toboard","","","","","","","","","","","tol_peg_1","684","684","0","[[1,2,3],[0,0],[0]]","1","[[1,3,0],[2,0],[0]]","0","0","","","","","","3"
"","","","","","single-stim-button","327","1502984","0.0-4.0-10.1-0.1","640188f192ec944654326ec3","A3","batch1","","1173","","","tol_tohand","","","","","","","","","","","tol_peg_1","1173","1173","0","[[1,2,0],[0,0],[0]]","2","[[1,3,0],[2,0],[0]]","0","0","","","","","","3"
"","","","","","single-stim-button","328","1503599","0.0-4.0-10.1-1.1","640188f192ec944654326ec3","A3","batch1","","615","","","tol_toboard","","","","","","","","","","","tol_peg_1","615","615","0","[[1,2,3],[0,0],[0]]","2","[[1,3,0],[2,0],[0]]","0","0","","","","","","3"
"","","","","","single-stim-button","329","1504475","0.0-4.0-10.2-0.2","640188f192ec944654326ec3","A3","batch1","","876","","","tol_tohand","","","","","","","","","","","tol_peg_1","876","876","0","[[1,2,0],[0,0],[0]]","3","[[1,3,0],[2,0],[0]]","0","0","","","","","","3"
"","","","","","single-stim-button","330","1504885","0.0-4.0-10.2-1.2","640188f192ec944654326ec3","A3","batch1","","410","","","tol_toboard","","","","","","","","","","","tol_peg_3","410","410","0","[[1,2,0],[0,0],[3]]","3","[[1,3,0],[2,0],[0]]","0","0","","","","","","3"
"","","","","","single-stim-button","331","1505437","0.0-4.0-10.3-0.3","640188f192ec944654326ec3","A3","batch1","","552","","","tol_tohand","","","","","","","","","","","tol_peg_1","552","552","0","[[1,0,0],[0,0],[3]]","4","[[1,3,0],[2,0],[0]]","0","0","","","","","","3"
"","","","","","single-stim-button","332","1505966","0.0-4.0-10.3-1.3","640188f192ec944654326ec3","A3","batch1","","529","","","tol_toboard","","","","","","","","","","","tol_peg_2","529","529","0","[[1,0,0],[2,0],[3]]","4","[[1,3,0],[2,0],[0]]","0","0","","","","","","3"
"","","","","","single-stim-button","333","1506370","0.0-4.0-10.4-0.4","640188f192ec944654326ec3","A3","batch1","","404","","","tol_tohand","","","","","","","","","","","tol_peg_3","404","404","0","[[1,0,0],[2,0],[0]]","5","[[1,3,0],[2,0],[0]]","0","0","","","","","","3"
"","","","","","single-stim-button","334","1506935","0.0-4.0-10.4-1.4","640188f192ec944654326ec3","A3","batch1","","565","","","tol_toboard","","","","","","","","","","","tol_peg_1","565","565","0","[[1,3,0],[2,0],[0]]","5","[[1,3,0],[2,0],[0]]","0","0","","","","","","3"
"","","","","","poldrack-single-stim","335","1507939","0.0-4.0-11.0","640188f192ec944654326ec3","A3","batch1","","-1","","","tol_feedback","true","","","","","","","","","","","1000","1000","500","","","","","","-1","none","true","10971","13976",""
"","","","","","html-button-response","336","1508770","0.0-4.0-12.0","640188f192ec944654326ec3","A3","batch1","","829.7999999523163","<div class = centerbox><p class = center-block-text>problem <strong>2</strong> out of 25 problems</p></div>","0","tol_trial_num","","","","","","","","","","","","","","","","","","","","","","","","",""
"","","","","","single-stim-button","337","1515209","0.0-4.0-13.0-0.0","640188f192ec944654326ec3","A3","batch1","","6439","","","tol_tohand","","","","","","","","","","","tol_peg_1","6439","6439","0","[[1,0,0],[3,0],[0]]","1","[[2,1,3],[0,0],[0]]","1","0","","","","","","5"
"","","","","","single-stim-button","338","1515754","0.0-4.0-13.0-1.0","640188f192ec944654326ec3","A3","batch1","","544","","","tol_toboard","","","","","","","","","","","tol_peg_3","544","544","0","[[1,0,0],[3,0],[2]]","1","[[2,1,3],[0,0],[0]]","1","0","","","","","","5"
"","","","","","single-stim-button","339","1534846","0.0-4.0-13.1-0.1","640188f192ec944654326ec3","A3","batch1","","19092","","","tol_tohand","","","","","","","","","","","tol_peg_1","19092","19092","0","[[0,0,0],[3,0],[2]]","2","[[2,1,3],[0,0],[0]]","1","0","","","","","","5"
"","","","","","single-stim-button","340","1535365","0.0-4.0-13.1-1.1","640188f192ec944654326ec3","A3","batch1","","519","","","tol_toboard","","","","","","","","","","","tol_peg_2","519","519","0","[[0,0,0],[3,1],[2]]","2","[[2,1,3],[0,0],[0]]","1","0","","","","","","5"
"","","","","","single-stim-button","341","1535788","0.0-4.0-13.2-0.2","640188f192ec944654326ec3","A3","batch1","","422","","","tol_tohand","","","","","","","","","","","tol_peg_3","422","422","0","[[0,0,0],[3,1],[0]]","3","[[2,1,3],[0,0],[0]]","1","0","","","","","","5"
"","","","","","single-stim-button","342","1536322","0.0-4.0-13.2-1.2","640188f192ec944654326ec3","A3","batch1","","534","","","tol_toboard","","","","","","","","","","","tol_peg_1","534","534","0","[[2,0,0],[3,1],[0]]","3","[[2,1,3],[0,0],[0]]","1","0","","","","","","5"
"","","","","","single-stim-button","343","1537804","0.0-4.0-13.3-0.3","640188f192ec944654326ec3","A3","batch1","","1482","","","tol_tohand","","","","","","","","","","","tol_peg_2","1482","1482","0","[[2,0,0],[3,0],[0]]","4","[[2,1,3],[0,0],[0]]","1","0","","","","","","5"
"","","","","","single-stim-button","344","1538236","0.0-4.0-13.3-1.3","640188f192ec944654326ec3","A3","batch1","","431","","","tol_toboard","","","","","","","","","","","tol_peg_1","431","431","0","[[2,1,0],[3,0],[0]]","4","[[2,1,3],[0,0],[0]]","1","0","","","","","","5"
"","","","","","single-stim-button","345","1538666","0.0-4.0-13.4-0.4","640188f192ec944654326ec3","A3","batch1","","429","","","tol_tohand","","","","","","","","","","","tol_peg_2","429","429","0","[[2,1,0],[0,0],[0]]","5","[[2,1,3],[0,0],[0]]","1","0","","","","","","5"
"","","","","","single-stim-button","346","1539054","0.0-4.0-13.4-1.4","640188f192ec944654326ec3","A3","batch1","","388","","","tol_toboard","","","","","","","","","","","tol_peg_1","388","388","0","[[2,1,3],[0,0],[0]]","5","[[2,1,3],[0,0],[0]]","1","0","","","","","","5"
"","","","","","poldrack-single-stim","347","1540055","0.0-4.0-14.0","640188f192ec944654326ec3","A3","batch1","","-1","","","tol_feedback","true","","","","","","","","","","","1000","1000","500","","","","","","-1","none","true","6439","27864",""
