"success","timeout","failed_images","failed_audio","failed_video","trial_type","trial_index","time_elapsed","internal_node_id","subject_id","study_id","session_id","view_history","rt","task","stimulus","response","correct","mouse_click","stim_duration","block_duration","timing_post_trial","current_position","tol_num_moves_made","tol_target","tol_problem_id","tol_rt","key_press","possible_responses","tol_correct","preplanning","tol_rt_per_trial","tol_min_moves","answer","item","fiar_detect_rt","fiar_detect_correct","total_correct_fiar_detect","post_trial_gap","choices","spm_correct","spm_rt"
"true","false","[]","[]","[]","preload","0","1042","0.0-0.0","64135983899b0b3fa3ddfab9","F1","batch6","","","","","","","","","","","","","","","","","","","","","","","","","","","","","",""
"true","","","","","fullscreen","1","10044","0.0-1.0-0.0","64135983899b0b3fa3ddfab9","F1","batch6","","","","","","","","","","","","","","","","","","","","","","","","","","","","","",""
"true","","","","","fullscreen","2","12790","0.0-2.0-0.0","64135983899b0b3fa3ddfab9","F1","batch6","","","","","","","","","","","","","","","","","","","","","","","","","","","","","",""
"","","","","","instructions","3","45160","0.0-2.0-1.0-0.0-0.0","64135983899b0b3fa3ddfab9","F1","batch6","[{""page_index"":0,""viewing_time"":7984.199999928474},{""page_index"":1,""viewing_time"":3075.9000000953674},{""page_index"":2,""viewing_time"":3404},{""page_index"":3,""viewing_time"":5087.899999976158},{""page_index"":4,""viewing_time"":4621.899999976158},{""page_index"":5,""viewing_time"":6544.700000047684},{""page_index"":6,""viewing_time"":1648.8999999761581}]","32367.799999952316","tol-instructions","","","","","","","","","","","","","","","","","","","","","","","","","","",""
"","","","","","html-button-response","4","46140","0.0-2.0-1.0-1.0-0.0","64135983899b0b3fa3ddfab9","F1","batch6","","979","tol_enter_quiz","<p class=block-text> Let's answer a few questions <br>","0","","","","","","","","","","","","","","","","","","","","","","","","",""
"","","","","","html-button-response","5","48020","0.0-2.0-1.0-1.0-1.0","64135983899b0b3fa3ddfab9","F1","batch6","","1878.5","tol_quiz","<p class = block-text>True or False: You can only move the ball on top of a peg. <br></p>","0","true","","","","","","","","","","","","","","","","","","","","","","","",""
"","","","","","html-button-response","6","49297","0.0-2.0-1.0-1.0-2.0","64135983899b0b3fa3ddfab9","F1","batch6","","1276.2000000476837","tol_quiz_feedback","<p class = block-text>Correct! You can only move the ball on top of a peg.</p>","0","","","","","","","","","","","","","","","","","","","","","","","","",""
"","","","","","html-button-response","7","51948","0.0-2.0-1.0-1.0-3.0","64135983899b0b3fa3ddfab9","F1","batch6","","2649.7000000476837","tol_quiz","<p class = block-text>True or False: You should try to match your board with the target board with fewest moves possible. <br></p>","0","true","","","","","","","","","","","","","","","","","","","","","","","",""
"","","","","","html-button-response","8","52863","0.0-2.0-1.0-1.0-4.0","64135983899b0b3fa3ddfab9","F1","batch6","","913.6000000238419","tol_quiz_feedback","<p class = block-text>Correct! </p>","0","","","","","","","","","","","","","","","","","","","","","","","","",""
"","","","","","html-button-response","9","54631","0.0-2.0-2.0","64135983899b0b3fa3ddfab9","F1","batch6","","1766.7999999523163","","<p class=block-text> Now that you've understood the game, let's practice a few easier examples before we start!<br> <br>","0","","","","","","","","","","","","","","","","","","","","","","","","",""
"","","","","","single-stim-button","10","58071","0.0-2.0-3.0-0.0","64135983899b0b3fa3ddfab9","F1","batch6","","3438","tol_practice","","","","tol_peg_2","3438","3438","0","[[1,2,0],[0,0],[0]]","1","[[1,2,0],[0,0],[3]]","practice","3438","","","","","","","","","","","","","","",""
"","","","","","single-stim-button","11","59771","0.0-2.0-3.0-1.0","64135983899b0b3fa3ddfab9","F1","batch6","","1699","tol_practice","","","","tol_peg_3","1699","1699","0","[[1,2,0],[0,0],[3]]","1","[[1,2,0],[0,0],[3]]","practice","1699","","","","","","","","","","","","","","",""
"","","","","","poldrack-single-stim","12","60773","0.0-2.0-4.0","64135983899b0b3fa3ddfab9","F1","batch6","","-1","tol_feedback","","","true","","1000","1000","500","","","","","","-1","none","true","","0","","","","","","","","","",""
"","","","","","single-stim-button","13","64086","0.0-2.0-5.0-0.0","64135983899b0b3fa3ddfab9","F1","batch6","","3312","tol_practice","","","","tol_peg_1","3312","3312","0","[[1,0,0],[3,0],[0]]","2","[[0,0,0],[3,1],[2]]","practice","3312","","","","","","","","","","","","","","",""
"","","","","","single-stim-button","14","66099","0.0-2.0-5.0-1.0","64135983899b0b3fa3ddfab9","F1","batch6","","2012","tol_practice","","","","tol_peg_3","2012","2012","0","[[1,0,0],[3,0],[2]]","2","[[0,0,0],[3,1],[2]]","practice","2012","","","","","","","","","","","","","","",""
"","","","","","single-stim-button","15","67116","0.0-2.0-5.1-0.1","64135983899b0b3fa3ddfab9","F1","batch6","","1016","tol_practice","","","","tol_peg_1","1016","1016","0","[[0,0,0],[3,0],[2]]","3","[[0,0,0],[3,1],[2]]","practice","1016","","","","","","","","","","","","","","",""
"","","","","","single-stim-button","16","67889","0.0-2.0-5.1-1.1","64135983899b0b3fa3ddfab9","F1","batch6","","772","tol_practice","","","","tol_peg_2","772","772","0","[[0,0,0],[3,1],[2]]","3","[[0,0,0],[3,1],[2]]","practice","772","","","","","","","","","","","","","","",""
"","","","","","poldrack-single-stim","17","68898","0.0-2.0-6.0","64135983899b0b3fa3ddfab9","F1","batch6","","-1","tol_feedback","","","true","","1000","1000","500","","","","","","-1","none","true","","0","","","","","","","","","",""
"","","","","","single-stim-button","18","72270","0.0-2.0-7.0-0.0","64135983899b0b3fa3ddfab9","F1","batch6","","3371","tol_practice","","","","tol_peg_2","3371","3371","0","[[1,2,0],[0,0],[0]]","4","[[1,0,0],[2,0],[3]]","practice","3371","","","","","","","","","","","","","","",""
"","","","","","single-stim-button","19","73221","0.0-2.0-7.0-1.0","64135983899b0b3fa3ddfab9","F1","batch6","","950","tol_practice","","","","tol_peg_3","950","950","0","[[1,2,0],[0,0],[3]]","4","[[1,0,0],[2,0],[3]]","practice","950","","","","","","","","","","","","","","",""
"","","","","","single-stim-button","20","74134","0.0-2.0-7.1-0.1","64135983899b0b3fa3ddfab9","F1","batch6","","912","tol_practice","","","","tol_peg_1","912","912","0","[[1,0,0],[0,0],[3]]","5","[[1,0,0],[2,0],[3]]","practice","912","","","","","","","","","","","","","","",""
"","","","","","single-stim-button","21","75041","0.0-2.0-7.1-1.1","64135983899b0b3fa3ddfab9","F1","batch6","","906","tol_practice","","","","tol_peg_2","906","906","0","[[1,0,0],[2,0],[3]]","5","[[1,0,0],[2,0],[3]]","practice","906","","","","","","","","","","","","","","",""
"","","","","","poldrack-single-stim","22","76045","0.0-2.0-8.0","64135983899b0b3fa3ddfab9","F1","batch6","","-1","tol_feedback","","","true","","1000","1000","500","","","","","","-1","none","true","","0","","","","","","","","","",""
"","","","","","html-button-response","23","78598","0.0-2.0-9.0","64135983899b0b3fa3ddfab9","F1","batch6","","2551.899999976158","tol_instruction","<div class = centerbox><p class = center-block-text>Great job! You are done with practice trials<br>You are about to start official trials.<br> <br> Problem <strong>1</strong> out of 25 problems</p></div>","0","","","","","","","","","","","","","","","","","","","","","","","","",""
"","","","","","single-stim-button","24","82437","0.0-2.0-10.0-0.0","64135983899b0b3fa3ddfab9","F1","batch6","","2835","tol_tohand","","","","tol_peg_1","2835","2835","0","[[1,0,0],[3,0],[0]]","1","[[1,3,0],[2,0],[0]]","0","0","","","","","","3","","","","","","","","",""
"","","","","","single-stim-button","25","85629","0.0-2.0-10.0-1.0","64135983899b0b3fa3ddfab9","F1","batch6","","3191","tol_toboard","","","","tol_peg_3","3191","3191","0","[[1,0,0],[3,0],[2]]","1","[[1,3,0],[2,0],[0]]","0","0","","","","","","3","","","","","","","","",""
"","","","","","single-stim-button","26","86542","0.0-2.0-10.1-0.1","64135983899b0b3fa3ddfab9","F1","batch6","","913","tol_tohand","","","","tol_peg_2","913","913","0","[[1,0,0],[0,0],[2]]","2","[[1,3,0],[2,0],[0]]","0","0","","","","","","3","","","","","","","","",""
"","","","","","single-stim-button","27","87390","0.0-2.0-10.1-1.1","64135983899b0b3fa3ddfab9","F1","batch6","","847","tol_toboard","","","","tol_peg_1","847","847","0","[[1,3,0],[0,0],[2]]","2","[[1,3,0],[2,0],[0]]","0","0","","","","","","3","","","","","","","","",""
"","","","","","single-stim-button","28","88616","0.0-2.0-10.2-0.2","64135983899b0b3fa3ddfab9","F1","batch6","","1226","tol_tohand","","","","tol_peg_3","1226","1226","0","[[1,3,0],[0,0],[0]]","3","[[1,3,0],[2,0],[0]]","0","0","","","","","","3","","","","","","","","",""
"","","","","","single-stim-button","29","89811","0.0-2.0-10.2-1.2","64135983899b0b3fa3ddfab9","F1","batch6","","1195","tol_toboard","","","","tol_peg_2","1195","1195","0","[[1,3,0],[2,0],[0]]","3","[[1,3,0],[2,0],[0]]","0","0","","","","","","3","","","","","","","","",""
"","","","","","poldrack-single-stim","30","90825","0.0-2.0-11.0","64135983899b0b3fa3ddfab9","F1","batch6","","-1","tol_feedback","","","true","","1000","1000","500","","","","","","-1","none","true","2835","4974","","","","","","","","","",""
"","","","","","html-button-response","31","91786","0.0-2.0-12.0","64135983899b0b3fa3ddfab9","F1","batch6","","959.5","tol_trial_num","<div class = centerbox><p class = center-block-text>problem <strong>2</strong> out of 25 problems</p></div>","0","","","","","","","","","","","","","","","","","","","","","","","","",""
"","","","","","single-stim-button","32","99591","0.0-2.0-13.0-0.0","64135983899b0b3fa3ddfab9","F1","batch6","","7804","tol_tohand","","","","tol_peg_1","7804","7804","0","[[1,0,0],[3,0],[0]]","1","[[2,1,3],[0,0],[0]]","1","0","","","","","","5","","","","","","","","",""
"","","","","","single-stim-button","33","100489","0.0-2.0-13.0-1.0","64135983899b0b3fa3ddfab9","F1","batch6","","898","tol_toboard","","","","tol_peg_2","898","898","0","[[1,0,0],[3,2],[0]]","1","[[2,1,3],[0,0],[0]]","1","0","","","","","","5","","","","","","","","",""
"","","","","","single-stim-button","34","101626","0.0-2.0-13.1-0.1","64135983899b0b3fa3ddfab9","F1","batch6","","1135","tol_tohand","","","","tol_peg_1","1135","1135","0","[[0,0,0],[3,2],[0]]","2","[[2,1,3],[0,0],[0]]","1","0","","","","","","5","","","","","","","","",""
"","","","","","single-stim-button","35","102799","0.0-2.0-13.1-1.1","64135983899b0b3fa3ddfab9","F1","batch6","","1172","tol_toboard","","","","tol_peg_3","1172","1172","0","[[0,0,0],[3,2],[1]]","2","[[2,1,3],[0,0],[0]]","1","0","","","","","","5","","","","","","","","",""
"","","","","","single-stim-button","36","103905","0.0-2.0-13.2-0.2","64135983899b0b3fa3ddfab9","F1","batch6","","1105","tol_tohand","","","","tol_peg_2","1105","1105","0","[[0,0,0],[3,0],[1]]","3","[[2,1,3],[0,0],[0]]","1","0","","","","","","5","","","","","","","","",""
"","","","","","single-stim-button","37","104885","0.0-2.0-13.2-1.2","64135983899b0b3fa3ddfab9","F1","batch6","","979","tol_toboard","","","","tol_peg_1","979","979","0","[[2,0,0],[3,0],[1]]","3","[[2,1,3],[0,0],[0]]","1","0","","","","","","5","","","","","","","","",""
"","","","","","single-stim-button","38","105761","0.0-2.0-13.3-0.3","64135983899b0b3fa3ddfab9","F1","batch6","","876","tol_tohand","","","","tol_peg_3","876","876","0","[[2,0,0],[3,0],[0]]","4","[[2,1,3],[0,0],[0]]","1","0","","","","","","5","","","","","","","","",""
"","","","","","single-stim-button","39","106587","0.0-2.0-13.3-1.3","64135983899b0b3fa3ddfab9","F1","batch6","","824","tol_toboard","","","","tol_peg_1","824","824","0","[[2,1,0],[3,0],[0]]","4","[[2,1,3],[0,0],[0]]","1","0","","","","","","5","","","","","","","","",""
"","","","","","single-stim-button","40","107312","0.0-2.0-13.4-0.4","64135983899b0b3fa3ddfab9","F1","batch6","","725","tol_tohand","","","","tol_peg_2","725","725","0","[[2,1,0],[0,0],[0]]","5","[[2,1,3],[0,0],[0]]","1","0","","","","","","5","","","","","","","","",""
"","","","","","single-stim-button","41","108256","0.0-2.0-13.4-1.4","64135983899b0b3fa3ddfab9","F1","batch6","","942","tol_toboard","","","","tol_peg_1","942","942","0","[[2,1,3],[0,0],[0]]","5","[[2,1,3],[0,0],[0]]","1","0","","","","","","5","","","","","","","","",""
"","","","","","poldrack-single-stim","42","109262","0.0-2.0-14.0","64135983899b0b3fa3ddfab9","F1","batch6","","-1","tol_feedback","","","true","","1000","1000","500","","","","","","-1","none","true","7804","11645","","","","","","","","","",""
"","","","","","html-button-response","43","110246","0.0-2.0-15.0","64135983899b0b3fa3ddfab9","F1","batch6","","983.3000000715256","tol_trial_num","<div class = centerbox><p class = center-block-text>problem <strong>3</strong> out of 25 problems</p></div>","0","","","","","","","","","","","","","","","","","","","","","","","","",""
"","","","","","single-stim-button","44","115473","0.0-2.0-16.0-0.0","64135983899b0b3fa3ddfab9","F1","batch6","","5225","tol_tohand","","","","tol_peg_1","5225","5225","0","[[2,0,0],[0,0],[1]]","1","[[1,2,0],[3,0],[0]]","2","0","","","","","","4","","","","","","","","",""
"","","","","","single-stim-button","45","116245","0.0-2.0-16.0-1.0","64135983899b0b3fa3ddfab9","F1","batch6","","772","tol_toboard","","","","tol_peg_2","772","772","0","[[2,0,0],[3,0],[1]]","1","[[1,2,0],[3,0],[0]]","2","0","","","","","","4","","","","","","","","",""
"","","","","","single-stim-button","46","118864","0.0-2.0-16.1-0.1","64135983899b0b3fa3ddfab9","F1","batch6","","2618","tol_tohand","","","","tol_peg_1","2618","2618","0","[[0,0,0],[3,0],[1]]","2","[[1,2,0],[3,0],[0]]","2","0","","","","","","4","","","","","","","","",""
"","","","","","single-stim-button","47","119481","0.0-2.0-16.1-1.1","64135983899b0b3fa3ddfab9","F1","batch6","","616","tol_toboard","","","","tol_peg_2","616","616","0","[[0,0,0],[3,2],[1]]","2","[[1,2,0],[3,0],[0]]","2","0","","","","","","4","","","","","","","","",""
"","","","","","single-stim-button","48","120210","0.0-2.0-16.2-0.2","64135983899b0b3fa3ddfab9","F1","batch6","","727","tol_tohand","","","","tol_peg_3","727","727","0","[[0,0,0],[3,2],[0]]","3","[[1,2,0],[3,0],[0]]","2","0","","","","","","4","","","","","","","","",""
"","","","","","single-stim-button","49","122133","0.0-2.0-16.2-1.2","64135983899b0b3fa3ddfab9","F1","batch6","","1922","tol_toboard","","","","tol_peg_1","1922","1922","0","[[1,0,0],[3,2],[0]]","3","[[1,2,0],[3,0],[0]]","2","0","","","","","","4","","","","","","","","",""
"","","","","","single-stim-button","50","122934","0.0-2.0-16.3-0.3","64135983899b0b3fa3ddfab9","F1","batch6","","801","tol_tohand","","","","tol_peg_2","801","801","0","[[1,0,0],[3,0],[0]]","4","[[1,2,0],[3,0],[0]]","2","0","","","","","","4","","","","","","","","",""
"","","","","","single-stim-button","51","123759","0.0-2.0-16.3-1.3","64135983899b0b3fa3ddfab9","F1","batch6","","823","tol_toboard","","","","tol_peg_1","823","823","0","[[1,2,0],[3,0],[0]]","4","[[1,2,0],[3,0],[0]]","2","0","","","","","","4","","","","","","","","",""
"","","","","","poldrack-single-stim","52","124777","0.0-2.0-17.0","64135983899b0b3fa3ddfab9","F1","batch6","","-1","tol_feedback","","","true","","1000","1000","500","","","","","","-1","none","true","5225","9371","","","","","","","","","",""
"","","","","","html-button-response","53","125822","0.0-2.0-18.0","64135983899b0b3fa3ddfab9","F1","batch6","","1043.5","tol_trial_num","<div class = centerbox><p class = center-block-text>problem <strong>4</strong> out of 25 problems</p></div>","0","","","","","","","","","","","","","","","","","","","","","","","","",""
"","","","","","single-stim-button","54","129156","0.0-2.0-19.0-0.0","64135983899b0b3fa3ddfab9","F1","batch6","","3332","tol_tohand","","","","tol_peg_2","3332","3332","0","[[3,0,0],[2,0],[0]]","1","[[3,0,0],[1,0],[2]]","3","0","","","","","","3","","","","","","","","",""
"","","","","","single-stim-button","55","130469","0.0-2.0-19.0-1.0","64135983899b0b3fa3ddfab9","F1","batch6","","1313","tol_toboard","","","","tol_peg_1","1313","1313","0","[[3,1,0],[2,0],[0]]","1","[[3,0,0],[1,0],[2]]","3","0","","","","","","3","","","","","","","","",""
"","","","","","single-stim-button","56","131086","0.0-2.0-19.1-0.1","64135983899b0b3fa3ddfab9","F1","batch6","","616","tol_tohand","","","","tol_peg_2","616","616","0","[[3,1,0],[0,0],[0]]","2","[[3,0,0],[1,0],[2]]","3","0","","","","","","3","","","","","","","","",""
"","","","","","single-stim-button","57","132013","0.0-2.0-19.1-1.1","64135983899b0b3fa3ddfab9","F1","batch6","","926","tol_toboard","","","","tol_peg_3","926","926","0","[[3,1,0],[0,0],[2]]","2","[[3,0,0],[1,0],[2]]","3","0","","","","","","3","","","","","","","","",""
"","","","","","single-stim-button","58","133001","0.0-2.0-19.2-0.2","64135983899b0b3fa3ddfab9","F1","batch6","","988","tol_tohand","","","","tol_peg_1","988","988","0","[[3,0,0],[0,0],[2]]","3","[[3,0,0],[1,0],[2]]","3","0","","","","","","3","","","","","","","","",""
"","","","","","single-stim-button","59","134256","0.0-2.0-19.2-1.2","64135983899b0b3fa3ddfab9","F1","batch6","","1254","tol_toboard","","","","tol_peg_2","1254","1254","0","[[3,0,0],[1,0],[2]]","3","[[3,0,0],[1,0],[2]]","3","0","","","","","","3","","","","","","","","",""
"","","","","","poldrack-single-stim","60","135257","0.0-2.0-20.0","64135983899b0b3fa3ddfab9","F1","batch6","","-1","tol_feedback","","","true","","1000","1000","500","","","","","","-1","none","true","3332","4936","","","","","","","","","",""
"","","","","","html-button-response","61","136572","0.0-2.0-21.0","64135983899b0b3fa3ddfab9","F1","batch6","","1313.6000000238419","tol_trial_num","<div class = centerbox><p class = center-block-text>problem <strong>5</strong> out of 25 problems</p></div>","0","","","","","","","","","","","","","","","","","","","","","","","","",""
"","","","","","single-stim-button","62","148612","0.0-2.0-22.0-0.0","64135983899b0b3fa3ddfab9","F1","batch6","","12039","tol_tohand","","","","tol_peg_3","12039","12039","0","[[1,0,0],[2,0],[0]]","1","[[0,0,0],[1,2],[3]]","4","0","","","","","","7","","","","","","","","",""
"","","","","","single-stim-button","63","149452","0.0-2.0-22.0-1.0","64135983899b0b3fa3ddfab9","F1","batch6","","838","tol_toboard","","","","tol_peg_1","838","838","0","[[1,3,0],[2,0],[0]]","1","[[0,0,0],[1,2],[3]]","4","0","","","","","","7","","","","","","","","",""
"","","","","","single-stim-button","64","150202","0.0-2.0-22.1-0.1","64135983899b0b3fa3ddfab9","F1","batch6","","749","tol_tohand","","","","tol_peg_2","749","749","0","[[1,3,0],[0,0],[0]]","2","[[0,0,0],[1,2],[3]]","4","0","","","","","","7","","","","","","","","",""
"","","","","","single-stim-button","65","151107","0.0-2.0-22.1-1.1","64135983899b0b3fa3ddfab9","F1","batch6","","905","tol_toboard","","","","tol_peg_3","905","905","0","[[1,3,0],[0,0],[2]]","2","[[0,0,0],[1,2],[3]]","4","0","","","","","","7","","","","","","","","",""
"","","","","","single-stim-button","66","166793","0.0-2.0-22.2-0.2","64135983899b0b3fa3ddfab9","F1","batch6","","15686","tol_tohand","","","","tol_peg_1","15686","15686","0","[[1,0,0],[0,0],[2]]","3","[[0,0,0],[1,2],[3]]","4","0","","","","","","7","","","","","","","","",""
"","","","","","single-stim-button","67","171625","0.0-2.0-22.2-1.2","64135983899b0b3fa3ddfab9","F1","batch6","","4832","tol_toboard","","","","tol_peg_2","4832","4832","0","[[1,0,0],[3,0],[2]]","3","[[0,0,0],[1,2],[3]]","4","0","","","","","","7","","","","","","","","",""
"","","","","","single-stim-button","68","174735","0.0-2.0-22.3-0.3","64135983899b0b3fa3ddfab9","F1","batch6","","3108","tol_tohand","","","","tol_peg_1","3108","3108","0","[[0,0,0],[3,0],[2]]","4","[[0,0,0],[1,2],[3]]","4","0","","","","","","7","","","","","","","","",""
"","","","","","single-stim-button","69","175575","0.0-2.0-22.3-1.3","64135983899b0b3fa3ddfab9","F1","batch6","","839","tol_toboard","","","","tol_peg_2","839","839","0","[[0,0,0],[3,1],[2]]","4","[[0,0,0],[1,2],[3]]","4","0","","","","","","7","","","","","","","","",""
"","","","","","single-stim-button","70","176109","0.0-2.0-22.4-0.4","64135983899b0b3fa3ddfab9","F1","batch6","","533","tol_tohand","","","","tol_peg_3","533","533","0","[[0,0,0],[3,1],[0]]","5","[[0,0,0],[1,2],[3]]","4","0","","","","","","7","","","","","","","","",""
"","","","","","single-stim-button","71","178380","0.0-2.0-22.4-1.4","64135983899b0b3fa3ddfab9","F1","batch6","","2271","tol_toboard","","","","tol_peg_1","2271","2271","0","[[2,0,0],[3,1],[0]]","5","[[0,0,0],[1,2],[3]]","4","0","","","","","","7","","","","","","","","",""
"","","","","","single-stim-button","72","179419","0.0-2.0-22.5-0.5","64135983899b0b3fa3ddfab9","F1","batch6","","1039","tol_tohand","","","","tol_peg_2","1039","1039","0","[[2,0,0],[3,0],[0]]","6","[[0,0,0],[1,2],[3]]","4","0","","","","","","7","","","","","","","","",""
"","","","","","single-stim-button","73","180191","0.0-2.0-22.5-1.5","64135983899b0b3fa3ddfab9","F1","batch6","","771","tol_toboard","","","","tol_peg_1","771","771","0","[[2,1,0],[3,0],[0]]","6","[[0,0,0],[1,2],[3]]","4","0","","","","","","7","","","","","","","","",""
"","","","","","single-stim-button","74","180904","0.0-2.0-22.6-0.6","64135983899b0b3fa3ddfab9","F1","batch6","","713","tol_tohand","","","","tol_peg_2","713","713","0","[[2,1,0],[0,0],[0]]","7","[[0,0,0],[1,2],[3]]","4","0","","","","","","7","","","","","","","","",""
"","","","","","single-stim-button","75","182536","0.0-2.0-22.6-1.6","64135983899b0b3fa3ddfab9","F1","batch6","","1631","tol_toboard","","","","tol_peg_3","1631","1631","0","[[2,1,0],[0,0],[3]]","7","[[0,0,0],[1,2],[3]]","4","0","","","","","","7","","","","","","","","",""
"","","","","","single-stim-button","76","183680","0.0-2.0-22.7-0.7","64135983899b0b3fa3ddfab9","F1","batch6","","1143","tol_tohand","","","","tol_peg_1","1143","1143","0","[[2,0,0],[0,0],[3]]","8","[[0,0,0],[1,2],[3]]","4","0","","","","","","7","","","","","","","","",""
"","","","","","single-stim-button","77","184571","0.0-2.0-22.7-1.7","64135983899b0b3fa3ddfab9","F1","batch6","","889","tol_toboard","","","","tol_peg_2","889","889","0","[[2,0,0],[1,0],[3]]","8","[[0,0,0],[1,2],[3]]","4","0","","","","","","7","","","","","","","","",""
"","","","","","single-stim-button","78","185201","0.0-2.0-22.8-0.8","64135983899b0b3fa3ddfab9","F1","batch6","","630","tol_tohand","","","","tol_peg_1","630","630","0","[[0,0,0],[1,0],[3]]","9","[[0,0,0],[1,2],[3]]","4","0","","","","","","7","","","","","","","","",""
"","","","","","single-stim-button","79","185795","0.0-2.0-22.8-1.8","64135983899b0b3fa3ddfab9","F1","batch6","","593","tol_toboard","","","","tol_peg_2","593","593","0","[[0,0,0],[1,2],[3]]","9","[[0,0,0],[1,2],[3]]","4","0","","","","","","7","","","","","","","","",""
"","","","","","poldrack-single-stim","80","186810","0.0-2.0-23.0","64135983899b0b3fa3ddfab9","F1","batch6","","-1","tol_feedback","","","true","","1000","1000","500","","","","","","-1","none","true","12039","35640","","","","","","","","","",""
"","","","","","html-button-response","81","187599","0.0-2.0-24.0","64135983899b0b3fa3ddfab9","F1","batch6","","786.6999999284744","tol_trial_num","<div class = centerbox><p class = center-block-text>problem <strong>6</strong> out of 25 problems</p></div>","0","","","","","","","","","","","","","","","","","","","","","","","","",""
"","","","","","single-stim-button","82","208857","0.0-2.0-25.0-0.0","64135983899b0b3fa3ddfab9","F1","batch6","","21257","tol_tohand","","","","tol_peg_2","21257","21257","0","[[0,0,0],[1,0],[3]]","1","[[1,0,0],[2,3],[0]]","5","0","","","","","","6","","","","","","","","",""
"","","","","","single-stim-button","83","209822","0.0-2.0-25.0-1.0","64135983899b0b3fa3ddfab9","F1","batch6","","965","tol_toboard","","","","tol_peg_1","965","965","0","[[2,0,0],[1,0],[3]]","1","[[1,0,0],[2,3],[0]]","5","0","","","","","","6","","","","","","","","",""
"","","","","","single-stim-button","84","211365","0.0-2.0-25.1-0.1","64135983899b0b3fa3ddfab9","F1","batch6","","1542","tol_tohand","","","","tol_peg_2","1542","1542","0","[[2,0,0],[0,0],[3]]","2","[[1,0,0],[2,3],[0]]","5","0","","","","","","6","","","","","","","","",""
"","","","","","single-stim-button","85","212331","0.0-2.0-25.1-1.1","64135983899b0b3fa3ddfab9","F1","batch6","","964","tol_toboard","","","","tol_peg_1","964","964","0","[[2,1,0],[0,0],[3]]","2","[[1,0,0],[2,3],[0]]","5","0","","","","","","6","","","","","","","","",""
"","","","","","single-stim-button","86","213295","0.0-2.0-25.2-0.2","64135983899b0b3fa3ddfab9","F1","batch6","","964","tol_tohand","","","","tol_peg_3","964","964","0","[[2,1,0],[0,0],[0]]","3","[[1,0,0],[2,3],[0]]","5","0","","","","","","6","","","","","","","","",""
"","","","","","single-stim-button","87","217695","0.0-2.0-25.2-1.2","64135983899b0b3fa3ddfab9","F1","batch6","","4399","tol_toboard","","","","tol_peg_2","4399","4399","0","[[2,1,0],[3,0],[0]]","3","[[1,0,0],[2,3],[0]]","5","0","","","","","","6","","","","","","","","",""
"","","","","","single-stim-button","88","220470","0.0-2.0-25.3-0.3","64135983899b0b3fa3ddfab9","F1","batch6","","2774","tol_tohand","","","","tol_peg_1","2774","2774","0","[[2,0,0],[3,0],[0]]","4","[[1,0,0],[2,3],[0]]","5","0","","","","","","6","","","","","","","","",""
"","","","","","single-stim-button","89","224292","0.0-2.0-25.3-1.3","64135983899b0b3fa3ddfab9","F1","batch6","","3821","tol_toboard","","","","tol_peg_3","3821","3821","0","[[2,0,0],[3,0],[1]]","4","[[1,0,0],[2,3],[0]]","5","0","","","","","","6","","","","","","","","",""
"","","","","","single-stim-button","90","231002","0.0-2.0-25.4-0.4","64135983899b0b3fa3ddfab9","F1","batch6","","6709","tol_tohand","","","","tol_peg_2","6709","6709","0","[[2,0,0],[0,0],[1]]","5","[[1,0,0],[2,3],[0]]","5","0","","","","","","6","","","","","","","","",""
"","","","","","single-stim-button","91","231818","0.0-2.0-25.4-1.4","64135983899b0b3fa3ddfab9","F1","batch6","","815","tol_toboard","","","","tol_peg_1","815","815","0","[[2,3,0],[0,0],[1]]","5","[[1,0,0],[2,3],[0]]","5","0","","","","","","6","","","","","","","","",""
"","","","","","single-stim-button","92","232589","0.0-2.0-25.5-0.5","64135983899b0b3fa3ddfab9","F1","batch6","","771","tol_tohand","","","","tol_peg_3","771","771","0","[[2,3,0],[0,0],[0]]","6","[[1,0,0],[2,3],[0]]","5","0","","","","","","6","","","","","","","","",""
"","","","","","single-stim-button","93","233606","0.0-2.0-25.5-1.5","64135983899b0b3fa3ddfab9","F1","batch6","","1015","tol_toboard","","","","tol_peg_2","1015","1015","0","[[2,3,0],[1,0],[0]]","6","[[1,0,0],[2,3],[0]]","5","0","","","","","","6","","","","","","","","",""
"","","","","","single-stim-button","94","234297","0.0-2.0-25.6-0.6","64135983899b0b3fa3ddfab9","F1","batch6","","691","tol_tohand","","","","tol_peg_1","691","691","0","[[2,0,0],[1,0],[0]]","7","[[1,0,0],[2,3],[0]]","5","0","","","","","","6","","","","","","","","",""
"","","","","","single-stim-button","95","235179","0.0-2.0-25.6-1.6","64135983899b0b3fa3ddfab9","F1","batch6","","880","tol_toboard","","","","tol_peg_3","880","880","0","[[2,0,0],[1,0],[3]]","7","[[1,0,0],[2,3],[0]]","5","0","","","","","","6","","","","","","","","",""
"","","","","","single-stim-button","96","256964","0.0-2.0-25.7-0.7","64135983899b0b3fa3ddfab9","F1","batch6","","21785","tol_tohand","","","","tol_peg_2","21785","21785","0","[[2,0,0],[0,0],[3]]","8","[[1,0,0],[2,3],[0]]","5","0","","","","","","6","","","","","","","","",""
"","","","","","single-stim-button","97","257884","0.0-2.0-25.7-1.7","64135983899b0b3fa3ddfab9","F1","batch6","","919","tol_toboard","","","","tol_peg_1","919","919","0","[[2,1,0],[0,0],[3]]","8","[[1,0,0],[2,3],[0]]","5","0","","","","","","6","","","","","","","","",""
"","","","","","single-stim-button","98","259369","0.0-2.0-25.8-0.8","64135983899b0b3fa3ddfab9","F1","batch6","","1483","tol_tohand","","","","tol_peg_3","1483","1483","0","[[2,1,0],[0,0],[0]]","9","[[1,0,0],[2,3],[0]]","5","0","","","","","","6","","","","","","","","",""
"","","","","","single-stim-button","99","260429","0.0-2.0-25.8-1.8","64135983899b0b3fa3ddfab9","F1","batch6","","1060","tol_toboard","","","","tol_peg_2","1060","1060","0","[[2,1,0],[3,0],[0]]","9","[[1,0,0],[2,3],[0]]","5","0","","","","","","6","","","","","","","","",""
"","","","","","single-stim-button","100","261337","0.0-2.0-25.9-0.9","64135983899b0b3fa3ddfab9","F1","batch6","","906","tol_tohand","","","","tol_peg_1","906","906","0","[[2,0,0],[3,0],[0]]","10","[[1,0,0],[2,3],[0]]","5","0","","","","","","6","","","","","","","","",""
"","","","","","single-stim-button","101","262323","0.0-2.0-25.9-1.9","64135983899b0b3fa3ddfab9","F1","batch6","","986","tol_toboard","","","","tol_peg_2","986","986","0","[[2,0,0],[3,1],[0]]","10","[[1,0,0],[2,3],[0]]","5","0","","","","","","6","","","","","","","","",""
"","","","","","single-stim-button","102","263850","0.0-2.0-25.10-0.10","64135983899b0b3fa3ddfab9","F1","batch6","","1526","tol_tohand","","","","tol_peg_1","1526","1526","0","[[0,0,0],[3,1],[0]]","11","[[1,0,0],[2,3],[0]]","5","0","","","","","","6","","","","","","","","",""
"","","","","","single-stim-button","103","265143","0.0-2.0-25.10-1.10","64135983899b0b3fa3ddfab9","F1","batch6","","1292","tol_toboard","","","","tol_peg_3","1292","1292","0","[[0,0,0],[3,1],[2]]","11","[[1,0,0],[2,3],[0]]","5","0","","","","","","6","","","","","","","","",""
"","","","","","single-stim-button","104","266507","0.0-2.0-25.11-0.11","64135983899b0b3fa3ddfab9","F1","batch6","","1363","tol_tohand","","","","tol_peg_2","1363","1363","0","[[0,0,0],[3,0],[2]]","12","[[1,0,0],[2,3],[0]]","5","0","","","","","","6","","","","","","","","",""
"","","","","","single-stim-button","105","267463","0.0-2.0-25.11-1.11","64135983899b0b3fa3ddfab9","F1","batch6","","956","tol_toboard","","","","tol_peg_1","956","956","0","[[1,0,0],[3,0],[2]]","12","[[1,0,0],[2,3],[0]]","5","0","","","","","","6","","","","","","","","",""
"","","","","","single-stim-button","106","268259","0.0-2.0-25.12-0.12","64135983899b0b3fa3ddfab9","F1","batch6","","794","tol_tohand","","","","tol_peg_2","794","794","0","[[1,0,0],[0,0],[2]]","13","[[1,0,0],[2,3],[0]]","5","0","","","","","","6","","","","","","","","",""
"","","","","","single-stim-button","107","269319","0.0-2.0-25.12-1.12","64135983899b0b3fa3ddfab9","F1","batch6","","1059","tol_toboard","","","","tol_peg_1","1059","1059","0","[[1,3,0],[0,0],[2]]","13","[[1,0,0],[2,3],[0]]","5","0","","","","","","6","","","","","","","","",""
"","","","","","single-stim-button","108","270374","0.0-2.0-25.13-0.13","64135983899b0b3fa3ddfab9","F1","batch6","","1055","tol_tohand","","","","tol_peg_3","1055","1055","0","[[1,3,0],[0,0],[0]]","14","[[1,0,0],[2,3],[0]]","5","0","","","","","","6","","","","","","","","",""
"","","","","","single-stim-button","109","271144","0.0-2.0-25.13-1.13","64135983899b0b3fa3ddfab9","F1","batch6","","769","tol_toboard","","","","tol_peg_2","769","769","0","[[1,3,0],[2,0],[0]]","14","[[1,0,0],[2,3],[0]]","5","0","","","","","","6","","","","","","","","",""
"","","","","","single-stim-button","110","271880","0.0-2.0-25.14-0.14","64135983899b0b3fa3ddfab9","F1","batch6","","736","tol_tohand","","","","tol_peg_1","736","736","0","[[1,0,0],[2,0],[0]]","15","[[1,0,0],[2,3],[0]]","5","0","","","","","","6","","","","","","","","",""
"","","","","","single-stim-button","111","272540","0.0-2.0-25.14-1.14","64135983899b0b3fa3ddfab9","F1","batch6","","660","tol_toboard","","","","tol_peg_2","660","660","0","[[1,0,0],[2,3],[0]]","15","[[1,0,0],[2,3],[0]]","5","0","","","","","","6","","","","","","","","",""
"","","","","","poldrack-single-stim","112","273542","0.0-2.0-26.0","64135983899b0b3fa3ddfab9","F1","batch6","","-1","tol_feedback","","","true","","1000","1000","500","","","","","","-1","none","true","21257","64356","","","","","","","","","",""
"","","","","","html-button-response","113","274299","0.0-2.0-27.0","64135983899b0b3fa3ddfab9","F1","batch6","","756.2000000476837","tol_trial_num","<div class = centerbox><p class = center-block-text>problem <strong>7</strong> out of 25 problems</p></div>","0","","","","","","","","","","","","","","","","","","","","","","","","",""
"","","","","","single-stim-button","114","283884","0.0-2.0-28.0-0.0","64135983899b0b3fa3ddfab9","F1","batch6","","9584","tol_tohand","","","","tol_peg_1","9584","9584","0","[[2,0,0],[0,0],[3]]","1","[[1,2,0],[3,0],[0]]","6","0","","","","","","5","","","","","","","","",""
"","","","","","single-stim-button","115","285114","0.0-2.0-28.0-1.0","64135983899b0b3fa3ddfab9","F1","batch6","","1229","tol_toboard","","","","tol_peg_2","1229","1229","0","[[2,0,0],[1,0],[3]]","1","[[1,2,0],[3,0],[0]]","6","0","","","","","","5","","","","","","","","",""
"","","","","","single-stim-button","116","286776","0.0-2.0-28.1-0.1","64135983899b0b3fa3ddfab9","F1","batch6","","1661","tol_tohand","","","","tol_peg_3","1661","1661","0","[[2,0,0],[1,0],[0]]","2","[[1,2,0],[3,0],[0]]","6","0","","","","","","5","","","","","","","","",""
"","","","","","single-stim-button","117","300912","0.0-2.0-28.1-1.1","64135983899b0b3fa3ddfab9","F1","batch6","","14134","tol_toboard","","","","tol_peg_1","14134","14134","0","[[2,3,0],[1,0],[0]]","2","[[1,2,0],[3,0],[0]]","6","0","","","","","","5","","","","","","","","",""
"","","","","","single-stim-button","118","302128","0.0-2.0-28.2-0.2","64135983899b0b3fa3ddfab9","F1","batch6","","1216","tol_tohand","","","","tol_peg_1","1216","1216","0","[[2,0,0],[1,0],[0]]","3","[[1,2,0],[3,0],[0]]","6","0","","","","","","5","","","","","","","","",""
"","","","","","single-stim-button","119","303597","0.0-2.0-28.2-1.2","64135983899b0b3fa3ddfab9","F1","batch6","","1469","tol_toboard","","","","tol_peg_3","1469","1469","0","[[2,0,0],[1,0],[3]]","3","[[1,2,0],[3,0],[0]]","6","0","","","","","","5","","","","","","","","",""
"","","","","","single-stim-button","120","304626","0.0-2.0-28.3-0.3","64135983899b0b3fa3ddfab9","F1","batch6","","1029","tol_tohand","","","","tol_peg_2","1029","1029","0","[[2,0,0],[0,0],[3]]","4","[[1,2,0],[3,0],[0]]","6","0","","","","","","5","","","","","","","","",""
"","","","","","single-stim-button","121","305547","0.0-2.0-28.3-1.3","64135983899b0b3fa3ddfab9","F1","batch6","","919","tol_toboard","","","","tol_peg_1","919","919","0","[[2,1,0],[0,0],[3]]","4","[[1,2,0],[3,0],[0]]","6","0","","","","","","5","","","","","","","","",""
"","","","","","single-stim-button","122","306513","0.0-2.0-28.4-0.4","64135983899b0b3fa3ddfab9","F1","batch6","","966","tol_tohand","","","","tol_peg_3","966","966","0","[[2,1,0],[0,0],[0]]","5","[[1,2,0],[3,0],[0]]","6","0","","","","","","5","","","","","","","","",""
"","","","","","single-stim-button","123","307661","0.0-2.0-28.4-1.4","64135983899b0b3fa3ddfab9","F1","batch6","","1147","tol_toboard","","","","tol_peg_2","1147","1147","0","[[2,1,0],[3,0],[0]]","5","[[1,2,0],[3,0],[0]]","6","0","","","","","","5","","","","","","","","",""
"","","","","","single-stim-button","124","308878","0.0-2.0-28.5-0.5","64135983899b0b3fa3ddfab9","F1","batch6","","1215","tol_tohand","","","","tol_peg_1","1215","1215","0","[[2,0,0],[3,0],[0]]","6","[[1,2,0],[3,0],[0]]","6","0","","","","","","5","","","","","","","","",""
"","","","","","single-stim-button","125","309627","0.0-2.0-28.5-1.5","64135983899b0b3fa3ddfab9","F1","batch6","","748","tol_toboard","","","","tol_peg_3","748","748","0","[[2,0,0],[3,0],[1]]","6","[[1,2,0],[3,0],[0]]","6","0","","","","","","5","","","","","","","","",""
"","","","","","single-stim-button","126","310667","0.0-2.0-28.6-0.6","64135983899b0b3fa3ddfab9","F1","batch6","","1040","tol_tohand","","","","tol_peg_1","1040","1040","0","[[0,0,0],[3,0],[1]]","7","[[1,2,0],[3,0],[0]]","6","0","","","","","","5","","","","","","","","",""
"","","","","","single-stim-button","127","311402","0.0-2.0-28.6-1.6","64135983899b0b3fa3ddfab9","F1","batch6","","735","tol_toboard","","","","tol_peg_2","735","735","0","[[0,0,0],[3,2],[1]]","7","[[1,2,0],[3,0],[0]]","6","0","","","","","","5","","","","","","","","",""
"","","","","","single-stim-button","128","312164","0.0-2.0-28.7-0.7","64135983899b0b3fa3ddfab9","F1","batch6","","762","tol_tohand","","","","tol_peg_3","762","762","0","[[0,0,0],[3,2],[0]]","8","[[1,2,0],[3,0],[0]]","6","0","","","","","","5","","","","","","","","",""
"","","","","","single-stim-button","129","313746","0.0-2.0-28.7-1.7","64135983899b0b3fa3ddfab9","F1","batch6","","1581","tol_toboard","","","","tol_peg_1","1581","1581","0","[[1,0,0],[3,2],[0]]","8","[[1,2,0],[3,0],[0]]","6","0","","","","","","5","","","","","","","","",""
"","","","","","single-stim-button","130","314457","0.0-2.0-28.8-0.8","64135983899b0b3fa3ddfab9","F1","batch6","","710","tol_tohand","","","","tol_peg_2","710","710","0","[[1,0,0],[3,0],[0]]","9","[[1,2,0],[3,0],[0]]","6","0","","","","","","5","","","","","","","","",""
"","","","","","single-stim-button","131","315221","0.0-2.0-28.8-1.8","64135983899b0b3fa3ddfab9","F1","batch6","","763","tol_toboard","","","","tol_peg_1","763","763","0","[[1,2,0],[3,0],[0]]","9","[[1,2,0],[3,0],[0]]","6","0","","","","","","5","","","","","","","","",""
"","","","","","poldrack-single-stim","132","316230","0.0-2.0-29.0","64135983899b0b3fa3ddfab9","F1","batch6","","-1","tol_feedback","","","true","","1000","1000","500","","","","","","-1","none","true","9584","18183","","","","","","","","","",""
"","","","","","html-button-response","133","317239","0.0-2.0-30.0","64135983899b0b3fa3ddfab9","F1","batch6","","1007.9000000953674","tol_trial_num","<div class = centerbox><p class = center-block-text>problem <strong>8</strong> out of 25 problems</p></div>","0","","","","","","","","","","","","","","","","","","","","","","","","",""
"","","","","","single-stim-button","134","331300","0.0-2.0-31.0-0.0","64135983899b0b3fa3ddfab9","F1","batch6","","14061","tol_tohand","","","","tol_peg_2","14061","14061","0","[[0,0,0],[2,0],[1]]","1","[[1,2,0],[3,0],[0]]","7","0","","","","","","4","","","","","","","","",""
"","","","","","single-stim-button","135","332168","0.0-2.0-31.0-1.0","64135983899b0b3fa3ddfab9","F1","batch6","","868","tol_toboard","","","","tol_peg_1","868","868","0","[[3,0,0],[2,0],[1]]","1","[[1,2,0],[3,0],[0]]","7","0","","","","","","4","","","","","","","","",""
"","","","","","single-stim-button","136","332866","0.0-2.0-31.1-0.1","64135983899b0b3fa3ddfab9","F1","batch6","","697","tol_tohand","","","","tol_peg_3","697","697","0","[[3,0,0],[2,0],[0]]","2","[[1,2,0],[3,0],[0]]","7","0","","","","","","4","","","","","","","","",""
"","","","","","single-stim-button","137","333635","0.0-2.0-31.1-1.1","64135983899b0b3fa3ddfab9","F1","batch6","","769","tol_toboard","","","","tol_peg_2","769","769","0","[[3,0,0],[2,1],[0]]","2","[[1,2,0],[3,0],[0]]","7","0","","","","","","4","","","","","","","","",""
"","","","","","single-stim-button","138","334423","0.0-2.0-31.2-0.2","64135983899b0b3fa3ddfab9","F1","batch6","","786","tol_tohand","","","","tol_peg_1","786","786","0","[[0,0,0],[2,1],[0]]","3","[[1,2,0],[3,0],[0]]","7","0","","","","","","4","","","","","","","","",""
"","","","","","single-stim-button","139","335535","0.0-2.0-31.2-1.2","64135983899b0b3fa3ddfab9","F1","batch6","","1112","tol_toboard","","","","tol_peg_3","1112","1112","0","[[0,0,0],[2,1],[3]]","3","[[1,2,0],[3,0],[0]]","7","0","","","","","","4","","","","","","","","",""
"","","","","","single-stim-button","140","336522","0.0-2.0-31.3-0.3","64135983899b0b3fa3ddfab9","F1","batch6","","986","tol_tohand","","","","tol_peg_2","986","986","0","[[0,0,0],[2,0],[3]]","4","[[1,2,0],[3,0],[0]]","7","0","","","","","","4","","","","","","","","",""
"","","","","","single-stim-button","141","337294","0.0-2.0-31.3-1.3","64135983899b0b3fa3ddfab9","F1","batch6","","771","tol_toboard","","","","tol_peg_1","771","771","0","[[1,0,0],[2,0],[3]]","4","[[1,2,0],[3,0],[0]]","7","0","","","","","","4","","","","","","","","",""
"","","","","","single-stim-button","142","338095","0.0-2.0-31.4-0.4","64135983899b0b3fa3ddfab9","F1","batch6","","800","tol_tohand","","","","tol_peg_2","800","800","0","[[1,0,0],[0,0],[3]]","5","[[1,2,0],[3,0],[0]]","7","0","","","","","","4","","","","","","","","",""
"","","","","","single-stim-button","143","338688","0.0-2.0-31.4-1.4","64135983899b0b3fa3ddfab9","F1","batch6","","592","tol_toboard","","","","tol_peg_1","592","592","0","[[1,2,0],[0,0],[3]]","5","[[1,2,0],[3,0],[0]]","7","0","","","","","","4","","","","","","","","",""
"","","","","","single-stim-button","144","339489","0.0-2.0-31.5-0.5","64135983899b0b3fa3ddfab9","F1","batch6","","801","tol_tohand","","","","tol_peg_3","801","801","0","[[1,2,0],[0,0],[0]]","6","[[1,2,0],[3,0],[0]]","7","0","","","","","","4","","","","","","","","",""
"","","","","","single-stim-button","145","340765","0.0-2.0-31.5-1.5","64135983899b0b3fa3ddfab9","F1","batch6","","1275","tol_toboard","","","","tol_peg_2","1275","1275","0","[[1,2,0],[3,0],[0]]","6","[[1,2,0],[3,0],[0]]","7","0","","","","","","4","","","","","","","","",""
"","","","","","poldrack-single-stim","146","341772","0.0-2.0-32.0","64135983899b0b3fa3ddfab9","F1","batch6","","-1","tol_feedback","","","true","","1000","1000","500","","","","","","-1","none","true","14061","18131","","","","","","","","","",""
"","","","","","html-button-response","147","342649","0.0-2.0-33.0","64135983899b0b3fa3ddfab9","F1","batch6","","875.3000000715256","tol_trial_num","<div class = centerbox><p class = center-block-text>problem <strong>9</strong> out of 25 problems</p></div>","0","","","","","","","","","","","","","","","","","","","","","","","","",""
"","","","","","single-stim-button","148","355839","0.0-2.0-34.0-0.0","64135983899b0b3fa3ddfab9","F1","batch6","","13189","tol_tohand","","","","tol_peg_3","13189","13189","0","[[3,2,0],[0,0],[0]]","1","[[2,1,0],[3,0],[0]]","8","0","","","","","","6","","","","","","","","",""
"","","","","","single-stim-button","149","356810","0.0-2.0-34.0-1.0","64135983899b0b3fa3ddfab9","F1","batch6","","971","tol_toboard","","","","tol_peg_2","971","971","0","[[3,2,0],[1,0],[0]]","1","[[2,1,0],[3,0],[0]]","8","0","","","","","","6","","","","","","","","",""
"","","","","","single-stim-button","150","358018","0.0-2.0-34.1-0.1","64135983899b0b3fa3ddfab9","F1","batch6","","1207","tol_tohand","","","","tol_peg_1","1207","1207","0","[[3,0,0],[1,0],[0]]","2","[[2,1,0],[3,0],[0]]","8","0","","","","","","6","","","","","","","","",""
"","","","","","single-stim-button","151","358694","0.0-2.0-34.1-1.1","64135983899b0b3fa3ddfab9","F1","batch6","","676","tol_toboard","","","","tol_peg_2","676","676","0","[[3,0,0],[1,2],[0]]","2","[[2,1,0],[3,0],[0]]","8","0","","","","","","6","","","","","","","","",""
"","","","","","single-stim-button","152","359555","0.0-2.0-34.2-0.2","64135983899b0b3fa3ddfab9","F1","batch6","","859","tol_tohand","","","","tol_peg_1","859","859","0","[[0,0,0],[1,2],[0]]","3","[[2,1,0],[3,0],[0]]","8","0","","","","","","6","","","","","","","","",""
"","","","","","single-stim-button","153","360733","0.0-2.0-34.2-1.2","64135983899b0b3fa3ddfab9","F1","batch6","","1178","tol_toboard","","","","tol_peg_3","1178","1178","0","[[0,0,0],[1,2],[3]]","3","[[2,1,0],[3,0],[0]]","8","0","","","","","","6","","","","","","","","",""
"","","","","","single-stim-button","154","361700","0.0-2.0-34.3-0.3","64135983899b0b3fa3ddfab9","F1","batch6","","965","tol_tohand","","","","tol_peg_2","965","965","0","[[0,0,0],[1,0],[3]]","4","[[2,1,0],[3,0],[0]]","8","0","","","","","","6","","","","","","","","",""
"","","","","","single-stim-button","155","362462","0.0-2.0-34.3-1.3","64135983899b0b3fa3ddfab9","F1","batch6","","762","tol_toboard","","","","tol_peg_1","762","762","0","[[2,0,0],[1,0],[3]]","4","[[2,1,0],[3,0],[0]]","8","0","","","","","","6","","","","","","","","",""
"","","","","","single-stim-button","156","363183","0.0-2.0-34.4-0.4","64135983899b0b3fa3ddfab9","F1","batch6","","719","tol_tohand","","","","tol_peg_2","719","719","0","[[2,0,0],[0,0],[3]]","5","[[2,1,0],[3,0],[0]]","8","0","","","","","","6","","","","","","","","",""
"","","","","","single-stim-button","157","363814","0.0-2.0-34.4-1.4","64135983899b0b3fa3ddfab9","F1","batch6","","630","tol_toboard","","","","tol_peg_1","630","630","0","[[2,1,0],[0,0],[3]]","5","[[2,1,0],[3,0],[0]]","8","0","","","","","","6","","","","","","","","",""
"","","","","","single-stim-button","158","364822","0.0-2.0-34.5-0.5","64135983899b0b3fa3ddfab9","F1","batch6","","1008","tol_tohand","","","","tol_peg_3","1008","1008","0","[[2,1,0],[0,0],[0]]","6","[[2,1,0],[3,0],[0]]","8","0","","","","","","6","","","","","","","","",""
"","","","","","single-stim-button","159","366141","0.0-2.0-34.5-1.5","64135983899b0b3fa3ddfab9","F1","batch6","","1319","tol_toboard","","","","tol_peg_2","1319","1319","0","[[2,1,0],[3,0],[0]]","6","[[2,1,0],[3,0],[0]]","8","0","","","","","","6","","","","","","","","",""
"","","","","","poldrack-single-stim","160","367153","0.0-2.0-35.0","64135983899b0b3fa3ddfab9","F1","batch6","","-1","tol_feedback","","","true","","1000","1000","500","","","","","","-1","none","true","13189","17947","","","","","","","","","",""
"","","","","","html-button-response","161","367899","0.0-2.0-36.0","64135983899b0b3fa3ddfab9","F1","batch6","","744.2000000476837","tol_trial_num","<div class = centerbox><p class = center-block-text>problem <strong>10</strong> out of 25 problems</p></div>","0","","","","","","","","","","","","","","","","","","","","","","","","",""
"","","","","","single-stim-button","162","372705","0.0-2.0-37.0-0.0","64135983899b0b3fa3ddfab9","F1","batch6","","4806","tol_tohand","","","","tol_peg_2","4806","4806","0","[[3,0,0],[0,0],[2]]","1","[[3,0,0],[2,1],[0]]","9","0","","","","","","3","","","","","","","","",""
"","","","","","single-stim-button","163","373543","0.0-2.0-37.0-1.0","64135983899b0b3fa3ddfab9","F1","batch6","","838","tol_toboard","","","","tol_peg_1","838","838","0","[[3,1,0],[0,0],[2]]","1","[[3,0,0],[2,1],[0]]","9","0","","","","","","3","","","","","","","","",""
"","","","","","single-stim-button","164","374359","0.0-2.0-37.1-0.1","64135983899b0b3fa3ddfab9","F1","batch6","","815","tol_tohand","","","","tol_peg_3","815","815","0","[[3,1,0],[0,0],[0]]","2","[[3,0,0],[2,1],[0]]","9","0","","","","","","3","","","","","","","","",""
"","","","","","single-stim-button","165","375405","0.0-2.0-37.1-1.1","64135983899b0b3fa3ddfab9","F1","batch6","","1046","tol_toboard","","","","tol_peg_2","1046","1046","0","[[3,1,0],[2,0],[0]]","2","[[3,0,0],[2,1],[0]]","9","0","","","","","","3","","","","","","","","",""
"","","","","","single-stim-button","166","376132","0.0-2.0-37.2-0.2","64135983899b0b3fa3ddfab9","F1","batch6","","727","tol_tohand","","","","tol_peg_1","727","727","0","[[3,0,0],[2,0],[0]]","3","[[3,0,0],[2,1],[0]]","9","0","","","","","","3","","","","","","","","",""
"","","","","","single-stim-button","167","377052","0.0-2.0-37.2-1.2","64135983899b0b3fa3ddfab9","F1","batch6","","919","tol_toboard","","","","tol_peg_2","919","919","0","[[3,0,0],[2,1],[0]]","3","[[3,0,0],[2,1],[0]]","9","0","","","","","","3","","","","","","","","",""
"","","","","","poldrack-single-stim","168","378054","0.0-2.0-38.0","64135983899b0b3fa3ddfab9","F1","batch6","","-1","tol_feedback","","","true","","1000","1000","500","","","","","","-1","none","true","4806","6348","","","","","","","","","",""
"","","","","","html-button-response","169","378840","0.0-2.0-39.0","64135983899b0b3fa3ddfab9","F1","batch6","","784.6999999284744","tol_trial_num","<div class = centerbox><p class = center-block-text>problem <strong>11</strong> out of 25 problems</p></div>","0","","","","","","","","","","","","","","","","","","","","","","","","",""
"","","","","","single-stim-button","170","412231","0.0-2.0-40.0-0.0","64135983899b0b3fa3ddfab9","F1","batch6","","33390","tol_tohand","","","","tol_peg_2","33390","33390","0","[[1,2,0],[0,0],[0]]","1","[[2,0,0],[1,3],[0]]","10","0","","","","","","6","","","","","","","","",""
"","","","","","single-stim-button","171","414693","0.0-2.0-40.0-1.0","64135983899b0b3fa3ddfab9","F1","batch6","","2461","tol_toboard","","","","tol_peg_3","2461","2461","0","[[1,2,0],[0,0],[3]]","1","[[2,0,0],[1,3],[0]]","10","0","","","","","","6","","","","","","","","",""
"","","","","","single-stim-button","172","415687","0.0-2.0-40.1-0.1","64135983899b0b3fa3ddfab9","F1","batch6","","993","tol_tohand","","","","tol_peg_1","993","993","0","[[1,0,0],[0,0],[3]]","2","[[2,0,0],[1,3],[0]]","10","0","","","","","","6","","","","","","","","",""
"","","","","","single-stim-button","173","416547","0.0-2.0-40.1-1.1","64135983899b0b3fa3ddfab9","F1","batch6","","860","tol_toboard","","","","tol_peg_2","860","860","0","[[1,0,0],[2,0],[3]]","2","[[2,0,0],[1,3],[0]]","10","0","","","","","","6","","","","","","","","",""
"","","","","","single-stim-button","174","419492","0.0-2.0-40.2-0.2","64135983899b0b3fa3ddfab9","F1","batch6","","2943","tol_tohand","","","","tol_peg_3","2943","2943","0","[[1,0,0],[2,0],[0]]","3","[[2,0,0],[1,3],[0]]","10","0","","","","","","6","","","","","","","","",""
"","","","","","single-stim-button","175","420322","0.0-2.0-40.2-1.2","64135983899b0b3fa3ddfab9","F1","batch6","","830","tol_toboard","","","","tol_peg_2","830","830","0","[[1,0,0],[2,3],[0]]","3","[[2,0,0],[1,3],[0]]","10","0","","","","","","6","","","","","","","","",""
"","","","","","single-stim-button","176","421160","0.0-2.0-40.3-0.3","64135983899b0b3fa3ddfab9","F1","batch6","","837","tol_tohand","","","","tol_peg_1","837","837","0","[[0,0,0],[2,3],[0]]","4","[[2,0,0],[1,3],[0]]","10","0","","","","","","6","","","","","","","","",""
"","","","","","single-stim-button","177","423563","0.0-2.0-40.3-1.3","64135983899b0b3fa3ddfab9","F1","batch6","","2402","tol_toboard","","","","tol_peg_3","2402","2402","0","[[0,0,0],[2,3],[1]]","4","[[2,0,0],[1,3],[0]]","10","0","","","","","","6","","","","","","","","",""
"","","","","","single-stim-button","178","428733","0.0-2.0-40.4-0.4","64135983899b0b3fa3ddfab9","F1","batch6","","5169","tol_tohand","","","","tol_peg_2","5169","5169","0","[[0,0,0],[2,0],[1]]","5","[[2,0,0],[1,3],[0]]","10","0","","","","","","6","","","","","","","","",""
"","","","","","single-stim-button","179","430047","0.0-2.0-40.4-1.4","64135983899b0b3fa3ddfab9","F1","batch6","","1313","tol_toboard","","","","tol_peg_1","1313","1313","0","[[3,0,0],[2,0],[1]]","5","[[2,0,0],[1,3],[0]]","10","0","","","","","","6","","","","","","","","",""
"","","","","","single-stim-button","180","430788","0.0-2.0-40.5-0.5","64135983899b0b3fa3ddfab9","F1","batch6","","740","tol_tohand","","","","tol_peg_2","740","740","0","[[3,0,0],[0,0],[1]]","6","[[2,0,0],[1,3],[0]]","10","0","","","","","","6","","","","","","","","",""
"","","","","","single-stim-button","181","431588","0.0-2.0-40.5-1.5","64135983899b0b3fa3ddfab9","F1","batch6","","800","tol_toboard","","","","tol_peg_1","800","800","0","[[3,2,0],[0,0],[1]]","6","[[2,0,0],[1,3],[0]]","10","0","","","","","","6","","","","","","","","",""
"","","","","","single-stim-button","182","432301","0.0-2.0-40.6-0.6","64135983899b0b3fa3ddfab9","F1","batch6","","712","tol_tohand","","","","tol_peg_3","712","712","0","[[3,2,0],[0,0],[0]]","7","[[2,0,0],[1,3],[0]]","10","0","","","","","","6","","","","","","","","",""
"","","","","","single-stim-button","183","433865","0.0-2.0-40.6-1.6","64135983899b0b3fa3ddfab9","F1","batch6","","1564","tol_toboard","","","","tol_peg_2","1564","1564","0","[[3,2,0],[1,0],[0]]","7","[[2,0,0],[1,3],[0]]","10","0","","","","","","6","","","","","","","","",""
"","","","","","single-stim-button","184","435215","0.0-2.0-40.7-0.7","64135983899b0b3fa3ddfab9","F1","batch6","","1348","tol_tohand","","","","tol_peg_1","1348","1348","0","[[3,0,0],[1,0],[0]]","8","[[2,0,0],[1,3],[0]]","10","0","","","","","","6","","","","","","","","",""
"","","","","","single-stim-button","185","436373","0.0-2.0-40.7-1.7","64135983899b0b3fa3ddfab9","F1","batch6","","1157","tol_toboard","","","","tol_peg_2","1157","1157","0","[[3,0,0],[1,2],[0]]","8","[[2,0,0],[1,3],[0]]","10","0","","","","","","6","","","","","","","","",""
"","","","","","single-stim-button","186","437099","0.0-2.0-40.8-0.8","64135983899b0b3fa3ddfab9","F1","batch6","","725","tol_tohand","","","","tol_peg_1","725","725","0","[[0,0,0],[1,2],[0]]","9","[[2,0,0],[1,3],[0]]","10","0","","","","","","6","","","","","","","","",""
"","","","","","single-stim-button","187","438530","0.0-2.0-40.8-1.8","64135983899b0b3fa3ddfab9","F1","batch6","","1431","tol_toboard","","","","tol_peg_3","1431","1431","0","[[0,0,0],[1,2],[3]]","9","[[2,0,0],[1,3],[0]]","10","0","","","","","","6","","","","","","","","",""
"","","","","","single-stim-button","188","439249","0.0-2.0-40.9-0.9","64135983899b0b3fa3ddfab9","F1","batch6","","719","tol_tohand","","","","tol_peg_2","719","719","0","[[0,0,0],[1,0],[3]]","10","[[2,0,0],[1,3],[0]]","10","0","","","","","","6","","","","","","","","",""
"","","","","","single-stim-button","189","440162","0.0-2.0-40.9-1.9","64135983899b0b3fa3ddfab9","F1","batch6","","911","tol_toboard","","","","tol_peg_1","911","911","0","[[2,0,0],[1,0],[3]]","10","[[2,0,0],[1,3],[0]]","10","0","","","","","","6","","","","","","","","",""
"","","","","","single-stim-button","190","440266","0.0-2.0-40.10-0.10","64135983899b0b3fa3ddfab9","F1","batch6","","104","tol_tohand","","","","tol_peg_1","104","104","0","[[0,0,0],[1,0],[3]]","11","[[2,0,0],[1,3],[0]]","10","0","","","","","","6","","","","","","","","",""
"","","","","","single-stim-button","191","441971","0.0-2.0-40.10-1.10","64135983899b0b3fa3ddfab9","F1","batch6","","1705","tol_toboard","","","","tol_peg_1","1705","1705","0","[[2,0,0],[1,0],[3]]","11","[[2,0,0],[1,3],[0]]","10","0","","","","","","6","","","","","","","","",""
"","","","","","single-stim-button","192","443276","0.0-2.0-40.11-0.11","64135983899b0b3fa3ddfab9","F1","batch6","","1304","tol_tohand","","","","tol_peg_3","1304","1304","0","[[2,0,0],[1,0],[0]]","12","[[2,0,0],[1,3],[0]]","10","0","","","","","","6","","","","","","","","",""
"","","","","","single-stim-button","193","444040","0.0-2.0-40.11-1.11","64135983899b0b3fa3ddfab9","F1","batch6","","762","tol_toboard","","","","tol_peg_2","762","762","0","[[2,0,0],[1,3],[0]]","12","[[2,0,0],[1,3],[0]]","10","0","","","","","","6","","","","","","","","",""
"","","","","","poldrack-single-stim","194","445042","0.0-2.0-41.0","64135983899b0b3fa3ddfab9","F1","batch6","","-1","tol_feedback","","","true","","1000","1000","500","","","","","","-1","none","true","33390","48984","","","","","","","","","",""
"","","","","","html-button-response","195","446168","0.0-2.0-42.0","64135983899b0b3fa3ddfab9","F1","batch6","","1124.3999999761581","tol_trial_num","<div class = centerbox><p class = center-block-text>problem <strong>12</strong> out of 25 problems</p></div>","0","","","","","","","","","","","","","","","","","","","","","","","","",""
"","","","","","single-stim-button","196","454393","0.0-2.0-43.0-0.0","64135983899b0b3fa3ddfab9","F1","batch6","","8224","tol_tohand","","","","tol_peg_1","8224","8224","0","[[1,0,0],[3,0],[0]]","1","[[2,3,0],[0,0],[1]]","11","0","","","","","","4","","","","","","","","",""
"","","","","","single-stim-button","197","456246","0.0-2.0-43.0-1.0","64135983899b0b3fa3ddfab9","F1","batch6","","1852","tol_toboard","","","","tol_peg_3","1852","1852","0","[[1,0,0],[3,0],[2]]","1","[[2,3,0],[0,0],[1]]","11","0","","","","","","4","","","","","","","","",""
"","","","","","single-stim-button","198","457212","0.0-2.0-43.1-0.1","64135983899b0b3fa3ddfab9","F1","batch6","","965","tol_tohand","","","","tol_peg_1","965","965","0","[[0,0,0],[3,0],[2]]","2","[[2,3,0],[0,0],[1]]","11","0","","","","","","4","","","","","","","","",""
"","","","","","single-stim-button","199","457767","0.0-2.0-43.1-1.1","64135983899b0b3fa3ddfab9","F1","batch6","","554","tol_toboard","","","","tol_peg_2","554","554","0","[[0,0,0],[3,1],[2]]","2","[[2,3,0],[0,0],[1]]","11","0","","","","","","4","","","","","","","","",""
"","","","","","single-stim-button","200","458375","0.0-2.0-43.2-0.2","64135983899b0b3fa3ddfab9","F1","batch6","","607","tol_tohand","","","","tol_peg_3","607","607","0","[[0,0,0],[3,1],[0]]","3","[[2,3,0],[0,0],[1]]","11","0","","","","","","4","","","","","","","","",""
"","","","","","single-stim-button","201","459806","0.0-2.0-43.2-1.2","64135983899b0b3fa3ddfab9","F1","batch6","","1431","tol_toboard","","","","tol_peg_1","1431","1431","0","[[2,0,0],[3,1],[0]]","3","[[2,3,0],[0,0],[1]]","11","0","","","","","","4","","","","","","","","",""
"","","","","","single-stim-button","202","460682","0.0-2.0-43.3-0.3","64135983899b0b3fa3ddfab9","F1","batch6","","875","tol_tohand","","","","tol_peg_2","875","875","0","[[2,0,0],[3,0],[0]]","4","[[2,3,0],[0,0],[1]]","11","0","","","","","","4","","","","","","","","",""
"","","","","","single-stim-button","203","461586","0.0-2.0-43.3-1.3","64135983899b0b3fa3ddfab9","F1","batch6","","902","tol_toboard","","","","tol_peg_3","902","902","0","[[2,0,0],[3,0],[1]]","4","[[2,3,0],[0,0],[1]]","11","0","","","","","","4","","","","","","","","",""
"","","","","","single-stim-button","204","462506","0.0-2.0-43.4-0.4","64135983899b0b3fa3ddfab9","F1","batch6","","920","tol_tohand","","","","tol_peg_2","920","920","0","[[2,0,0],[0,0],[1]]","5","[[2,3,0],[0,0],[1]]","11","0","","","","","","4","","","","","","","","",""
"","","","","","single-stim-button","205","463261","0.0-2.0-43.4-1.4","64135983899b0b3fa3ddfab9","F1","batch6","","755","tol_toboard","","","","tol_peg_1","755","755","0","[[2,3,0],[0,0],[1]]","5","[[2,3,0],[0,0],[1]]","11","0","","","","","","4","","","","","","","","",""
"","","","","","poldrack-single-stim","206","464278","0.0-2.0-44.0","64135983899b0b3fa3ddfab9","F1","batch6","","-1","tol_feedback","","","true","","1000","1000","500","","","","","","-1","none","true","8224","11591","","","","","","","","","",""
"","","","","","html-button-response","207","465167","0.0-2.0-45.0","64135983899b0b3fa3ddfab9","F1","batch6","","887.2999999523163","tol_trial_num","<div class = centerbox><p class = center-block-text>problem <strong>13</strong> out of 25 problems</p></div>","0","","","","","","","","","","","","","","","","","","","","","","","","",""
"","","","","","single-stim-button","208","493841","0.0-2.0-46.0-0.0","64135983899b0b3fa3ddfab9","F1","batch6","","28673","tol_tohand","","","","tol_peg_1","28673","28673","0","[[1,0,0],[3,0],[0]]","1","[[0,0,0],[2,3],[1]]","12","0","","","","","","4","","","","","","","","",""
"","","","","","single-stim-button","209","495295","0.0-2.0-46.0-1.0","64135983899b0b3fa3ddfab9","F1","batch6","","1452","tol_toboard","","","","tol_peg_3","1452","1452","0","[[1,0,0],[3,0],[2]]","1","[[0,0,0],[2,3],[1]]","12","0","","","","","","4","","","","","","","","",""
"","","","","","single-stim-button","210","496066","0.0-2.0-46.1-0.1","64135983899b0b3fa3ddfab9","F1","batch6","","770","tol_tohand","","","","tol_peg_2","770","770","0","[[1,0,0],[0,0],[2]]","2","[[0,0,0],[2,3],[1]]","12","0","","","","","","4","","","","","","","","",""
"","","","","","single-stim-button","211","497171","0.0-2.0-46.1-1.1","64135983899b0b3fa3ddfab9","F1","batch6","","1105","tol_toboard","","","","tol_peg_1","1105","1105","0","[[1,3,0],[0,0],[2]]","2","[[0,0,0],[2,3],[1]]","12","0","","","","","","4","","","","","","","","",""
"","","","","","single-stim-button","212","498164","0.0-2.0-46.2-0.2","64135983899b0b3fa3ddfab9","F1","batch6","","991","tol_tohand","","","","tol_peg_3","991","991","0","[[1,3,0],[0,0],[0]]","3","[[0,0,0],[2,3],[1]]","12","0","","","","","","4","","","","","","","","",""
"","","","","","single-stim-button","213","499358","0.0-2.0-46.2-1.2","64135983899b0b3fa3ddfab9","F1","batch6","","1194","tol_toboard","","","","tol_peg_2","1194","1194","0","[[1,3,0],[2,0],[0]]","3","[[0,0,0],[2,3],[1]]","12","0","","","","","","4","","","","","","","","",""
"","","","","","single-stim-button","214","500262","0.0-2.0-46.3-0.3","64135983899b0b3fa3ddfab9","F1","batch6","","902","tol_tohand","","","","tol_peg_1","902","902","0","[[1,0,0],[2,0],[0]]","4","[[0,0,0],[2,3],[1]]","12","0","","","","","","4","","","","","","","","",""
"","","","","","single-stim-button","215","501100","0.0-2.0-46.3-1.3","64135983899b0b3fa3ddfab9","F1","batch6","","838","tol_toboard","","","","tol_peg_2","838","838","0","[[1,0,0],[2,3],[0]]","4","[[0,0,0],[2,3],[1]]","12","0","","","","","","4","","","","","","","","",""
"","","","","","single-stim-button","216","501716","0.0-2.0-46.4-0.4","64135983899b0b3fa3ddfab9","F1","batch6","","614","tol_tohand","","","","tol_peg_1","614","614","0","[[0,0,0],[2,3],[0]]","5","[[0,0,0],[2,3],[1]]","12","0","","","","","","4","","","","","","","","",""
"","","","","","single-stim-button","217","502902","0.0-2.0-46.4-1.4","64135983899b0b3fa3ddfab9","F1","batch6","","1186","tol_toboard","","","","tol_peg_3","1186","1186","0","[[0,0,0],[2,3],[1]]","5","[[0,0,0],[2,3],[1]]","12","0","","","","","","4","","","","","","","","",""
"","","","","","poldrack-single-stim","218","503904","0.0-2.0-47.0","64135983899b0b3fa3ddfab9","F1","batch6","","-1","tol_feedback","","","true","","1000","1000","500","","","","","","-1","none","true","28673","31950","","","","","","","","","",""
"","","","","","html-button-response","219","506357","0.0-2.0-48.0","64135983899b0b3fa3ddfab9","F1","batch6","","2451.2999999523163","attention_check","<p class = block-text>How many balls are in your board<br></p>","1","true","","","","","","","","","","","","","","","","","","","","","","","",""
"","","","","","html-button-response","220","507439","0.0-2.0-49.0","64135983899b0b3fa3ddfab9","F1","batch6","","1081.3999999761581","tol_trial_num","<div class = centerbox><p class = center-block-text>problem <strong>14</strong> out of 25 problems</p></div>","0","","","","","","","","","","","","","","","","","","","","","","","","",""
"","","","","","single-stim-button","221","511896","0.0-2.0-50.0-0.0","64135983899b0b3fa3ddfab9","F1","batch6","","4455","tol_tohand","","","","tol_peg_1","4455","4455","0","[[2,0,0],[3,0],[0]]","1","[[1,2,0],[3,0],[0]]","13","0","","","","","","4","","","","","","","","",""
"","","","","","single-stim-button","222","512711","0.0-2.0-50.0-1.0","64135983899b0b3fa3ddfab9","F1","batch6","","815","tol_toboard","","","","tol_peg_2","815","815","0","[[2,0,0],[3,1],[0]]","1","[[1,2,0],[3,0],[0]]","13","0","","","","","","4","","","","","","","","",""
"","","","","","single-stim-button","223","513430","0.0-2.0-50.1-0.1","64135983899b0b3fa3ddfab9","F1","batch6","","718","tol_tohand","","","","tol_peg_1","718","718","0","[[0,0,0],[3,1],[0]]","2","[[1,2,0],[3,0],[0]]","13","0","","","","","","4","","","","","","","","",""
"","","","","","single-stim-button","224","515038","0.0-2.0-50.1-1.1","64135983899b0b3fa3ddfab9","F1","batch6","","1608","tol_toboard","","","","tol_peg_3","1608","1608","0","[[0,0,0],[3,1],[2]]","2","[[1,2,0],[3,0],[0]]","13","0","","","","","","4","","","","","","","","",""
"","","","","","single-stim-button","225","516122","0.0-2.0-50.2-0.2","64135983899b0b3fa3ddfab9","F1","batch6","","1082","tol_tohand","","","","tol_peg_2","1082","1082","0","[[0,0,0],[3,0],[2]]","3","[[1,2,0],[3,0],[0]]","13","0","","","","","","4","","","","","","","","",""
"","","","","","single-stim-button","226","517405","0.0-2.0-50.2-1.2","64135983899b0b3fa3ddfab9","F1","batch6","","1282","tol_toboard","","","","tol_peg_1","1282","1282","0","[[1,0,0],[3,0],[2]]","3","[[1,2,0],[3,0],[0]]","13","0","","","","","","4","","","","","","","","",""
"","","","","","single-stim-button","227","518316","0.0-2.0-50.3-0.3","64135983899b0b3fa3ddfab9","F1","batch6","","911","tol_tohand","","","","tol_peg_3","911","911","0","[[1,0,0],[3,0],[0]]","4","[[1,2,0],[3,0],[0]]","13","0","","","","","","4","","","","","","","","",""
"","","","","","single-stim-button","228","519043","0.0-2.0-50.3-1.3","64135983899b0b3fa3ddfab9","F1","batch6","","726","tol_toboard","","","","tol_peg_1","726","726","0","[[1,2,0],[3,0],[0]]","4","[[1,2,0],[3,0],[0]]","13","0","","","","","","4","","","","","","","","",""
"","","","","","poldrack-single-stim","229","520053","0.0-2.0-51.0","64135983899b0b3fa3ddfab9","F1","batch6","","-1","tol_feedback","","","true","","1000","1000","500","","","","","","-1","none","true","4455","7166","","","","","","","","","",""
"","","","","","html-button-response","230","521074","0.0-2.0-52.0","64135983899b0b3fa3ddfab9","F1","batch6","","1019.5","tol_trial_num","<div class = centerbox><p class = center-block-text>problem <strong>15</strong> out of 25 problems</p></div>","0","","","","","","","","","","","","","","","","","","","","","","","","",""
"","","","","","single-stim-button","231","524225","0.0-2.0-53.0-0.0","64135983899b0b3fa3ddfab9","F1","batch6","","3149","tol_tohand","","","","tol_peg_1","3149","3149","0","[[1,0,0],[3,0],[0]]","1","[[2,0,0],[3,0],[1]]","14","0","","","","","","3","","","","","","","","",""
"","","","","","single-stim-button","232","525138","0.0-2.0-53.0-1.0","64135983899b0b3fa3ddfab9","F1","batch6","","912","tol_toboard","","","","tol_peg_2","912","912","0","[[1,0,0],[3,2],[0]]","1","[[2,0,0],[3,0],[1]]","14","0","","","","","","3","","","","","","","","",""
"","","","","","single-stim-button","233","525701","0.0-2.0-53.1-0.1","64135983899b0b3fa3ddfab9","F1","batch6","","563","tol_tohand","","","","tol_peg_1","563","563","0","[[0,0,0],[3,2],[0]]","2","[[2,0,0],[3,0],[1]]","14","0","","","","","","3","","","","","","","","",""
"","","","","","single-stim-button","234","526672","0.0-2.0-53.1-1.1","64135983899b0b3fa3ddfab9","F1","batch6","","971","tol_toboard","","","","tol_peg_3","971","971","0","[[0,0,0],[3,2],[1]]","2","[[2,0,0],[3,0],[1]]","14","0","","","","","","3","","","","","","","","",""
"","","","","","single-stim-button","235","527525","0.0-2.0-53.2-0.2","64135983899b0b3fa3ddfab9","F1","batch6","","851","tol_tohand","","","","tol_peg_2","851","851","0","[[0,0,0],[3,0],[1]]","3","[[2,0,0],[3,0],[1]]","14","0","","","","","","3","","","","","","","","",""
"","","","","","single-stim-button","236","528562","0.0-2.0-53.2-1.2","64135983899b0b3fa3ddfab9","F1","batch6","","1037","tol_toboard","","","","tol_peg_1","1037","1037","0","[[2,0,0],[3,0],[1]]","3","[[2,0,0],[3,0],[1]]","14","0","","","","","","3","","","","","","","","",""
"","","","","","poldrack-single-stim","237","529575","0.0-2.0-54.0","64135983899b0b3fa3ddfab9","F1","batch6","","-1","tol_feedback","","","true","","1000","1000","500","","","","","","-1","none","true","3149","4563","","","","","","","","","",""
"","","","","","html-button-response","238","530838","0.0-2.0-55.0","64135983899b0b3fa3ddfab9","F1","batch6","","1261.6000000238419","tol_trial_num","<div class = centerbox><p class = center-block-text>problem <strong>16</strong> out of 25 problems</p></div>","0","","","","","","","","","","","","","","","","","","","","","","","","",""
"","","","","","single-stim-button","239","559099","0.0-2.0-56.0-0.0","64135983899b0b3fa3ddfab9","F1","batch6","","28261","tol_tohand","","","","tol_peg_2","28261","28261","0","[[0,0,0],[2,0],[1]]","1","[[2,3,0],[1,0],[0]]","15","0","","","","","","7","","","","","","","","",""
"","","","","","single-stim-button","240","561005","0.0-2.0-56.0-1.0","64135983899b0b3fa3ddfab9","F1","batch6","","1905","tol_toboard","","","","tol_peg_1","1905","1905","0","[[3,0,0],[2,0],[1]]","1","[[2,3,0],[1,0],[0]]","15","0","","","","","","7","","","","","","","","",""
"","","","","","single-stim-button","241","562080","0.0-2.0-56.1-0.1","64135983899b0b3fa3ddfab9","F1","batch6","","1073","tol_tohand","","","","tol_peg_3","1073","1073","0","[[3,0,0],[2,0],[0]]","2","[[2,3,0],[1,0],[0]]","15","0","","","","","","7","","","","","","","","",""
"","","","","","single-stim-button","242","563815","0.0-2.0-56.1-1.1","64135983899b0b3fa3ddfab9","F1","batch6","","1735","tol_toboard","","","","tol_peg_2","1735","1735","0","[[3,0,0],[2,1],[0]]","2","[[2,3,0],[1,0],[0]]","15","0","","","","","","7","","","","","","","","",""
"","","","","","single-stim-button","243","566581","0.0-2.0-56.2-0.2","64135983899b0b3fa3ddfab9","F1","batch6","","2764","tol_tohand","","","","tol_peg_1","2764","2764","0","[[0,0,0],[2,1],[0]]","3","[[2,3,0],[1,0],[0]]","15","0","","","","","","7","","","","","","","","",""
"","","","","","single-stim-button","244","568412","0.0-2.0-56.2-1.2","64135983899b0b3fa3ddfab9","F1","batch6","","1830","tol_toboard","","","","tol_peg_3","1830","1830","0","[[0,0,0],[2,1],[3]]","3","[[2,3,0],[1,0],[0]]","15","0","","","","","","7","","","","","","","","",""
"","","","","","single-stim-button","245","571852","0.0-2.0-56.3-0.3","64135983899b0b3fa3ddfab9","F1","batch6","","3439","tol_tohand","","","","tol_peg_2","3439","3439","0","[[0,0,0],[2,0],[3]]","4","[[2,3,0],[1,0],[0]]","15","0","","","","","","7","","","","","","","","",""
"","","","","","single-stim-button","246","573231","0.0-2.0-56.3-1.3","64135983899b0b3fa3ddfab9","F1","batch6","","1378","tol_toboard","","","","tol_peg_1","1378","1378","0","[[1,0,0],[2,0],[3]]","4","[[2,3,0],[1,0],[0]]","15","0","","","","","","7","","","","","","","","",""
"","","","","","single-stim-button","247","576270","0.0-2.0-56.4-0.4","64135983899b0b3fa3ddfab9","F1","batch6","","3039","tol_tohand","","","","tol_peg_2","3039","3039","0","[[1,0,0],[0,0],[3]]","5","[[2,3,0],[1,0],[0]]","15","0","","","","","","7","","","","","","","","",""
"","","","","","single-stim-button","248","577160","0.0-2.0-56.4-1.4","64135983899b0b3fa3ddfab9","F1","batch6","","889","tol_toboard","","","","tol_peg_1","889","889","0","[[1,2,0],[0,0],[3]]","5","[[2,3,0],[1,0],[0]]","15","0","","","","","","7","","","","","","","","",""
"","","","","","single-stim-button","249","578146","0.0-2.0-56.5-0.5","64135983899b0b3fa3ddfab9","F1","batch6","","985","tol_tohand","","","","tol_peg_3","985","985","0","[[1,2,0],[0,0],[0]]","6","[[2,3,0],[1,0],[0]]","15","0","","","","","","7","","","","","","","","",""
"","","","","","single-stim-button","250","579125","0.0-2.0-56.5-1.5","64135983899b0b3fa3ddfab9","F1","batch6","","979","tol_toboard","","","","tol_peg_2","979","979","0","[[1,2,0],[3,0],[0]]","6","[[2,3,0],[1,0],[0]]","15","0","","","","","","7","","","","","","","","",""
"","","","","","single-stim-button","251","579880","0.0-2.0-56.6-0.6","64135983899b0b3fa3ddfab9","F1","batch6","","754","tol_tohand","","","","tol_peg_1","754","754","0","[[1,0,0],[3,0],[0]]","7","[[2,3,0],[1,0],[0]]","15","0","","","","","","7","","","","","","","","",""
"","","","","","single-stim-button","252","581422","0.0-2.0-56.6-1.6","64135983899b0b3fa3ddfab9","F1","batch6","","1541","tol_toboard","","","","tol_peg_3","1541","1541","0","[[1,0,0],[3,0],[2]]","7","[[2,3,0],[1,0],[0]]","15","0","","","","","","7","","","","","","","","",""
"","","","","","single-stim-button","253","582462","0.0-2.0-56.7-0.7","64135983899b0b3fa3ddfab9","F1","batch6","","1039","tol_tohand","","","","tol_peg_1","1039","1039","0","[[0,0,0],[3,0],[2]]","8","[[2,3,0],[1,0],[0]]","15","0","","","","","","7","","","","","","","","",""
"","","","","","single-stim-button","254","583106","0.0-2.0-56.7-1.7","64135983899b0b3fa3ddfab9","F1","batch6","","644","tol_toboard","","","","tol_peg_2","644","644","0","[[0,0,0],[3,1],[2]]","8","[[2,3,0],[1,0],[0]]","15","0","","","","","","7","","","","","","","","",""
"","","","","","single-stim-button","255","583632","0.0-2.0-56.8-0.8","64135983899b0b3fa3ddfab9","F1","batch6","","526","tol_tohand","","","","tol_peg_3","526","526","0","[[0,0,0],[3,1],[0]]","9","[[2,3,0],[1,0],[0]]","15","0","","","","","","7","","","","","","","","",""
"","","","","","single-stim-button","256","584609","0.0-2.0-56.8-1.8","64135983899b0b3fa3ddfab9","F1","batch6","","975","tol_toboard","","","","tol_peg_1","975","975","0","[[2,0,0],[3,1],[0]]","9","[[2,3,0],[1,0],[0]]","15","0","","","","","","7","","","","","","","","",""
"","","","","","single-stim-button","257","585716","0.0-2.0-56.9-0.9","64135983899b0b3fa3ddfab9","F1","batch6","","1107","tol_tohand","","","","tol_peg_2","1107","1107","0","[[2,0,0],[3,0],[0]]","10","[[2,3,0],[1,0],[0]]","15","0","","","","","","7","","","","","","","","",""
"","","","","","single-stim-button","258","586575","0.0-2.0-56.9-1.9","64135983899b0b3fa3ddfab9","F1","batch6","","858","tol_toboard","","","","tol_peg_3","858","858","0","[[2,0,0],[3,0],[1]]","10","[[2,3,0],[1,0],[0]]","15","0","","","","","","7","","","","","","","","",""
"","","","","","single-stim-button","259","587205","0.0-2.0-56.10-0.10","64135983899b0b3fa3ddfab9","F1","batch6","","630","tol_tohand","","","","tol_peg_2","630","630","0","[[2,0,0],[0,0],[1]]","11","[[2,3,0],[1,0],[0]]","15","0","","","","","","7","","","","","","","","",""
"","","","","","single-stim-button","260","587910","0.0-2.0-56.10-1.10","64135983899b0b3fa3ddfab9","F1","batch6","","704","tol_toboard","","","","tol_peg_1","704","704","0","[[2,3,0],[0,0],[1]]","11","[[2,3,0],[1,0],[0]]","15","0","","","","","","7","","","","","","","","",""
"","","","","","single-stim-button","261","588673","0.0-2.0-56.11-0.11","64135983899b0b3fa3ddfab9","F1","batch6","","763","tol_tohand","","","","tol_peg_3","763","763","0","[[2,3,0],[0,0],[0]]","12","[[2,3,0],[1,0],[0]]","15","0","","","","","","7","","","","","","","","",""
"","","","","","single-stim-button","262","589732","0.0-2.0-56.11-1.11","64135983899b0b3fa3ddfab9","F1","batch6","","1057","tol_toboard","","","","tol_peg_2","1057","1057","0","[[2,3,0],[1,0],[0]]","12","[[2,3,0],[1,0],[0]]","15","0","","","","","","7","","","","","","","","",""
"","","","","","poldrack-single-stim","263","590737","0.0-2.0-57.0","64135983899b0b3fa3ddfab9","F1","batch6","","-1","tol_feedback","","","true","","1000","1000","500","","","","","","-1","none","true","28261","44380","","","","","","","","","",""
"","","","","","html-button-response","264","591815","0.0-2.0-58.0","64135983899b0b3fa3ddfab9","F1","batch6","","1076.1000000238419","tol_trial_num","<div class = centerbox><p class = center-block-text>problem <strong>17</strong> out of 25 problems</p></div>","0","","","","","","","","","","","","","","","","","","","","","","","","",""
"","","","","","single-stim-button","265","601549","0.0-2.0-59.0-0.0","64135983899b0b3fa3ddfab9","F1","batch6","","9733","tol_tohand","","","","tol_peg_2","9733","9733","0","[[1,2,0],[0,0],[0]]","1","[[3,1,0],[2,0],[0]]","16","0","","","","","","5","","","","","","","","",""
"","","","","","single-stim-button","266","602512","0.0-2.0-59.0-1.0","64135983899b0b3fa3ddfab9","F1","batch6","","963","tol_toboard","","","","tol_peg_3","963","963","0","[[1,2,0],[0,0],[3]]","1","[[3,1,0],[2,0],[0]]","16","0","","","","","","5","","","","","","","","",""
"","","","","","single-stim-button","267","603914","0.0-2.0-59.1-0.1","64135983899b0b3fa3ddfab9","F1","batch6","","1401","tol_tohand","","","","tol_peg_1","1401","1401","0","[[1,0,0],[0,0],[3]]","2","[[3,1,0],[2,0],[0]]","16","0","","","","","","5","","","","","","","","",""
"","","","","","single-stim-button","268","604966","0.0-2.0-59.1-1.1","64135983899b0b3fa3ddfab9","F1","batch6","","1051","tol_toboard","","","","tol_peg_2","1051","1051","0","[[1,0,0],[2,0],[3]]","2","[[3,1,0],[2,0],[0]]","16","0","","","","","","5","","","","","","","","",""
"","","","","","single-stim-button","269","605797","0.0-2.0-59.2-0.2","64135983899b0b3fa3ddfab9","F1","batch6","","830","tol_tohand","","","","tol_peg_1","830","830","0","[[0,0,0],[2,0],[3]]","3","[[3,1,0],[2,0],[0]]","16","0","","","","","","5","","","","","","","","",""
"","","","","","single-stim-button","270","606367","0.0-2.0-59.2-1.2","64135983899b0b3fa3ddfab9","F1","batch6","","570","tol_toboard","","","","tol_peg_2","570","570","0","[[0,0,0],[2,1],[3]]","3","[[3,1,0],[2,0],[0]]","16","0","","","","","","5","","","","","","","","",""
"","","","","","single-stim-button","271","606982","0.0-2.0-59.3-0.3","64135983899b0b3fa3ddfab9","F1","batch6","","615","tol_tohand","","","","tol_peg_3","615","615","0","[[0,0,0],[2,1],[0]]","4","[[3,1,0],[2,0],[0]]","16","0","","","","","","5","","","","","","","","",""
"","","","","","single-stim-button","272","607894","0.0-2.0-59.3-1.3","64135983899b0b3fa3ddfab9","F1","batch6","","911","tol_toboard","","","","tol_peg_1","911","911","0","[[3,0,0],[2,1],[0]]","4","[[3,1,0],[2,0],[0]]","16","0","","","","","","5","","","","","","","","",""
"","","","","","single-stim-button","273","608495","0.0-2.0-59.4-0.4","64135983899b0b3fa3ddfab9","F1","batch6","","599","tol_tohand","","","","tol_peg_2","599","599","0","[[3,0,0],[2,0],[0]]","5","[[3,1,0],[2,0],[0]]","16","0","","","","","","5","","","","","","","","",""
"","","","","","single-stim-button","274","609176","0.0-2.0-59.4-1.4","64135983899b0b3fa3ddfab9","F1","batch6","","681","tol_toboard","","","","tol_peg_1","681","681","0","[[3,1,0],[2,0],[0]]","5","[[3,1,0],[2,0],[0]]","16","0","","","","","","5","","","","","","","","",""
"","","","","","poldrack-single-stim","275","610178","0.0-2.0-60.0","64135983899b0b3fa3ddfab9","F1","batch6","","-1","tol_feedback","","","true","","1000","1000","500","","","","","","-1","none","true","9733","13178","","","","","","","","","",""
"","","","","","html-button-response","276","611244","0.0-2.0-61.0","64135983899b0b3fa3ddfab9","F1","batch6","","1065.0999999046326","tol_trial_num","<div class = centerbox><p class = center-block-text>problem <strong>18</strong> out of 25 problems</p></div>","0","","","","","","","","","","","","","","","","","","","","","","","","",""
"","","","","","single-stim-button","277","643281","0.0-2.0-62.0-0.0","64135983899b0b3fa3ddfab9","F1","batch6","","32036","tol_tohand","","","","tol_peg_1","32036","32036","0","[[1,0,0],[3,0],[0]]","1","[[3,0,0],[2,0],[1]]","17","0","","","","","","5","","","","","","","","",""
"","","","","","single-stim-button","278","644016","0.0-2.0-62.0-1.0","64135983899b0b3fa3ddfab9","F1","batch6","","733","tol_toboard","","","","tol_peg_2","733","733","0","[[1,0,0],[3,2],[0]]","1","[[3,0,0],[2,0],[1]]","17","0","","","","","","5","","","","","","","","",""
"","","","","","single-stim-button","279","644720","0.0-2.0-62.1-0.1","64135983899b0b3fa3ddfab9","F1","batch6","","704","tol_tohand","","","","tol_peg_1","704","704","0","[[0,0,0],[3,2],[0]]","2","[[3,0,0],[2,0],[1]]","17","0","","","","","","5","","","","","","","","",""
"","","","","","single-stim-button","280","645802","0.0-2.0-62.1-1.1","64135983899b0b3fa3ddfab9","F1","batch6","","1080","tol_toboard","","","","tol_peg_3","1080","1080","0","[[0,0,0],[3,2],[1]]","2","[[3,0,0],[2,0],[1]]","17","0","","","","","","5","","","","","","","","",""
"","","","","","single-stim-button","281","647122","0.0-2.0-62.2-0.2","64135983899b0b3fa3ddfab9","F1","batch6","","1319","tol_tohand","","","","tol_peg_2","1319","1319","0","[[0,0,0],[3,0],[1]]","3","[[3,0,0],[2,0],[1]]","17","0","","","","","","5","","","","","","","","",""
"","","","","","single-stim-button","282","647959","0.0-2.0-62.2-1.2","64135983899b0b3fa3ddfab9","F1","batch6","","837","tol_toboard","","","","tol_peg_1","837","837","0","[[2,0,0],[3,0],[1]]","3","[[3,0,0],[2,0],[1]]","17","0","","","","","","5","","","","","","","","",""
"","","","","","single-stim-button","283","648790","0.0-2.0-62.3-0.3","64135983899b0b3fa3ddfab9","F1","batch6","","830","tol_tohand","","","","tol_peg_2","830","830","0","[[2,0,0],[0,0],[1]]","4","[[3,0,0],[2,0],[1]]","17","0","","","","","","5","","","","","","","","",""
"","","","","","single-stim-button","284","649419","0.0-2.0-62.3-1.3","64135983899b0b3fa3ddfab9","F1","batch6","","629","tol_toboard","","","","tol_peg_1","629","629","0","[[2,3,0],[0,0],[1]]","4","[[3,0,0],[2,0],[1]]","17","0","","","","","","5","","","","","","","","",""
"","","","","","single-stim-button","285","650094","0.0-2.0-62.4-0.4","64135983899b0b3fa3ddfab9","F1","batch6","","673","tol_tohand","","","","tol_peg_3","673","673","0","[[2,3,0],[0,0],[0]]","5","[[3,0,0],[2,0],[1]]","17","0","","","","","","5","","","","","","","","",""
"","","","","","single-stim-button","286","651309","0.0-2.0-62.4-1.4","64135983899b0b3fa3ddfab9","F1","batch6","","1215","tol_toboard","","","","tol_peg_2","1215","1215","0","[[2,3,0],[1,0],[0]]","5","[[3,0,0],[2,0],[1]]","17","0","","","","","","5","","","","","","","","",""
"","","","","","single-stim-button","287","652940","0.0-2.0-62.5-0.5","64135983899b0b3fa3ddfab9","F1","batch6","","1630","tol_tohand","","","","tol_peg_1","1630","1630","0","[[2,0,0],[1,0],[0]]","6","[[3,0,0],[2,0],[1]]","17","0","","","","","","5","","","","","","","","",""
"","","","","","single-stim-button","288","658537","0.0-2.0-62.5-1.5","64135983899b0b3fa3ddfab9","F1","batch6","","5596","tol_toboard","","","","tol_peg_3","5596","5596","0","[[2,0,0],[1,0],[3]]","6","[[3,0,0],[2,0],[1]]","17","0","","","","","","5","","","","","","","","",""
"","","","","","single-stim-button","289","659975","0.0-2.0-62.6-0.6","64135983899b0b3fa3ddfab9","F1","batch6","","1437","tol_tohand","","","","tol_peg_1","1437","1437","0","[[0,0,0],[1,0],[3]]","7","[[3,0,0],[2,0],[1]]","17","0","","","","","","5","","","","","","","","",""
"","","","","","single-stim-button","290","660642","0.0-2.0-62.6-1.6","64135983899b0b3fa3ddfab9","F1","batch6","","667","tol_toboard","","","","tol_peg_2","667","667","0","[[0,0,0],[1,2],[3]]","7","[[3,0,0],[2,0],[1]]","17","0","","","","","","5","","","","","","","","",""
"","","","","","single-stim-button","291","661398","0.0-2.0-62.7-0.7","64135983899b0b3fa3ddfab9","F1","batch6","","755","tol_tohand","","","","tol_peg_3","755","755","0","[[0,0,0],[1,2],[0]]","8","[[3,0,0],[2,0],[1]]","17","0","","","","","","5","","","","","","","","",""
"","","","","","single-stim-button","292","662391","0.0-2.0-62.7-1.7","64135983899b0b3fa3ddfab9","F1","batch6","","993","tol_toboard","","","","tol_peg_1","993","993","0","[[3,0,0],[1,2],[0]]","8","[[3,0,0],[2,0],[1]]","17","0","","","","","","5","","","","","","","","",""
"","","","","","single-stim-button","293","663177","0.0-2.0-62.8-0.8","64135983899b0b3fa3ddfab9","F1","batch6","","784","tol_tohand","","","","tol_peg_2","784","784","0","[[3,0,0],[1,0],[0]]","9","[[3,0,0],[2,0],[1]]","17","0","","","","","","5","","","","","","","","",""
"","","","","","single-stim-button","294","664267","0.0-2.0-62.8-1.8","64135983899b0b3fa3ddfab9","F1","batch6","","1090","tol_toboard","","","","tol_peg_1","1090","1090","0","[[3,2,0],[1,0],[0]]","9","[[3,0,0],[2,0],[1]]","17","0","","","","","","5","","","","","","","","",""
"","","","","","single-stim-button","295","664941","0.0-2.0-62.9-0.9","64135983899b0b3fa3ddfab9","F1","batch6","","674","tol_tohand","","","","tol_peg_2","674","674","0","[[3,2,0],[0,0],[0]]","10","[[3,0,0],[2,0],[1]]","17","0","","","","","","5","","","","","","","","",""
"","","","","","single-stim-button","296","665793","0.0-2.0-62.9-1.9","64135983899b0b3fa3ddfab9","F1","batch6","","851","tol_toboard","","","","tol_peg_3","851","851","0","[[3,2,0],[0,0],[1]]","10","[[3,0,0],[2,0],[1]]","17","0","","","","","","5","","","","","","","","",""
"","","","","","single-stim-button","297","666617","0.0-2.0-62.10-0.10","64135983899b0b3fa3ddfab9","F1","batch6","","822","tol_tohand","","","","tol_peg_1","822","822","0","[[3,0,0],[0,0],[1]]","11","[[3,0,0],[2,0],[1]]","17","0","","","","","","5","","","","","","","","",""
"","","","","","single-stim-button","298","667439","0.0-2.0-62.10-1.10","64135983899b0b3fa3ddfab9","F1","batch6","","821","tol_toboard","","","","tol_peg_2","821","821","0","[[3,0,0],[2,0],[1]]","11","[[3,0,0],[2,0],[1]]","17","0","","","","","","5","","","","","","","","",""
"","","","","","poldrack-single-stim","299","668440","0.0-2.0-63.0","64135983899b0b3fa3ddfab9","F1","batch6","","-1","tol_feedback","","","true","","1000","1000","500","","","","","","-1","none","true","32036","41664","","","","","","","","","",""
"","","","","","html-button-response","300","669411","0.0-2.0-64.0","64135983899b0b3fa3ddfab9","F1","batch6","","968.7999999523163","tol_trial_num","<div class = centerbox><p class = center-block-text>problem <strong>19</strong> out of 25 problems</p></div>","0","","","","","","","","","","","","","","","","","","","","","","","","",""
"","","","","","single-stim-button","301","671790","0.0-2.0-65.0-0.0","64135983899b0b3fa3ddfab9","F1","batch6","","2379","tol_tohand","","","","tol_peg_2","2379","2379","0","[[1,2,0],[0,0],[0]]","1","[[0,0,0],[1,2],[3]]","18","0","","","","","","7","","","","","","","","",""
"","","","","","single-stim-button","302","685681","0.0-2.0-65.0-1.0","64135983899b0b3fa3ddfab9","F1","batch6","","13890","tol_toboard","","","","tol_peg_2","13890","13890","0","[[1,2,0],[3,0],[0]]","1","[[0,0,0],[1,2],[3]]","18","0","","","","","","7","","","","","","","","",""
"","","","","","single-stim-button","303","686393","0.0-2.0-65.1-0.1","64135983899b0b3fa3ddfab9","F1","batch6","","712","tol_tohand","","","","tol_peg_1","712","712","0","[[1,0,0],[3,0],[0]]","2","[[0,0,0],[1,2],[3]]","18","0","","","","","","7","","","","","","","","",""
"","","","","","single-stim-button","304","687193","0.0-2.0-65.1-1.1","64135983899b0b3fa3ddfab9","F1","batch6","","799","tol_toboard","","","","tol_peg_3","799","799","0","[[1,0,0],[3,0],[2]]","2","[[0,0,0],[1,2],[3]]","18","0","","","","","","7","","","","","","","","",""
"","","","","","single-stim-button","305","688060","0.0-2.0-65.2-0.2","64135983899b0b3fa3ddfab9","F1","batch6","","866","tol_tohand","","","","tol_peg_1","866","866","0","[[0,0,0],[3,0],[2]]","3","[[0,0,0],[1,2],[3]]","18","0","","","","","","7","","","","","","","","",""
"","","","","","single-stim-button","306","688839","0.0-2.0-65.2-1.2","64135983899b0b3fa3ddfab9","F1","batch6","","778","tol_toboard","","","","tol_peg_2","778","778","0","[[0,0,0],[3,1],[2]]","3","[[0,0,0],[1,2],[3]]","18","0","","","","","","7","","","","","","","","",""
"","","","","","single-stim-button","307","689521","0.0-2.0-65.3-0.3","64135983899b0b3fa3ddfab9","F1","batch6","","681","tol_tohand","","","","tol_peg_3","681","681","0","[[0,0,0],[3,1],[0]]","4","[[0,0,0],[1,2],[3]]","18","0","","","","","","7","","","","","","","","",""
"","","","","","single-stim-button","308","690573","0.0-2.0-65.3-1.3","64135983899b0b3fa3ddfab9","F1","batch6","","1052","tol_toboard","","","","tol_peg_1","1052","1052","0","[[2,0,0],[3,1],[0]]","4","[[0,0,0],[1,2],[3]]","18","0","","","","","","7","","","","","","","","",""
"","","","","","single-stim-button","309","691271","0.0-2.0-65.4-0.4","64135983899b0b3fa3ddfab9","F1","batch6","","697","tol_tohand","","","","tol_peg_2","697","697","0","[[2,0,0],[3,0],[0]]","5","[[0,0,0],[1,2],[3]]","18","0","","","","","","7","","","","","","","","",""
"","","","","","single-stim-button","310","692078","0.0-2.0-65.4-1.4","64135983899b0b3fa3ddfab9","F1","batch6","","806","tol_toboard","","","","tol_peg_1","806","806","0","[[2,1,0],[3,0],[0]]","5","[[0,0,0],[1,2],[3]]","18","0","","","","","","7","","","","","","","","",""
"","","","","","single-stim-button","311","692841","0.0-2.0-65.5-0.5","64135983899b0b3fa3ddfab9","F1","batch6","","763","tol_tohand","","","","tol_peg_2","763","763","0","[[2,1,0],[0,0],[0]]","6","[[0,0,0],[1,2],[3]]","18","0","","","","","","7","","","","","","","","",""
"","","","","","single-stim-button","312","693656","0.0-2.0-65.5-1.5","64135983899b0b3fa3ddfab9","F1","batch6","","815","tol_toboard","","","","tol_peg_3","815","815","0","[[2,1,0],[0,0],[3]]","6","[[0,0,0],[1,2],[3]]","18","0","","","","","","7","","","","","","","","",""
"","","","","","single-stim-button","313","694412","0.0-2.0-65.6-0.6","64135983899b0b3fa3ddfab9","F1","batch6","","755","tol_tohand","","","","tol_peg_1","755","755","0","[[2,0,0],[0,0],[3]]","7","[[0,0,0],[1,2],[3]]","18","0","","","","","","7","","","","","","","","",""
"","","","","","single-stim-button","314","695228","0.0-2.0-65.6-1.6","64135983899b0b3fa3ddfab9","F1","batch6","","816","tol_toboard","","","","tol_peg_2","816","816","0","[[2,0,0],[1,0],[3]]","7","[[0,0,0],[1,2],[3]]","18","0","","","","","","7","","","","","","","","",""
"","","","","","single-stim-button","315","696021","0.0-2.0-65.7-0.7","64135983899b0b3fa3ddfab9","F1","batch6","","792","tol_tohand","","","","tol_peg_1","792","792","0","[[0,0,0],[1,0],[3]]","8","[[0,0,0],[1,2],[3]]","18","0","","","","","","7","","","","","","","","",""
"","","","","","single-stim-button","316","696709","0.0-2.0-65.7-1.7","64135983899b0b3fa3ddfab9","F1","batch6","","688","tol_toboard","","","","tol_peg_2","688","688","0","[[0,0,0],[1,2],[3]]","8","[[0,0,0],[1,2],[3]]","18","0","","","","","","7","","","","","","","","",""
"","","","","","poldrack-single-stim","317","697716","0.0-2.0-66.0","64135983899b0b3fa3ddfab9","F1","batch6","","-1","tol_feedback","","","true","","1000","1000","500","","","","","","-1","none","true","2379","7645","","","","","","","","","",""
"","","","","","html-button-response","318","698667","0.0-2.0-67.0","64135983899b0b3fa3ddfab9","F1","batch6","","949.6999999284744","tol_trial_num","<div class = centerbox><p class = center-block-text>problem <strong>20</strong> out of 25 problems</p></div>","0","","","","","","","","","","","","","","","","","","","","","","","","",""
"","","","","","single-stim-button","319","707628","0.0-2.0-68.0-0.0","64135983899b0b3fa3ddfab9","F1","batch6","","8961","tol_tohand","","","","tol_peg_1","8961","8961","0","[[1,0,0],[3,0],[0]]","1","[[2,1,0],[0,0],[3]]","19","0","","","","","","5","","","","","","","","",""
"","","","","","single-stim-button","320","708436","0.0-2.0-68.0-1.0","64135983899b0b3fa3ddfab9","F1","batch6","","806","tol_toboard","","","","tol_peg_2","806","806","0","[[1,0,0],[3,2],[0]]","1","[[2,1,0],[0,0],[3]]","19","0","","","","","","5","","","","","","","","",""
"","","","","","single-stim-button","321","709244","0.0-2.0-68.1-0.1","64135983899b0b3fa3ddfab9","F1","batch6","","807","tol_tohand","","","","tol_peg_1","807","807","0","[[0,0,0],[3,2],[0]]","2","[[2,1,0],[0,0],[3]]","19","0","","","","","","5","","","","","","","","",""
"","","","","","single-stim-button","322","710318","0.0-2.0-68.1-1.1","64135983899b0b3fa3ddfab9","F1","batch6","","1074","tol_toboard","","","","tol_peg_3","1074","1074","0","[[0,0,0],[3,2],[1]]","2","[[2,1,0],[0,0],[3]]","19","0","","","","","","5","","","","","","","","",""
"","","","","","single-stim-button","323","711141","0.0-2.0-68.2-0.2","64135983899b0b3fa3ddfab9","F1","batch6","","822","tol_tohand","","","","tol_peg_2","822","822","0","[[0,0,0],[3,0],[1]]","3","[[2,1,0],[0,0],[3]]","19","0","","","","","","5","","","","","","","","",""
"","","","","","single-stim-button","324","711912","0.0-2.0-68.2-1.2","64135983899b0b3fa3ddfab9","F1","batch6","","769","tol_toboard","","","","tol_peg_1","769","769","0","[[2,0,0],[3,0],[1]]","3","[[2,1,0],[0,0],[3]]","19","0","","","","","","5","","","","","","","","",""
"","","","","","single-stim-button","325","712682","0.0-2.0-68.3-0.3","64135983899b0b3fa3ddfab9","F1","batch6","","770","tol_tohand","","","","tol_peg_3","770","770","0","[[2,0,0],[3,0],[0]]","4","[[2,1,0],[0,0],[3]]","19","0","","","","","","5","","","","","","","","",""
"","","","","","single-stim-button","326","713484","0.0-2.0-68.3-1.3","64135983899b0b3fa3ddfab9","F1","batch6","","800","tol_toboard","","","","tol_peg_1","800","800","0","[[2,1,0],[3,0],[0]]","4","[[2,1,0],[0,0],[3]]","19","0","","","","","","5","","","","","","","","",""
"","","","","","single-stim-button","327","714084","0.0-2.0-68.4-0.4","64135983899b0b3fa3ddfab9","F1","batch6","","600","tol_tohand","","","","tol_peg_2","600","600","0","[[2,1,0],[0,0],[0]]","5","[[2,1,0],[0,0],[3]]","19","0","","","","","","5","","","","","","","","",""
"","","","","","single-stim-button","328","714729","0.0-2.0-68.4-1.4","64135983899b0b3fa3ddfab9","F1","batch6","","645","tol_toboard","","","","tol_peg_3","645","645","0","[[2,1,0],[0,0],[3]]","5","[[2,1,0],[0,0],[3]]","19","0","","","","","","5","","","","","","","","",""
"","","","","","poldrack-single-stim","329","715732","0.0-2.0-69.0","64135983899b0b3fa3ddfab9","F1","batch6","","-1","tol_feedback","","","true","","1000","1000","500","","","","","","-1","none","true","8961","11960","","","","","","","","","",""
"","","","","","html-button-response","330","716625","0.0-2.0-70.0","64135983899b0b3fa3ddfab9","F1","batch6","","891.6999999284744","tol_trial_num","<div class = centerbox><p class = center-block-text>problem <strong>21</strong> out of 25 problems</p></div>","0","","","","","","","","","","","","","","","","","","","","","","","","",""
"","","","","","single-stim-button","331","739892","0.0-2.0-71.0-0.0","64135983899b0b3fa3ddfab9","F1","batch6","","23266","tol_tohand","","","","tol_peg_2","23266","23266","0","[[1,2,0],[0,0],[0]]","1","[[3,2,0],[0,0],[1]]","20","0","","","","","","6","","","","","","","","",""
"","","","","","single-stim-button","332","740551","0.0-2.0-71.0-1.0","64135983899b0b3fa3ddfab9","F1","batch6","","659","tol_toboard","","","","tol_peg_3","659","659","0","[[1,2,0],[0,0],[3]]","1","[[3,2,0],[0,0],[1]]","20","0","","","","","","6","","","","","","","","",""
"","","","","","single-stim-button","333","741389","0.0-2.0-71.1-0.1","64135983899b0b3fa3ddfab9","F1","batch6","","836","tol_tohand","","","","tol_peg_1","836","836","0","[[1,0,0],[0,0],[3]]","2","[[3,2,0],[0,0],[1]]","20","0","","","","","","6","","","","","","","","",""
"","","","","","single-stim-button","334","742248","0.0-2.0-71.1-1.1","64135983899b0b3fa3ddfab9","F1","batch6","","859","tol_toboard","","","","tol_peg_2","859","859","0","[[1,0,0],[2,0],[3]]","2","[[3,2,0],[0,0],[1]]","20","0","","","","","","6","","","","","","","","",""
"","","","","","single-stim-button","335","743152","0.0-2.0-71.2-0.2","64135983899b0b3fa3ddfab9","F1","batch6","","903","tol_tohand","","","","tol_peg_1","903","903","0","[[0,0,0],[2,0],[3]]","3","[[3,2,0],[0,0],[1]]","20","0","","","","","","6","","","","","","","","",""
"","","","","","single-stim-button","336","743701","0.0-2.0-71.2-1.2","64135983899b0b3fa3ddfab9","F1","batch6","","548","tol_toboard","","","","tol_peg_2","548","548","0","[[0,0,0],[2,1],[3]]","3","[[3,2,0],[0,0],[1]]","20","0","","","","","","6","","","","","","","","",""
"","","","","","single-stim-button","337","744575","0.0-2.0-71.3-0.3","64135983899b0b3fa3ddfab9","F1","batch6","","874","tol_tohand","","","","tol_peg_3","874","874","0","[[0,0,0],[2,1],[0]]","4","[[3,2,0],[0,0],[1]]","20","0","","","","","","6","","","","","","","","",""
"","","","","","single-stim-button","338","745539","0.0-2.0-71.3-1.3","64135983899b0b3fa3ddfab9","F1","batch6","","962","tol_toboard","","","","tol_peg_1","962","962","0","[[3,0,0],[2,1],[0]]","4","[[3,2,0],[0,0],[1]]","20","0","","","","","","6","","","","","","","","",""
"","","","","","single-stim-button","339","746295","0.0-2.0-71.4-0.4","64135983899b0b3fa3ddfab9","F1","batch6","","756","tol_tohand","","","","tol_peg_2","756","756","0","[[3,0,0],[2,0],[0]]","5","[[3,2,0],[0,0],[1]]","20","0","","","","","","6","","","","","","","","",""
"","","","","","single-stim-button","340","747065","0.0-2.0-71.4-1.4","64135983899b0b3fa3ddfab9","F1","batch6","","770","tol_toboard","","","","tol_peg_3","770","770","0","[[3,0,0],[2,0],[1]]","5","[[3,2,0],[0,0],[1]]","20","0","","","","","","6","","","","","","","","",""
"","","","","","single-stim-button","341","747732","0.0-2.0-71.5-0.5","64135983899b0b3fa3ddfab9","F1","batch6","","666","tol_tohand","","","","tol_peg_2","666","666","0","[[3,0,0],[0,0],[1]]","6","[[3,2,0],[0,0],[1]]","20","0","","","","","","6","","","","","","","","",""
"","","","","","single-stim-button","342","748281","0.0-2.0-71.5-1.5","64135983899b0b3fa3ddfab9","F1","batch6","","547","tol_toboard","","","","tol_peg_1","547","547","0","[[3,2,0],[0,0],[1]]","6","[[3,2,0],[0,0],[1]]","20","0","","","","","","6","","","","","","","","",""
"","","","","","poldrack-single-stim","343","749283","0.0-2.0-72.0","64135983899b0b3fa3ddfab9","F1","batch6","","-1","tol_feedback","","","true","","1000","1000","500","","","","","","-1","none","true","23266","27301","","","","","","","","","",""
"","","","","","html-button-response","344","750274","0.0-2.0-73.0","64135983899b0b3fa3ddfab9","F1","batch6","","989.6000000238419","tol_trial_num","<div class = centerbox><p class = center-block-text>problem <strong>22</strong> out of 25 problems</p></div>","0","","","","","","","","","","","","","","","","","","","","","","","","",""
"","","","","","single-stim-button","345","775399","0.0-2.0-74.0-0.0","64135983899b0b3fa3ddfab9","F1","batch6","","25124","tol_tohand","","","","tol_peg_2","25124","25124","0","[[1,0,0],[2,0],[0]]","1","[[0,0,0],[1,2],[3]]","21","0","","","","","","6","","","","","","","","",""
"","","","","","single-stim-button","346","776667","0.0-2.0-74.0-1.0","64135983899b0b3fa3ddfab9","F1","batch6","","1267","tol_toboard","","","","tol_peg_1","1267","1267","0","[[1,3,0],[2,0],[0]]","1","[[0,0,0],[1,2],[3]]","21","0","","","","","","6","","","","","","","","",""
"","","","","","single-stim-button","347","777490","0.0-2.0-74.1-0.1","64135983899b0b3fa3ddfab9","F1","batch6","","821","tol_tohand","","","","tol_peg_2","821","821","0","[[1,3,0],[0,0],[0]]","2","[[0,0,0],[1,2],[3]]","21","0","","","","","","6","","","","","","","","",""
"","","","","","single-stim-button","348","778245","0.0-2.0-74.1-1.1","64135983899b0b3fa3ddfab9","F1","batch6","","755","tol_toboard","","","","tol_peg_3","755","755","0","[[1,3,0],[0,0],[2]]","2","[[0,0,0],[1,2],[3]]","21","0","","","","","","6","","","","","","","","",""
"","","","","","single-stim-button","349","778965","0.0-2.0-74.2-0.2","64135983899b0b3fa3ddfab9","F1","batch6","","719","tol_tohand","","","","tol_peg_1","719","719","0","[[1,0,0],[0,0],[2]]","3","[[0,0,0],[1,2],[3]]","21","0","","","","","","6","","","","","","","","",""
"","","","","","single-stim-button","350","779824","0.0-2.0-74.2-1.2","64135983899b0b3fa3ddfab9","F1","batch6","","859","tol_toboard","","","","tol_peg_2","859","859","0","[[1,0,0],[3,0],[2]]","3","[[0,0,0],[1,2],[3]]","21","0","","","","","","6","","","","","","","","",""
"","","","","","single-stim-button","351","780588","0.0-2.0-74.3-0.3","64135983899b0b3fa3ddfab9","F1","batch6","","763","tol_tohand","","","","tol_peg_1","763","763","0","[[0,0,0],[3,0],[2]]","4","[[0,0,0],[1,2],[3]]","21","0","","","","","","6","","","","","","","","",""
"","","","","","single-stim-button","352","788362","0.0-2.0-74.3-1.3","64135983899b0b3fa3ddfab9","F1","batch6","","7774","tol_toboard","","","","tol_peg_2","7774","7774","0","[[0,0,0],[3,1],[2]]","4","[[0,0,0],[1,2],[3]]","21","0","","","","","","6","","","","","","","","",""
"","","","","","single-stim-button","353","788955","0.0-2.0-74.4-0.4","64135983899b0b3fa3ddfab9","F1","batch6","","592","tol_tohand","","","","tol_peg_3","592","592","0","[[0,0,0],[3,1],[0]]","5","[[0,0,0],[1,2],[3]]","21","0","","","","","","6","","","","","","","","",""
"","","","","","single-stim-button","354","791171","0.0-2.0-74.4-1.4","64135983899b0b3fa3ddfab9","F1","batch6","","2215","tol_toboard","","","","tol_peg_1","2215","2215","0","[[2,0,0],[3,1],[0]]","5","[[0,0,0],[1,2],[3]]","21","0","","","","","","6","","","","","","","","",""
"","","","","","single-stim-button","355","791919","0.0-2.0-74.5-0.5","64135983899b0b3fa3ddfab9","F1","batch6","","748","tol_tohand","","","","tol_peg_2","748","748","0","[[2,0,0],[3,0],[0]]","6","[[0,0,0],[1,2],[3]]","21","0","","","","","","6","","","","","","","","",""
