"success","timeout","failed_images","failed_audio","failed_video","trial_type","trial_index","time_elapsed","internal_node_id","subject_id","study_id","session_id","view_history","rt","stimulus","response","task","correct","answer","item","fiar_detect_rt","fiar_detect_correct","total_correct_fiar_detect","post_trial_gap","choices","mouse_click","stim_duration","block_duration","timing_post_trial","current_position","tol_num_moves_made","tol_target","tol_problem_id","tol_rt","key_press","possible_responses","tol_correct","preplanning","tol_rt_per_trial","tol_min_moves","spm_correct","spm_rt"
"true","false","[]","[]","[]","preload","0","1419","0.0-0.0","64135acfe82a5b0b236d3cb7","F1","batch6","","","","","","","","","","","","","","","","","","","","","","","","","","","","","",""
"true","","","","","fullscreen","1","39004","0.0-1.0-0.0","64135acfe82a5b0b236d3cb7","F1","batch6","","","","","","","","","","","","","","","","","","","","","","","","","","","","","",""
"true","","","","","fullscreen","2","46776","0.0-2.0-0.0","64135acfe82a5b0b236d3cb7","F1","batch6","","","","","","","","","","","","","","","","","","","","","","","","","","","","","",""
"","","","","","instructions","3","80045","0.0-2.0-1.0-0.0","64135acfe82a5b0b236d3cb7","F1","batch6","[{""page_index"":0,""viewing_time"":22094},{""page_index"":1,""viewing_time"":11175}]","33270","","","","","","","","","","","","","","","","","","","","","","","","","","","",""
"","","","","","html-button-response","4","81321","0.0-2.0-1.0-1.0-0.0","64135acfe82a5b0b236d3cb7","F1","batch6","","1276","<p class=block-text> Let's answer a few questions <br>","0","pattern_enter_quiz","","","","","","","","","","","","","","","","","","","","","","","","",""
"","","","","","html-button-response","5","94076","0.0-2.0-1.0-1.0-1.0","64135acfe82a5b0b236d3cb7","F1","batch6","","12753","<p class = block-text>True or False: You will have as much time as you want to make each choice. <br></p>","1","pattern_quiz","true","","","","","","","","","","","","","","","","","","","","","","","",""
"","","","","","html-button-response","6","96029","0.0-2.0-1.0-1.0-2.0","64135acfe82a5b0b236d3cb7","F1","batch6","","1952","<p class = block-text>Correct! You should make your choice <strong> as fast as you can</strong>.</p>","0","pattern_quiz_feedback","","","","","","","","","","","","","","","","","","","","","","","","",""
"","","","","","html-button-response","7","104572","0.0-2.0-1.0-1.0-3.0","64135acfe82a5b0b236d3cb7","F1","batch6","","8543","<p class = block-text>True or False: You will look for 4 pieces in black or white color connected in a row either horizontally, vertically or diagonally. <br></p>","0","pattern_quiz","true","","","","","","","","","","","","","","","","","","","","","","","",""
"","","","","","html-button-response","8","105298","0.0-2.0-1.0-1.0-4.0","64135acfe82a5b0b236d3cb7","F1","batch6","","725","<p class = block-text>Correct! </p>","0","pattern_quiz_feedback","","","","","","","","","","","","","","","","","","","","","","","","",""
"","","","","","html-button-response","9","107775","0.0-2.0-2.0","64135acfe82a5b0b236d3cb7","F1","batch6","","2476","<p class=block-text> Now that you've understood the game, let's do a few practice trials before we start!<br> <br>","0","pattern_enter_practice","","","","","","","","","","","","","","","","","","","","","","","","",""
"","","","","","image-keyboard-response","10","112838","0.0-2.0-3.0-0.0","64135acfe82a5b0b236d3cb7","F1","batch6","","5055","stim/prac_no_18_1.png","j","pattern_practice","true","j","","","","","","","","","","","","","","","","","","","","","","",""
"","","","","","html-keyboard-response","11","113855","0.0-2.0-3.0-1.0","64135acfe82a5b0b236d3cb7","F1","batch6","","null","<p style=""font-size:30px;color:green;"">Correct!</p>","null","pattern_feedback","","","","","","","","","","","","","","","","","","","","","","","","",""
"","","","","","image-keyboard-response","12","115531","0.0-2.0-3.0-0.1","64135acfe82a5b0b236d3cb7","F1","batch6","","1673","stim/prac_yes_16_ver_w1.png","f","pattern_practice","true","f","","","","","","","","","","","","","","","","","","","","","","",""
"","","","","","html-keyboard-response","13","116549","0.0-2.0-3.0-1.1","64135acfe82a5b0b236d3cb7","F1","batch6","","null","<p style=""font-size:30px;color:green;"">Correct!</p>","null","pattern_feedback","","","","","","","","","","","","","","","","","","","","","","","","",""
"","","","","","image-keyboard-response","14","117986","0.0-2.0-3.0-0.2","64135acfe82a5b0b236d3cb7","F1","batch6","","1435","stim/prac_yes_20_dia_b1.png","j","pattern_practice","false","f","","","","","","","","","","","","","","","","","","","","","","",""
"","","","","","html-keyboard-response","15","119002","0.0-2.0-3.0-1.2","64135acfe82a5b0b236d3cb7","F1","batch6","","null","<p style=""font-size:30px;color:red;"">Wrong.</p>","null","pattern_feedback","","","","","","","","","","","","","","","","","","","","","","","","",""
"","","","","","image-keyboard-response","16","122275","0.0-2.0-3.0-0.3","64135acfe82a5b0b236d3cb7","F1","batch6","","3271","stim/prac_no_16_1.png","j","pattern_practice","true","j","","","","","","","","","","","","","","","","","","","","","","",""
"","","","","","html-keyboard-response","17","123301","0.0-2.0-3.0-1.3","64135acfe82a5b0b236d3cb7","F1","batch6","","null","<p style=""font-size:30px;color:green;"">Correct!</p>","null","pattern_feedback","","","","","","","","","","","","","","","","","","","","","","","","",""
"","","","","","image-keyboard-response","18","125198","0.0-2.0-3.0-0.4","64135acfe82a5b0b236d3cb7","F1","batch6","","1894","stim/prac_yes_18_hor_w1.png","f","pattern_practice","true","f","","","","","","","","","","","","","","","","","","","","","","",""
"","","","","","html-keyboard-response","19","126224","0.0-2.0-3.0-1.4","64135acfe82a5b0b236d3cb7","F1","batch6","","null","<p style=""font-size:30px;color:green;"">Correct!</p>","null","pattern_feedback","","","","","","","","","","","","","","","","","","","","","","","","",""
"","","","","","html-button-response","20","131494","0.0-2.0-4.0","64135acfe82a5b0b236d3cb7","F1","batch6","","5268","<p class=block-text> Good job! You are done with practice trials!<br>
        You responded correctly on 80% of the trials.<br>
        Press the button below to start official trials. Now you won't see any feedback about your response</p>","0","pattern_enter_official_trials","","","","","","","","","","","","","","","","","","","","","","","","",""
"","","","","","html-keyboard-response","21","132296","0.0-2.0-5.0-0.0","64135acfe82a5b0b236d3cb7","F1","batch6","","null","<p class=block-text>Trial 1 out of 78</p>","null","pattern_show_trial_num","","","","","","","","","","","","","","","","","","","","","","","","",""
"","","","","","image-keyboard-response","22","138988","0.0-2.0-5.0-1.0","64135acfe82a5b0b236d3cb7","F1","batch6","","6690","stim/yes_58_dia_w1_w.png","j","pattern_response","false","f","pattern_76","6690","false","0","","","","","","","","","","","","","","","","","","",""
"","","","","","html-keyboard-response","23","140292","0.0-2.0-5.0-0.1","64135acfe82a5b0b236d3cb7","F1","batch6","","null","<p class=block-text>Trial 2 out of 78</p>","null","pattern_show_trial_num","","","","","","","","","","","","","","","","","","","","","","","","",""
"","","","","","image-keyboard-response","24","141601","0.0-2.0-5.0-1.1","64135acfe82a5b0b236d3cb7","F1","batch6","","1306","stim/yes_12_hor_w1_w.png","f","pattern_response","true","f","pattern_42","1306","true","1","","","","","","","","","","","","","","","","","","",""
"","","","","","html-keyboard-response","25","142915","0.0-2.0-5.0-0.2","64135acfe82a5b0b236d3cb7","F1","batch6","","null","<p class=block-text>Trial 3 out of 78</p>","null","pattern_show_trial_num","","","","","","","","","","","","","","","","","","","","","","","","",""
"","","","","","image-keyboard-response","26","144450","0.0-2.0-5.0-1.2","64135acfe82a5b0b236d3cb7","F1","batch6","","1532","stim/yes_46_ver_b1_b.png","f","pattern_response","true","f","pattern_68","1532","true","2","","","","","","","","","","","","","","","","","","",""
"","","","","","html-keyboard-response","27","145768","0.0-2.0-5.0-0.3","64135acfe82a5b0b236d3cb7","F1","batch6","","null","<p class=block-text>Trial 4 out of 78</p>","null","pattern_show_trial_num","","","","","","","","","","","","","","","","","","","","","","","","",""
"","","","","","image-keyboard-response","28","151808","0.0-2.0-5.0-1.3","64135acfe82a5b0b236d3cb7","F1","batch6","","6039","stim/no_58_1_w.png","j","pattern_response","true","j","pattern_35","6039","true","3","","","","","","","","","","","","","","","","","","",""
"","","","","","html-keyboard-response","29","153123","0.0-2.0-5.0-0.4","64135acfe82a5b0b236d3cb7","F1","batch6","","null","<p class=block-text>Trial 5 out of 78</p>","null","pattern_show_trial_num","","","","","","","","","","","","","","","","","","","","","","","","",""
"","","","","","image-keyboard-response","30","160170","0.0-2.0-5.0-1.4","64135acfe82a5b0b236d3cb7","F1","batch6","","7046","stim/no_37_2_w.png","j","pattern_response","true","j","pattern_19","7046","true","4","","","","","","","","","","","","","","","","","","",""
"","","","","","html-keyboard-response","31","161492","0.0-2.0-5.0-0.5","64135acfe82a5b0b236d3cb7","F1","batch6","","null","<p class=block-text>Trial 6 out of 78</p>","null","pattern_show_trial_num","","","","","","","","","","","","","","","","","","","","","","","","",""
"","","","","","image-keyboard-response","32","165689","0.0-2.0-5.0-1.5","64135acfe82a5b0b236d3cb7","F1","batch6","","4194","stim/yes_42_dia_w1_w.png","f","pattern_response","true","f","pattern_64","4194","true","5","","","","","","","","","","","","","","","","","","",""
"","","","","","html-keyboard-response","33","167012","0.0-2.0-5.0-0.6","64135acfe82a5b0b236d3cb7","F1","batch6","","null","<p class=block-text>Trial 7 out of 78</p>","null","pattern_show_trial_num","","","","","","","","","","","","","","","","","","","","","","","","",""
"","","","","","image-keyboard-response","34","174552","0.0-2.0-5.0-1.6","64135acfe82a5b0b236d3cb7","F1","batch6","","7538","stim/no_33_1_b.png","j","pattern_response","true","j","pattern_15","7538","true","6","","","","","","","","","","","","","","","","","","",""
"","","","","","html-keyboard-response","35","175871","0.0-2.0-5.0-0.7","64135acfe82a5b0b236d3cb7","F1","batch6","","null","<p class=block-text>Trial 8 out of 78</p>","null","pattern_show_trial_num","","","","","","","","","","","","","","","","","","","","","","","","",""
"","","","","","image-keyboard-response","36","182751","0.0-2.0-5.0-1.7","64135acfe82a5b0b236d3cb7","F1","batch6","","6878","stim/no_30_1_b.png","j","pattern_response","true","j","pattern_13","6878","true","7","","","","","","","","","","","","","","","","","","",""
"","","","","","html-keyboard-response","37","184063","0.0-2.0-5.0-0.8","64135acfe82a5b0b236d3cb7","F1","batch6","","null","<p class=block-text>Trial 9 out of 78</p>","null","pattern_show_trial_num","","","","","","","","","","","","","","","","","","","","","","","","",""
"","","","","","image-keyboard-response","38","188835","0.0-2.0-5.0-1.8","64135acfe82a5b0b236d3cb7","F1","batch6","","4770","stim/no_25_1_b.png","j","pattern_response","true","j","pattern_09","4770","true","8","","","","","","","","","","","","","","","","","","",""
"","","","","","html-keyboard-response","39","190146","0.0-2.0-5.0-0.9","64135acfe82a5b0b236d3cb7","F1","batch6","","null","<p class=block-text>Trial 10 out of 78</p>","null","pattern_show_trial_num","","","","","","","","","","","","","","","","","","","","","","","","",""
"","","","","","image-keyboard-response","40","199986","0.0-2.0-5.0-1.9","64135acfe82a5b0b236d3cb7","F1","batch6","","9838","stim/no_45_1_w.png","j","pattern_response","true","j","pattern_25","9838","true","9","","","","","","","","","","","","","","","","","","",""
"","","","","","html-keyboard-response","41","201308","0.0-2.0-5.0-0.10","64135acfe82a5b0b236d3cb7","F1","batch6","","null","<p class=block-text>Trial 11 out of 78</p>","null","pattern_show_trial_num","","","","","","","","","","","","","","","","","","","","","","","","",""
"","","","","","image-keyboard-response","42","203676","0.0-2.0-5.0-1.10","64135acfe82a5b0b236d3cb7","F1","batch6","","2365","stim/no_15_1_w.png","j","pattern_response","true","j","pattern_03","2365","true","10","","","","","","","","","","","","","","","","","","",""
"","","","","","html-keyboard-response","43","204996","0.0-2.0-5.0-0.11","64135acfe82a5b0b236d3cb7","F1","batch6","","null","<p class=block-text>Trial 12 out of 78</p>","null","pattern_show_trial_num","","","","","","","","","","","","","","","","","","","","","","","","",""
"","","","","","image-keyboard-response","44","214057","0.0-2.0-5.0-1.11","64135acfe82a5b0b236d3cb7","F1","batch6","","9060","stim/yes_44_ver_w1_w.png","j","pattern_response","false","f","pattern_66","9060","false","10","","","","","","","","","","","","","","","","","","",""
"","","","","","html-keyboard-response","45","215365","0.0-2.0-5.0-0.12","64135acfe82a5b0b236d3cb7","F1","batch6","","null","<p class=block-text>Trial 13 out of 78</p>","null","pattern_show_trial_num","","","","","","","","","","","","","","","","","","","","","","","","",""
"","","","","","image-keyboard-response","46","222766","0.0-2.0-5.0-1.12","64135acfe82a5b0b236d3cb7","F1","batch6","","7399","stim/no_22_1_b.png","j","pattern_response","true","j","pattern_07","7399","true","11","","","","","","","","","","","","","","","","","","",""
"","","","","","html-keyboard-response","47","224078","0.0-2.0-5.0-0.13","64135acfe82a5b0b236d3cb7","F1","batch6","","null","<p class=block-text>Trial 14 out of 78</p>","null","pattern_show_trial_num","","","","","","","","","","","","","","","","","","","","","","","","",""
"","","","","","image-keyboard-response","48","227577","0.0-2.0-5.0-1.13","64135acfe82a5b0b236d3cb7","F1","batch6","","3498","stim/yes_30_ver_b1_b.png","f","pattern_response","true","f","pattern_54","3498","true","12","","","","","","","","","","","","","","","","","","",""
"","","","","","html-keyboard-response","49","228887","0.0-2.0-5.0-0.14","64135acfe82a5b0b236d3cb7","F1","batch6","","null","<p class=block-text>Trial 15 out of 78</p>","null","pattern_show_trial_num","","","","","","","","","","","","","","","","","","","","","","","","",""
"","","","","","image-keyboard-response","50","235982","0.0-2.0-5.0-1.14","64135acfe82a5b0b236d3cb7","F1","batch6","","7093","stim/yes_33_dia_w1_w.png","f","pattern_response","true","f","pattern_56","7093","true","13","","","","","","","","","","","","","","","","","","",""
"","","","","","html-keyboard-response","51","237296","0.0-2.0-5.0-0.15","64135acfe82a5b0b236d3cb7","F1","batch6","","null","<p class=block-text>Trial 16 out of 78</p>","null","pattern_show_trial_num","","","","","","","","","","","","","","","","","","","","","","","","",""
"","","","","","image-keyboard-response","52","238420","0.0-2.0-5.0-1.15","64135acfe82a5b0b236d3cb7","F1","batch6","","1121","stim/yes_26_dia_w2_w.png","f","pattern_response","true","f","pattern_50","1121","true","14","","","","","","","","","","","","","","","","","","",""
"","","","","","html-keyboard-response","53","239733","0.0-2.0-5.0-0.16","64135acfe82a5b0b236d3cb7","F1","batch6","","null","<p class=block-text>Trial 17 out of 78</p>","null","pattern_show_trial_num","","","","","","","","","","","","","","","","","","","","","","","","",""
"","","","","","image-keyboard-response","54","241940","0.0-2.0-5.0-1.16","64135acfe82a5b0b236d3cb7","F1","batch6","","2206","stim/yes_53_ver_b1_b.png","f","pattern_response","true","f","pattern_74","2206","true","15","","","","","","","","","","","","","","","","","","",""
"","","","","","html-keyboard-response","55","243252","0.0-2.0-5.0-0.17","64135acfe82a5b0b236d3cb7","F1","batch6","","null","<p class=block-text>Trial 18 out of 78</p>","null","pattern_show_trial_num","","","","","","","","","","","","","","","","","","","","","","","","",""
"","","","","","image-keyboard-response","56","244309","0.0-2.0-5.0-1.17","64135acfe82a5b0b236d3cb7","F1","batch6","","1054","stim/yes_23_ver_b1.png","f","pattern_response","true","f","pattern_48","1054","true","16","","","","","","","","","","","","","","","","","","",""
"","","","","","html-keyboard-response","57","245626","0.0-2.0-5.0-0.18","64135acfe82a5b0b236d3cb7","F1","batch6","","null","<p class=block-text>Trial 19 out of 78</p>","null","pattern_show_trial_num","","","","","","","","","","","","","","","","","","","","","","","","",""
"","","","","","image-keyboard-response","58","246643","0.0-2.0-5.0-1.18","64135acfe82a5b0b236d3cb7","F1","batch6","","1015","stim/yes_15_dia_b1u_b.png","f","pattern_response","true","f","pattern_44","1015","true","17","","","","","","","","","","","","","","","","","","",""
"","","","","","html-keyboard-response","59","247954","0.0-2.0-5.0-0.19","64135acfe82a5b0b236d3cb7","F1","batch6","","null","<p class=block-text>Trial 20 out of 78</p>","null","pattern_show_trial_num","","","","","","","","","","","","","","","","","","","","","","","","",""
"","","","","","image-keyboard-response","60","248837","0.0-2.0-5.0-1.19","64135acfe82a5b0b236d3cb7","F1","batch6","","883","stim/yes_39_hor_w1_w.png","f","pattern_response","true","f","pattern_62","883","true","18","","","","","","","","","","","","","","","","","","",""
"","","","","","html-keyboard-response","61","250158","0.0-2.0-5.0-0.20","64135acfe82a5b0b236d3cb7","F1","batch6","","null","<p class=block-text>Trial 21 out of 78</p>","null","pattern_show_trial_num","","","","","","","","","","","","","","","","","","","","","","","","",""
"","","","","","image-keyboard-response","62","251028","0.0-2.0-5.0-1.20","64135acfe82a5b0b236d3cb7","F1","batch6","","869","stim/yes_17_ver_b1_b.png","f","pattern_response","true","f","pattern_46","869","true","19","","","","","","","","","","","","","","","","","","",""
"","","","","","html-keyboard-response","63","252344","0.0-2.0-5.0-0.21","64135acfe82a5b0b236d3cb7","F1","batch6","","null","<p class=block-text>Trial 22 out of 78</p>","null","pattern_show_trial_num","","","","","","","","","","","","","","","","","","","","","","","","",""
"","","","","","image-keyboard-response","64","262116","0.0-2.0-5.0-1.21","64135acfe82a5b0b236d3cb7","F1","batch6","","9771","stim/no_67_1.png","j","pattern_response","true","j","pattern_39","9771","true","20","","","","","","","","","","","","","","","","","","",""
"","","","","","html-keyboard-response","65","263437","0.0-2.0-5.0-0.22","64135acfe82a5b0b236d3cb7","F1","batch6","","null","<p class=block-text>Trial 23 out of 78</p>","null","pattern_show_trial_num","","","","","","","","","","","","","","","","","","","","","","","","",""
"","","","","","image-keyboard-response","66","272689","0.0-2.0-5.0-1.22","64135acfe82a5b0b236d3cb7","F1","batch6","","9250","stim/no_53_1_b.png","j","pattern_response","true","j","pattern_33","9250","true","21","","","","","","","","","","","","","","","","","","",""
"","","","","","html-keyboard-response","67","274004","0.0-2.0-5.0-0.23","64135acfe82a5b0b236d3cb7","F1","batch6","","null","<p class=block-text>Trial 24 out of 78</p>","null","pattern_show_trial_num","","","","","","","","","","","","","","","","","","","","","","","","",""
"","","","","","image-keyboard-response","68","274867","0.0-2.0-5.0-1.23","64135acfe82a5b0b236d3cb7","F1","batch6","","862","stim/yes_29_hor_b1_b.png","f","pattern_response","true","f","pattern_52","862","true","22","","","","","","","","","","","","","","","","","","",""
"","","","","","html-keyboard-response","69","276174","0.0-2.0-5.0-0.24","64135acfe82a5b0b236d3cb7","F1","batch6","","null","<p class=block-text>Trial 25 out of 78</p>","null","pattern_show_trial_num","","","","","","","","","","","","","","","","","","","","","","","","",""
"","","","","","image-keyboard-response","70","278110","0.0-2.0-5.0-1.24","64135acfe82a5b0b236d3cb7","F1","batch6","","1934","stim/no_18_1_b.png","j","pattern_response","true","j","pattern_05","1934","true","23","","","","","","","","","","","","","","","","","","",""
"","","","","","html-keyboard-response","71","279425","0.0-2.0-5.0-0.25","64135acfe82a5b0b236d3cb7","F1","batch6","","null","<p class=block-text>Trial 26 out of 78</p>","null","pattern_show_trial_num","","","","","","","","","","","","","","","","","","","","","","","","",""
"","","","","","image-keyboard-response","72","289203","0.0-2.0-5.0-1.25","64135acfe82a5b0b236d3cb7","F1","batch6","","9776","stim/no_51_1.png","j","pattern_response","true","j","pattern_31","9776","true","24","","","","","","","","","","","","","","","","","","",""
"","","","","","html-keyboard-response","73","290519","0.0-2.0-5.0-0.26","64135acfe82a5b0b236d3cb7","F1","batch6","","null","<p class=block-text>Trial 27 out of 78</p>","null","pattern_show_trial_num","","","","","","","","","","","","","","","","","","","","","","","","",""
"","","","","","image-keyboard-response","74","291927","0.0-2.0-5.0-1.26","64135acfe82a5b0b236d3cb7","F1","batch6","","1406","stim/yes_37_hor_w1_w.png","f","pattern_response","true","f","pattern_60","1406","true","25","","","","","","","","","","","","","","","","","","",""
"","","","","","html-keyboard-response","75","293251","0.0-2.0-5.0-0.27","64135acfe82a5b0b236d3cb7","F1","batch6","","null","<p class=block-text>Trial 28 out of 78</p>","null","pattern_show_trial_num","","","","","","","","","","","","","","","","","","","","","","","","",""
"","","","","","image-keyboard-response","76","297053","0.0-2.0-5.0-1.27","64135acfe82a5b0b236d3cb7","F1","batch6","","3801","stim/no_28_2.png","j","pattern_response","true","j","pattern_11","3801","true","26","","","","","","","","","","","","","","","","","","",""
"","","","","","html-keyboard-response","77","298363","0.0-2.0-5.0-0.28","64135acfe82a5b0b236d3cb7","F1","batch6","","null","<p class=block-text>Trial 29 out of 78</p>","null","pattern_show_trial_num","","","","","","","","","","","","","","","","","","","","","","","","",""
"","","","","","image-keyboard-response","78","299900","0.0-2.0-5.0-1.28","64135acfe82a5b0b236d3cb7","F1","batch6","","1534","stim/yes_49_hor_w1_b.png","f","pattern_response","true","f","pattern_70","1534","true","27","","","","","","","","","","","","","","","","","","",""
"","","","","","html-keyboard-response","79","301223","0.0-2.0-5.0-0.29","64135acfe82a5b0b236d3cb7","F1","batch6","","null","<p class=block-text>Trial 30 out of 78</p>","null","pattern_show_trial_num","","","","","","","","","","","","","","","","","","","","","","","","",""
"","","","","","image-keyboard-response","80","306352","0.0-2.0-5.0-1.29","64135acfe82a5b0b236d3cb7","F1","batch6","","5128","stim/no_49_2_b.png","j","pattern_response","true","j","pattern_29","5128","true","28","","","","","","","","","","","","","","","","","","",""
"","","","","","html-keyboard-response","81","307668","0.0-2.0-5.0-0.30","64135acfe82a5b0b236d3cb7","F1","batch6","","null","<p class=block-text>Trial 31 out of 78</p>","null","pattern_show_trial_num","","","","","","","","","","","","","","","","","","","","","","","","",""
"","","","","","image-keyboard-response","82","312395","0.0-2.0-5.0-1.30","64135acfe82a5b0b236d3cb7","F1","batch6","","4725","stim/no_43_2_b.png","j","pattern_response","true","j","pattern_23","4725","true","29","","","","","","","","","","","","","","","","","","",""
"","","","","","html-keyboard-response","83","313704","0.0-2.0-5.0-0.31","64135acfe82a5b0b236d3cb7","F1","batch6","","null","<p class=block-text>Trial 32 out of 78</p>","null","pattern_show_trial_num","","","","","","","","","","","","","","","","","","","","","","","","",""
"","","","","","image-keyboard-response","84","318957","0.0-2.0-5.0-1.31","64135acfe82a5b0b236d3cb7","F1","batch6","","5251","stim/no_47_1_b.png","j","pattern_response","true","j","pattern_27","5251","true","30","","","","","","","","","","","","","","","","","","",""
"","","","","","html-keyboard-response","85","320271","0.0-2.0-5.0-0.32","64135acfe82a5b0b236d3cb7","F1","batch6","","null","<p class=block-text>Trial 33 out of 78</p>","null","pattern_show_trial_num","","","","","","","","","","","","","","","","","","","","","","","","",""
"","","","","","image-keyboard-response","86","321446","0.0-2.0-5.0-1.32","64135acfe82a5b0b236d3cb7","F1","batch6","","1174","stim/no_12_1.png","j","pattern_response","true","j","pattern_01","1174","true","31","","","","","","","","","","","","","","","","","","",""
"","","","","","html-keyboard-response","87","322757","0.0-2.0-5.0-0.33","64135acfe82a5b0b236d3cb7","F1","batch6","","null","<p class=block-text>Trial 34 out of 78</p>","null","pattern_show_trial_num","","","","","","","","","","","","","","","","","","","","","","","","",""
"","","","","","image-keyboard-response","88","325537","0.0-2.0-5.0-1.33","64135acfe82a5b0b236d3cb7","F1","batch6","","2779","stim/yes_63_dia_b1.png","f","pattern_response","true","f","pattern_78","2779","true","32","","","","","","","","","","","","","","","","","","",""
"","","","","","html-keyboard-response","89","326845","0.0-2.0-5.0-0.34","64135acfe82a5b0b236d3cb7","F1","batch6","","null","<p class=block-text>Trial 35 out of 78</p>","null","pattern_show_trial_num","","","","","","","","","","","","","","","","","","","","","","","","",""
"","","","","","image-keyboard-response","90","333387","0.0-2.0-5.0-1.34","64135acfe82a5b0b236d3cb7","F1","batch6","","6541","stim/no_39_1_w.png","j","pattern_response","true","j","pattern_21","6541","true","33","","","","","","","","","","","","","","","","","","",""
"","","","","","html-keyboard-response","91","334709","0.0-2.0-5.0-0.35","64135acfe82a5b0b236d3cb7","F1","batch6","","null","<p class=block-text>Trial 36 out of 78</p>","null","pattern_show_trial_num","","","","","","","","","","","","","","","","","","","","","","","","",""
"","","","","","image-keyboard-response","92","336003","0.0-2.0-5.0-1.35","64135acfe82a5b0b236d3cb7","F1","batch6","","1291","stim/yes_70_ver_b1.png","f","pattern_response","true","f","pattern_80","1291","true","34","","","","","","","","","","","","","","","","","","",""
"","","","","","html-keyboard-response","93","337315","0.0-2.0-5.0-0.36","64135acfe82a5b0b236d3cb7","F1","batch6","","null","<p class=block-text>Trial 37 out of 78</p>","null","pattern_show_trial_num","","","","","","","","","","","","","","","","","","","","","","","","",""
"","","","","","image-keyboard-response","94","338265","0.0-2.0-5.0-1.36","64135acfe82a5b0b236d3cb7","F1","batch6","","949","stim/yes_36_ver_w1_w.png","f","pattern_response","true","f","pattern_58","949","true","35","","","","","","","","","","","","","","","","","","",""
"","","","","","html-keyboard-response","95","339582","0.0-2.0-5.0-0.37","64135acfe82a5b0b236d3cb7","F1","batch6","","null","<p class=block-text>Trial 38 out of 78</p>","null","pattern_show_trial_num","","","","","","","","","","","","","","","","","","","","","","","","",""
"","","","","","image-keyboard-response","96","343740","0.0-2.0-5.0-1.37","64135acfe82a5b0b236d3cb7","F1","batch6","","4158","stim/yes_51_dia_b1.png","f","pattern_response","true","f","pattern_72","4158","true","36","","","","","","","","","","","","","","","","","","",""
"","","","","","html-keyboard-response","97","345061","0.0-2.0-5.0-0.38","64135acfe82a5b0b236d3cb7","F1","batch6","","null","<p class=block-text>Trial 39 out of 78</p>","null","pattern_show_trial_num","","","","","","","","","","","","","","","","","","","","","","","","",""
"","","","","","image-keyboard-response","98","348631","0.0-2.0-5.0-1.38","64135acfe82a5b0b236d3cb7","F1","batch6","","3569","stim/no_36_1_b.png","j","pattern_response","true","j","pattern_17","3569","true","37","","","","","","","","","","","","","","","","","","",""
"","","","","","image-keyboard-response","99","352173","0.0-2.0-6.0","64135acfe82a5b0b236d3cb7","F1","batch6","","3039","stim/empty_board.png","j","attention_check","true","j","","","","","500","[""f"",""j""]","","","","","","","","","","","","","","","","",""
"","","","","","html-keyboard-response","100","352988","0.0-2.0-7.0-0.0","64135acfe82a5b0b236d3cb7","F1","batch6","","null","<p class=block-text>Trial 40 out of 78</p>","null","pattern_show_trial_num","","","","","","","","","","","","","","","","","","","","","","","","",""
"","","","","","image-keyboard-response","101","364900","0.0-2.0-7.0-1.0","64135acfe82a5b0b236d3cb7","F1","batch6","","11910","stim/no_55_1_w.png","j","pattern_response","true","j","pattern_34","11910","true","38","","","","","","","","","","","","","","","","","","",""
"","","","","","html-keyboard-response","102","366214","0.0-2.0-7.0-0.1","64135acfe82a5b0b236d3cb7","F1","batch6","","null","<p class=block-text>Trial 41 out of 78</p>","null","pattern_show_trial_num","","","","","","","","","","","","","","","","","","","","","","","","",""
"","","","","","image-keyboard-response","103","376872","0.0-2.0-7.0-1.1","64135acfe82a5b0b236d3cb7","F1","batch6","","10656","stim/no_65_1_b.png","j","pattern_response","true","j","pattern_38","10656","true","39","","","","","","","","","","","","","","","","","","",""
"","","","","","html-keyboard-response","104","378186","0.0-2.0-7.0-0.2","64135acfe82a5b0b236d3cb7","F1","batch6","","null","<p class=block-text>Trial 42 out of 78</p>","null","pattern_show_trial_num","","","","","","","","","","","","","","","","","","","","","","","","",""
"","","","","","image-keyboard-response","105","389499","0.0-2.0-7.0-1.2","64135acfe82a5b0b236d3cb7","F1","batch6","","11311","stim/no_70_2.png","j","pattern_response","true","j","pattern_40","11311","true","40","","","","","","","","","","","","","","","","","","",""
"","","","","","html-keyboard-response","106","390805","0.0-2.0-7.0-0.3","64135acfe82a5b0b236d3cb7","F1","batch6","","null","<p class=block-text>Trial 43 out of 78</p>","null","pattern_show_trial_num","","","","","","","","","","","","","","","","","","","","","","","","",""
"","","","","","image-keyboard-response","107","393041","0.0-2.0-7.0-1.3","64135acfe82a5b0b236d3cb7","F1","batch6","","2233","stim/yes_48_dia_w1_w.png","f","pattern_response","true","f","pattern_69","2233","true","41","","","","","","","","","","","","","","","","","","",""
"","","","","","html-keyboard-response","108","394351","0.0-2.0-7.0-0.4","64135acfe82a5b0b236d3cb7","F1","batch6","","null","<p class=block-text>Trial 44 out of 78</p>","null","pattern_show_trial_num","","","","","","","","","","","","","","","","","","","","","","","","",""
"","","","","","image-keyboard-response","109","396246","0.0-2.0-7.0-1.4","64135acfe82a5b0b236d3cb7","F1","batch6","","1894","stim/no_26_1_w.png","j","pattern_response","true","j","pattern_10","1894","true","42","","","","","","","","","","","","","","","","","","",""
"","","","","","html-keyboard-response","110","397556","0.0-2.0-7.0-0.5","64135acfe82a5b0b236d3cb7","F1","batch6","","null","<p class=block-text>Trial 45 out of 78</p>","null","pattern_show_trial_num","","","","","","","","","","","","","","","","","","","","","","","","",""
"","","","","","image-keyboard-response","111","401138","0.0-2.0-7.0-1.5","64135acfe82a5b0b236d3cb7","F1","batch6","","3581","stim/yes_52_ver_w1.png","f","pattern_response","true","f","pattern_73","3581","true","43","","","","","","","","","","","","","","","","","","",""
"","","","","","html-keyboard-response","112","402453","0.0-2.0-7.0-0.6","64135acfe82a5b0b236d3cb7","F1","batch6","","null","<p class=block-text>Trial 46 out of 78</p>","null","pattern_show_trial_num","","","","","","","","","","","","","","","","","","","","","","","","",""
"","","","","","image-keyboard-response","113","412231","0.0-2.0-7.0-1.6","64135acfe82a5b0b236d3cb7","F1","batch6","","9775","stim/no_36_2_w.png","j","pattern_response","true","j","pattern_18","9775","true","44","","","","","","","","","","","","","","","","","","",""
"","","","","","html-keyboard-response","114","413551","0.0-2.0-7.0-0.7","64135acfe82a5b0b236d3cb7","F1","batch6","","null","<p class=block-text>Trial 47 out of 78</p>","null","pattern_show_trial_num","","","","","","","","","","","","","","","","","","","","","","","","",""
"","","","","","image-keyboard-response","115","420854","0.0-2.0-7.0-1.7","64135acfe82a5b0b236d3cb7","F1","batch6","","7300","stim/no_42_1_w.png","j","pattern_response","true","j","pattern_22","7300","true","45","","","","","","","","","","","","","","","","","","",""
"","","","","","html-keyboard-response","116","422171","0.0-2.0-7.0-0.8","64135acfe82a5b0b236d3cb7","F1","batch6","","null","<p class=block-text>Trial 48 out of 78</p>","null","pattern_show_trial_num","","","","","","","","","","","","","","","","","","","","","","","","",""
"","","","","","image-keyboard-response","117","430685","0.0-2.0-7.0-1.8","64135acfe82a5b0b236d3cb7","F1","batch6","","8513","stim/no_44_1.png","j","pattern_response","true","j","pattern_24","8513","true","46","","","","","","","","","","","","","","","","","","",""
"","","","","","html-keyboard-response","118","431995","0.0-2.0-7.0-0.9","64135acfe82a5b0b236d3cb7","F1","batch6","","null","<p class=block-text>Trial 49 out of 78</p>","null","pattern_show_trial_num","","","","","","","","","","","","","","","","","","","","","","","","",""
"","","","","","image-keyboard-response","119","436571","0.0-2.0-7.0-1.9","64135acfe82a5b0b236d3cb7","F1","batch6","","4574","stim/yes_40_dia_b1_b.png","f","pattern_response","true","f","pattern_63","4574","true","47","","","","","","","","","","","","","","","","","","",""
"","","","","","html-keyboard-response","120","437885","0.0-2.0-7.0-0.10","64135acfe82a5b0b236d3cb7","F1","batch6","","null","<p class=block-text>Trial 50 out of 78</p>","null","pattern_show_trial_num","","","","","","","","","","","","","","","","","","","","","","","","",""
"","","","","","image-keyboard-response","121","439011","0.0-2.0-7.0-1.10","64135acfe82a5b0b236d3cb7","F1","batch6","","1125","stim/yes_25_hor_b1_b.png","f","pattern_response","true","f","pattern_49","1125","true","48","","","","","","","","","","","","","","","","","","",""
"","","","","","html-keyboard-response","122","440322","0.0-2.0-7.0-0.11","64135acfe82a5b0b236d3cb7","F1","batch6","","null","<p class=block-text>Trial 51 out of 78</p>","null","pattern_show_trial_num","","","","","","","","","","","","","","","","","","","","","","","","",""
"","","","","","image-keyboard-response","123","446273","0.0-2.0-7.0-1.11","64135acfe82a5b0b236d3cb7","F1","batch6","","5950","stim/no_52_1.png","j","pattern_response","true","j","pattern_32","5950","true","49","","","","","","","","","","","","","","","","","","",""
"","","","","","html-keyboard-response","124","447583","0.0-2.0-7.0-0.12","64135acfe82a5b0b236d3cb7","F1","batch6","","null","<p class=block-text>Trial 52 out of 78</p>","null","pattern_show_trial_num","","","","","","","","","","","","","","","","","","","","","","","","",""
"","","","","","image-keyboard-response","125","449013","0.0-2.0-7.0-1.12","64135acfe82a5b0b236d3cb7","F1","batch6","","1430","stim/no_13_2_b.png","j","pattern_response","true","j","pattern_02","1430","true","50","","","","","","","","","","","","","","","","","","",""
"","","","","","html-keyboard-response","126","450331","0.0-2.0-7.0-0.13","64135acfe82a5b0b236d3cb7","F1","batch6","","null","<p class=block-text>Trial 53 out of 78</p>","null","pattern_show_trial_num","","","","","","","","","","","","","","","","","","","","","","","","",""
"","","","","","image-keyboard-response","127","461469","0.0-2.0-7.0-1.13","64135acfe82a5b0b236d3cb7","F1","batch6","","11137","stim/no_48_1_w.png","j","pattern_response","true","j","pattern_28","11137","true","51","","","","","","","","","","","","","","","","","","",""
"","","","","","html-keyboard-response","128","462790","0.0-2.0-7.0-0.14","64135acfe82a5b0b236d3cb7","F1","batch6","","null","<p class=block-text>Trial 54 out of 78</p>","null","pattern_show_trial_num","","","","","","","","","","","","","","","","","","","","","","","","",""
"","","","","","image-keyboard-response","129","473394","0.0-2.0-7.0-1.14","64135acfe82a5b0b236d3cb7","F1","batch6","","10603","stim/no_46_1_b.png","j","pattern_response","true","j","pattern_26","10603","true","52","","","","","","","","","","","","","","","","","","",""
"","","","","","html-keyboard-response","130","474706","0.0-2.0-7.0-0.15","64135acfe82a5b0b236d3cb7","F1","batch6","","null","<p class=block-text>Trial 55 out of 78</p>","null","pattern_show_trial_num","","","","","","","","","","","","","","","","","","","","","","","","",""
"","","","","","image-keyboard-response","131","476053","0.0-2.0-7.0-1.15","64135acfe82a5b0b236d3cb7","F1","batch6","","1346","stim/yes_17_dia_w1.png","f","pattern_response","true","f","pattern_45","1346","true","53","","","","","","","","","","","","","","","","","","",""
"","","","","","html-keyboard-response","132","477374","0.0-2.0-7.0-0.16","64135acfe82a5b0b236d3cb7","F1","batch6","","null","<p class=block-text>Trial 56 out of 78</p>","null","pattern_show_trial_num","","","","","","","","","","","","","","","","","","","","","","","","",""
"","","","","","image-keyboard-response","133","478021","0.0-2.0-7.0-1.16","64135acfe82a5b0b236d3cb7","F1","batch6","","645","stim/yes_22_ver_w1.png","f","pattern_response","true","f","pattern_47","645","true","54","","","","","","","","","","","","","","","","","","",""
"","","","","","html-keyboard-response","134","479339","0.0-2.0-7.0-0.17","64135acfe82a5b0b236d3cb7","F1","batch6","","null","<p class=block-text>Trial 57 out of 78</p>","null","pattern_show_trial_num","","","","","","","","","","","","","","","","","","","","","","","","",""
"","","","","","image-keyboard-response","135","481309","0.0-2.0-7.0-1.17","64135acfe82a5b0b236d3cb7","F1","batch6","","1969","stim/yes_45_hor_b2_b.png","j","pattern_response","false","f","pattern_67","1969","false","54","","","","","","","","","","","","","","","","","","",""
"","","","","","html-keyboard-response","136","482625","0.0-2.0-7.0-0.18","64135acfe82a5b0b236d3cb7","F1","batch6","","null","<p class=block-text>Trial 58 out of 78</p>","null","pattern_show_trial_num","","","","","","","","","","","","","","","","","","","","","","","","",""
"","","","","","image-keyboard-response","137","486202","0.0-2.0-7.0-1.18","64135acfe82a5b0b236d3cb7","F1","batch6","","3574","stim/yes_29_ver_w1.png","f","pattern_response","true","f","pattern_53","3574","true","55","","","","","","","","","","","","","","","","","","",""
"","","","","","html-keyboard-response","138","487523","0.0-2.0-7.0-0.19","64135acfe82a5b0b236d3cb7","F1","batch6","","null","<p class=block-text>Trial 59 out of 78</p>","null","pattern_show_trial_num","","","","","","","","","","","","","","","","","","","","","","","","",""
"","","","","","image-keyboard-response","139","495393","0.0-2.0-7.0-1.19","64135acfe82a5b0b236d3cb7","F1","batch6","","7869","stim/no_34_1_b.png","j","pattern_response","true","j","pattern_16","7869","true","56","","","","","","","","","","","","","","","","","","",""
"","","","","","html-keyboard-response","140","496703","0.0-2.0-7.0-0.20","64135acfe82a5b0b236d3cb7","F1","batch6","","null","<p class=block-text>Trial 60 out of 78</p>","null","pattern_show_trial_num","","","","","","","","","","","","","","","","","","","","","","","","",""
"","","","","","image-keyboard-response","141","502129","0.0-2.0-7.0-1.20","64135acfe82a5b0b236d3cb7","F1","batch6","","5424","stim/yes_60_ver_b1_b.png","f","pattern_response","true","f","pattern_77","5424","true","57","","","","","","","","","","","","","","","","","","",""
"","","","","","html-keyboard-response","142","503438","0.0-2.0-7.0-0.21","64135acfe82a5b0b236d3cb7","F1","batch6","","null","<p class=block-text>Trial 61 out of 78</p>","null","pattern_show_trial_num","","","","","","","","","","","","","","","","","","","","","","","","",""
"","","","","","image-keyboard-response","143","506827","0.0-2.0-7.0-1.21","64135acfe82a5b0b236d3cb7","F1","batch6","","3387","stim/yes_35_dia_b1.png","f","pattern_response","true","f","pattern_57","3387","true","58","","","","","","","","","","","","","","","","","","",""
"","","","","","html-keyboard-response","144","508142","0.0-2.0-7.0-0.22","64135acfe82a5b0b236d3cb7","F1","batch6","","null","<p class=block-text>Trial 62 out of 78</p>","null","pattern_show_trial_num","","","","","","","","","","","","","","","","","","","","","","","","",""
"","","","","","image-keyboard-response","145","509323","0.0-2.0-7.0-1.22","64135acfe82a5b0b236d3cb7","F1","batch6","","1179","stim/yes_43_ver_w1_w.png","f","pattern_response","true","f","pattern_65","1179","true","59","","","","","","","","","","","","","","","","","","",""
"","","","","","html-keyboard-response","146","510642","0.0-2.0-7.0-0.23","64135acfe82a5b0b236d3cb7","F1","batch6","","null","<p class=block-text>Trial 63 out of 78</p>","null","pattern_show_trial_num","","","","","","","","","","","","","","","","","","","","","","","","",""
"","","","","","image-keyboard-response","147","511756","0.0-2.0-7.0-1.23","64135acfe82a5b0b236d3cb7","F1","batch6","","1113","stim/no_20_1_w.png","j","pattern_response","true","j","pattern_06","1113","true","60","","","","","","","","","","","","","","","","","","",""
"","","","","","html-keyboard-response","148","513086","0.0-2.0-7.0-0.24","64135acfe82a5b0b236d3cb7","F1","batch6","","null","<p class=block-text>Trial 64 out of 78</p>","null","pattern_show_trial_num","","","","","","","","","","","","","","","","","","","","","","","","",""
"","","","","","image-keyboard-response","149","516132","0.0-2.0-7.0-1.24","64135acfe82a5b0b236d3cb7","F1","batch6","","3045","stim/no_29_1_b.png","j","pattern_response","true","j","pattern_12","3045","true","61","","","","","","","","","","","","","","","","","","",""
"","","","","","html-keyboard-response","150","517447","0.0-2.0-7.0-0.25","64135acfe82a5b0b236d3cb7","F1","batch6","","null","<p class=block-text>Trial 65 out of 78</p>","null","pattern_show_trial_num","","","","","","","","","","","","","","","","","","","","","","","","",""
"","","","","","image-keyboard-response","151","518853","0.0-2.0-7.0-1.25","64135acfe82a5b0b236d3cb7","F1","batch6","","1404","stim/no_17_1_w.png","j","pattern_response","true","j","pattern_04","1404","true","62","","","","","","","","","","","","","","","","","","",""
"","","","","","html-keyboard-response","152","520163","0.0-2.0-7.0-0.26","64135acfe82a5b0b236d3cb7","F1","batch6","","null","<p class=block-text>Trial 66 out of 78</p>","null","pattern_show_trial_num","","","","","","","","","","","","","","","","","","","","","","","","",""
"","","","","","image-keyboard-response","153","525493","0.0-2.0-7.0-1.26","64135acfe82a5b0b236d3cb7","F1","batch6","","5327","stim/yes_50_dia_w1.png","j","pattern_response","false","f","pattern_71","5327","false","62","","","","","","","","","","","","","","","","","","",""
"","","","","","html-keyboard-response","154","526801","0.0-2.0-7.0-0.27","64135acfe82a5b0b236d3cb7","F1","batch6","","null","<p class=block-text>Trial 67 out of 78</p>","null","pattern_show_trial_num","","","","","","","","","","","","","","","","","","","","","","","","",""
"","","","","","image-keyboard-response","155","529124","0.0-2.0-7.0-1.27","64135acfe82a5b0b236d3cb7","F1","batch6","","2321","stim/no_32_1_w.png","j","pattern_response","true","j","pattern_14","2321","true","63","","","","","","","","","","","","","","","","","","",""
"","","","","","html-keyboard-response","156","530446","0.0-2.0-7.0-0.28","64135acfe82a5b0b236d3cb7","F1","batch6","","null","<p class=block-text>Trial 68 out of 78</p>","null","pattern_show_trial_num","","","","","","","","","","","","","","","","","","","","","","","","",""
"","","","","","image-keyboard-response","157","532766","0.0-2.0-7.0-1.28","64135acfe82a5b0b236d3cb7","F1","batch6","","2316","stim/yes_37_dia_w1.png","j","pattern_response","false","f","pattern_59","2316","false","63","","","","","","","","","","","","","","","","","","",""
"","","","","","html-keyboard-response","158","534084","0.0-2.0-7.0-0.29","64135acfe82a5b0b236d3cb7","F1","batch6","","null","<p class=block-text>Trial 69 out of 78</p>","null","pattern_show_trial_num","","","","","","","","","","","","","","","","","","","","","","","","",""
"","","","","","image-keyboard-response","159","536066","0.0-2.0-7.0-1.29","64135acfe82a5b0b236d3cb7","F1","batch6","","1980","stim/yes_31_hor_b1.png","f","pattern_response","true","f","pattern_55","1980","true","64","","","","","","","","","","","","","","","","","","",""
"","","","","","html-keyboard-response","160","537383","0.0-2.0-7.0-0.30","64135acfe82a5b0b236d3cb7","F1","batch6","","null","<p class=block-text>Trial 70 out of 78</p>","null","pattern_show_trial_num","","","","","","","","","","","","","","","","","","","","","","","","",""
"","","","","","image-keyboard-response","161","540810","0.0-2.0-7.0-1.30","64135acfe82a5b0b236d3cb7","F1","batch6","","3426","stim/no_38_1_b.png","j","pattern_response","true","j","pattern_20","3426","true","65","","","","","","","","","","","","","","","","","","",""
"","","","","","html-keyboard-response","162","542122","0.0-2.0-7.0-0.31","64135acfe82a5b0b236d3cb7","F1","batch6","","null","<p class=block-text>Trial 71 out of 78</p>","null","pattern_show_trial_num","","","","","","","","","","","","","","","","","","","","","","","","",""
"","","","","","image-keyboard-response","163","547791","0.0-2.0-7.0-1.31","64135acfe82a5b0b236d3cb7","F1","batch6","","5667","stim/no_50_1.png","j","pattern_response","true","j","pattern_30","5667","true","66","","","","","","","","","","","","","","","","","","",""
"","","","","","html-keyboard-response","164","549111","0.0-2.0-7.0-0.32","64135acfe82a5b0b236d3cb7","F1","batch6","","null","<p class=block-text>Trial 72 out of 78</p>","null","pattern_show_trial_num","","","","","","","","","","","","","","","","","","","","","","","","",""
"","","","","","image-keyboard-response","165","550441","0.0-2.0-7.0-1.32","64135acfe82a5b0b236d3cb7","F1","batch6","","1329","stim/yes_67_hor_b1.png","f","pattern_response","true","f","pattern_79","1329","true","67","","","","","","","","","","","","","","","","","","",""
"","","","","","html-keyboard-response","166","551765","0.0-2.0-7.0-0.33","64135acfe82a5b0b236d3cb7","F1","batch6","","null","<p class=block-text>Trial 73 out of 78</p>","null","pattern_show_trial_num","","","","","","","","","","","","","","","","","","","","","","","","",""
"","","","","","image-keyboard-response","167","553073","0.0-2.0-7.0-1.33","64135acfe82a5b0b236d3cb7","F1","batch6","","1308","stim/yes_55_hor_w1_w.png","f","pattern_response","true","f","pattern_75","1308","true","68","","","","","","","","","","","","","","","","","","",""
"","","","","","html-keyboard-response","168","554389","0.0-2.0-7.0-0.34","64135acfe82a5b0b236d3cb7","F1","batch6","","null","<p class=block-text>Trial 74 out of 78</p>","null","pattern_show_trial_num","","","","","","","","","","","","","","","","","","","","","","","","",""
"","","","","","image-keyboard-response","169","555479","0.0-2.0-7.0-1.34","64135acfe82a5b0b236d3cb7","F1","batch6","","1089","stim/no_23_1.png","j","pattern_response","true","j","pattern_08","1089","true","69","","","","","","","","","","","","","","","","","","",""
"","","","","","html-keyboard-response","170","556791","0.0-2.0-7.0-0.35","64135acfe82a5b0b236d3cb7","F1","batch6","","null","<p class=block-text>Trial 75 out of 78</p>","null","pattern_show_trial_num","","","","","","","","","","","","","","","","","","","","","","","","",""
"","","","","","image-keyboard-response","171","558293","0.0-2.0-7.0-1.35","64135acfe82a5b0b236d3cb7","F1","batch6","","1501","stim/yes_38_hor_b1_b.png","f","pattern_response","true","f","pattern_61","1501","true","70","","","","","","","","","","","","","","","","","","",""
"","","","","","html-keyboard-response","172","559605","0.0-2.0-7.0-0.36","64135acfe82a5b0b236d3cb7","F1","batch6","","null","<p class=block-text>Trial 76 out of 78</p>","null","pattern_show_trial_num","","","","","","","","","","","","","","","","","","","","","","","","",""
"","","","","","image-keyboard-response","173","560523","0.0-2.0-7.0-1.36","64135acfe82a5b0b236d3cb7","F1","batch6","","916","stim/yes_28_ver_b1.png","f","pattern_response","true","f","pattern_51","916","true","71","","","","","","","","","","","","","","","","","","",""
"","","","","","html-keyboard-response","174","561847","0.0-2.0-7.0-0.37","64135acfe82a5b0b236d3cb7","F1","batch6","","null","<p class=block-text>Trial 77 out of 78</p>","null","pattern_show_trial_num","","","","","","","","","","","","","","","","","","","","","","","","",""
"","","","","","image-keyboard-response","175","562561","0.0-2.0-7.0-1.37","64135acfe82a5b0b236d3cb7","F1","batch6","","712","stim/yes_14_hor_b1_w.png","f","pattern_response","true","f","pattern_43","712","true","72","","","","","","","","","","","","","","","","","","",""
"","","","","","html-keyboard-response","176","563880","0.0-2.0-7.0-0.38","64135acfe82a5b0b236d3cb7","F1","batch6","","null","<p class=block-text>Trial 78 out of 78</p>","null","pattern_show_trial_num","","","","","","","","","","","","","","","","","","","","","","","","",""
"","","","","","image-keyboard-response","177","571617","0.0-2.0-7.0-1.38","64135acfe82a5b0b236d3cb7","F1","batch6","","7736","stim/no_62_1_w.png","j","pattern_response","true","j","pattern_36","7736","true","73","","","","","","","","","","","","","","","","","","",""
"","","","","","html-button-response","178","578509","0.0-2.0-8.0","64135acfe82a5b0b236d3cb7","F1","batch6","","6385","<p class = block-text>This concludes the 4-in-a-row detection game.Thank you for your responses!<br>
            You responded correctly on 94% of the trials.<br>
            When you are ready, press ""Continue"" button to continue </p>","0","","","","","","","","","","","","","","","","","","","","","","","","","",""
"true","","","","","fullscreen","179","582445","0.0-3.0-0.0","64135acfe82a5b0b236d3cb7","F1","batch6","","","","","","","","","","","","","","","","","","","","","","","","","","","","","",""
"","","","","","instructions","180","670984","0.0-3.0-1.0-0.0-0.0","64135acfe82a5b0b236d3cb7","F1","batch6","[{""page_index"":0,""viewing_time"":17795},{""page_index"":1,""viewing_time"":12000},{""page_index"":2,""viewing_time"":22896},{""page_index"":3,""viewing_time"":13193},{""page_index"":4,""viewing_time"":7316},{""page_index"":5,""viewing_time"":11874},{""page_index"":6,""viewing_time"":3465}]","88539","","","tol-instructions","","","","","","","","","","","","","","","","","","","","","","","","",""
"","","","","","html-button-response","181","671914","0.0-3.0-1.0-1.0-0.0","64135acfe82a5b0b236d3cb7","F1","batch6","","929","<p class=block-text> Let's answer a few questions <br>","0","tol_enter_quiz","","","","","","","","","","","","","","","","","","","","","","","","",""
"","","","","","html-button-response","182","676892","0.0-3.0-1.0-1.0-1.0","64135acfe82a5b0b236d3cb7","F1","batch6","","4978","<p class = block-text>True or False: You can only move the ball on top of a peg. <br></p>","0","tol_quiz","true","","","","","","","","","","","","","","","","","","","","","","","",""
"","","","","","html-button-response","183","677688","0.0-3.0-1.0-1.0-2.0","64135acfe82a5b0b236d3cb7","F1","batch6","","795","<p class = block-text>Correct! You can only move the ball on top of a peg.</p>","0","tol_quiz_feedback","","","","","","","","","","","","","","","","","","","","","","","","",""
"","","","","","html-button-response","184","683891","0.0-3.0-1.0-1.0-3.0","64135acfe82a5b0b236d3cb7","F1","batch6","","6203","<p class = block-text>True or False: You should try to match your board with the target board with fewest moves possible. <br></p>","0","tol_quiz","true","","","","","","","","","","","","","","","","","","","","","","","",""
"","","","","","html-button-response","185","684632","0.0-3.0-1.0-1.0-4.0","64135acfe82a5b0b236d3cb7","F1","batch6","","739","<p class = block-text>Correct! </p>","0","tol_quiz_feedback","","","","","","","","","","","","","","","","","","","","","","","","",""
"","","","","","html-button-response","186","686054","0.0-3.0-2.0","64135acfe82a5b0b236d3cb7","F1","batch6","","1421","<p class=block-text> Now that you've understood the game, let's practice a few easier examples before we start!<br> <br>","0","","","","","","","","","","","","","","","","","","","","","","","","","",""
"","","","","","single-stim-button","187","689139","0.0-3.0-3.0-0.0","64135acfe82a5b0b236d3cb7","F1","batch6","","3084","","","tol_practice","","","","","","","","","tol_peg_2","3084","3084","0","[[1,2,0],[0,0],[0]]","1","[[1,2,0],[0,0],[3]]","practice","3084","","","","","","","",""
"","","","","","single-stim-button","188","692213","0.0-3.0-3.0-1.0","64135acfe82a5b0b236d3cb7","F1","batch6","","3074","","","tol_practice","","","","","","","","","tol_peg_3","3074","3074","0","[[1,2,0],[0,0],[3]]","1","[[1,2,0],[0,0],[3]]","practice","3074","","","","","","","",""
"","","","","","poldrack-single-stim","189","693218","0.0-3.0-4.0","64135acfe82a5b0b236d3cb7","F1","batch6","","-1","","","tol_feedback","true","","","","","","","","","1000","1000","500","","","","","","-1","none","true","","0","","",""
"","","","","","single-stim-button","190","703601","0.0-3.0-5.0-0.0","64135acfe82a5b0b236d3cb7","F1","batch6","","10383","","","tol_practice","","","","","","","","","tol_peg_1","10383","10383","0","[[1,0,0],[3,0],[0]]","2","[[0,0,0],[3,1],[2]]","practice","10383","","","","","","","",""
"","","","","","single-stim-button","191","705089","0.0-3.0-5.0-1.0","64135acfe82a5b0b236d3cb7","F1","batch6","","1488","","","tol_practice","","","","","","","","","tol_peg_3","1488","1488","0","[[1,0,0],[3,0],[2]]","2","[[0,0,0],[3,1],[2]]","practice","1488","","","","","","","",""
"","","","","","single-stim-button","192","707345","0.0-3.0-5.1-0.1","64135acfe82a5b0b236d3cb7","F1","batch6","","2254","","","tol_practice","","","","","","","","","tol_peg_1","2254","2254","0","[[0,0,0],[3,0],[2]]","3","[[0,0,0],[3,1],[2]]","practice","2254","","","","","","","",""
"","","","","","single-stim-button","193","708426","0.0-3.0-5.1-1.1","64135acfe82a5b0b236d3cb7","F1","batch6","","1081","","","tol_practice","","","","","","","","","tol_peg_2","1081","1081","0","[[0,0,0],[3,1],[2]]","3","[[0,0,0],[3,1],[2]]","practice","1081","","","","","","","",""
"","","","","","poldrack-single-stim","194","709437","0.0-3.0-6.0","64135acfe82a5b0b236d3cb7","F1","batch6","","-1","","","tol_feedback","true","","","","","","","","","1000","1000","500","","","","","","-1","none","true","","0","","",""
"","","","","","single-stim-button","195","713883","0.0-3.0-7.0-0.0","64135acfe82a5b0b236d3cb7","F1","batch6","","4446","","","tol_practice","","","","","","","","","tol_peg_2","4446","4446","0","[[1,2,0],[0,0],[0]]","4","[[1,0,0],[2,0],[3]]","practice","4446","","","","","","","",""
"","","","","","single-stim-button","196","714526","0.0-3.0-7.0-1.0","64135acfe82a5b0b236d3cb7","F1","batch6","","642","","","tol_practice","","","","","","","","","tol_peg_3","642","642","0","[[1,2,0],[0,0],[3]]","4","[[1,0,0],[2,0],[3]]","practice","642","","","","","","","",""
"","","","","","single-stim-button","197","715955","0.0-3.0-7.1-0.1","64135acfe82a5b0b236d3cb7","F1","batch6","","1428","","","tol_practice","","","","","","","","","tol_peg_1","1428","1428","0","[[1,0,0],[0,0],[3]]","5","[[1,0,0],[2,0],[3]]","practice","1428","","","","","","","",""
"","","","","","single-stim-button","198","716347","0.0-3.0-7.1-1.1","64135acfe82a5b0b236d3cb7","F1","batch6","","392","","","tol_practice","","","","","","","","","tol_peg_2","392","392","0","[[1,0,0],[2,0],[3]]","5","[[1,0,0],[2,0],[3]]","practice","392","","","","","","","",""
"","","","","","poldrack-single-stim","199","717351","0.0-3.0-8.0","64135acfe82a5b0b236d3cb7","F1","batch6","","-1","","","tol_feedback","true","","","","","","","","","1000","1000","500","","","","","","-1","none","true","","0","","",""
"","","","","","html-button-response","200","719032","0.0-3.0-9.0","64135acfe82a5b0b236d3cb7","F1","batch6","","1681","<div class = centerbox><p class = center-block-text>Great job! You are done with practice trials<br>You are about to start official trials.<br> <br> Problem <strong>1</strong> out of 25 problems</p></div>","0","tol_instruction","","","","","","","","","","","","","","","","","","","","","","","","",""
"","","","","","single-stim-button","201","726037","0.0-3.0-10.0-0.0","64135acfe82a5b0b236d3cb7","F1","batch6","","6002","","","tol_tohand","","","","","","","","","tol_peg_1","6002","6002","0","[[1,0,0],[3,0],[0]]","1","[[1,3,0],[2,0],[0]]","0","0","","","","","","3","",""
"","","","","","single-stim-button","202","727014","0.0-3.0-10.0-1.0","64135acfe82a5b0b236d3cb7","F1","batch6","","976","","","tol_toboard","","","","","","","","","tol_peg_3","976","976","0","[[1,0,0],[3,0],[2]]","1","[[1,3,0],[2,0],[0]]","0","0","","","","","","3","",""
"","","","","","single-stim-button","203","727940","0.0-3.0-10.1-0.1","64135acfe82a5b0b236d3cb7","F1","batch6","","925","","","tol_tohand","","","","","","","","","tol_peg_2","925","925","0","[[1,0,0],[0,0],[2]]","2","[[1,3,0],[2,0],[0]]","0","0","","","","","","3","",""
"","","","","","single-stim-button","204","729310","0.0-3.0-10.1-1.1","64135acfe82a5b0b236d3cb7","F1","batch6","","1370","","","tol_toboard","","","","","","","","","tol_peg_1","1370","1370","0","[[1,3,0],[0,0],[2]]","2","[[1,3,0],[2,0],[0]]","0","0","","","","","","3","",""
"","","","","","single-stim-button","205","730163","0.0-3.0-10.2-0.2","64135acfe82a5b0b236d3cb7","F1","batch6","","852","","","tol_tohand","","","","","","","","","tol_peg_3","852","852","0","[[1,3,0],[0,0],[0]]","3","[[1,3,0],[2,0],[0]]","0","0","","","","","","3","",""
"","","","","","single-stim-button","206","731081","0.0-3.0-10.2-1.2","64135acfe82a5b0b236d3cb7","F1","batch6","","918","","","tol_toboard","","","","","","","","","tol_peg_2","918","918","0","[[1,3,0],[2,0],[0]]","3","[[1,3,0],[2,0],[0]]","0","0","","","","","","3","",""
"","","","","","poldrack-single-stim","207","732086","0.0-3.0-11.0","64135acfe82a5b0b236d3cb7","F1","batch6","","-1","","","tol_feedback","true","","","","","","","","","1000","1000","500","","","","","","-1","none","true","6002","7779","","",""
"","","","","","html-button-response","208","733048","0.0-3.0-12.0","64135acfe82a5b0b236d3cb7","F1","batch6","","960","<div class = centerbox><p class = center-block-text>problem <strong>2</strong> out of 25 problems</p></div>","0","tol_trial_num","","","","","","","","","","","","","","","","","","","","","","","","",""
"","","","","","single-stim-button","209","738513","0.0-3.0-13.0-0.0","64135acfe82a5b0b236d3cb7","F1","batch6","","5464","","","tol_tohand","","","","","","","","","tol_peg_1","5464","5464","0","[[1,0,0],[3,0],[0]]","1","[[2,1,3],[0,0],[0]]","1","0","","","","","","5","",""
"","","","","","single-stim-button","210","755054","0.0-3.0-13.0-1.0","64135acfe82a5b0b236d3cb7","F1","batch6","","16540","","","tol_toboard","","","","","","","","","tol_peg_3","16540","16540","0","[[1,0,0],[3,0],[2]]","1","[[2,1,3],[0,0],[0]]","1","0","","","","","","5","",""
"","","","","","single-stim-button","211","755943","0.0-3.0-13.1-0.1","64135acfe82a5b0b236d3cb7","F1","batch6","","888","","","tol_tohand","","","","","","","","","tol_peg_1","888","888","0","[[0,0,0],[3,0],[2]]","2","[[2,1,3],[0,0],[0]]","1","0","","","","","","5","",""
"","","","","","single-stim-button","212","756878","0.0-3.0-13.1-1.1","64135acfe82a5b0b236d3cb7","F1","batch6","","934","","","tol_toboard","","","","","","","","","tol_peg_2","934","934","0","[[0,0,0],[3,1],[2]]","2","[[2,1,3],[0,0],[0]]","1","0","","","","","","5","",""
"","","","","","single-stim-button","213","757620","0.0-3.0-13.2-0.2","64135acfe82a5b0b236d3cb7","F1","batch6","","742","","","tol_tohand","","","","","","","","","tol_peg_3","742","742","0","[[0,0,0],[3,1],[0]]","3","[[2,1,3],[0,0],[0]]","1","0","","","","","","5","",""
"","","","","","single-stim-button","214","758444","0.0-3.0-13.2-1.2","64135acfe82a5b0b236d3cb7","F1","batch6","","824","","","tol_toboard","","","","","","","","","tol_peg_1","824","824","0","[[2,0,0],[3,1],[0]]","3","[[2,1,3],[0,0],[0]]","1","0","","","","","","5","",""
"","","","","","single-stim-button","215","759080","0.0-3.0-13.3-0.3","64135acfe82a5b0b236d3cb7","F1","batch6","","635","","","tol_tohand","","","","","","","","","tol_peg_2","635","635","0","[[2,0,0],[3,0],[0]]","4","[[2,1,3],[0,0],[0]]","1","0","","","","","","5","",""
"","","","","","single-stim-button","216","759755","0.0-3.0-13.3-1.3","64135acfe82a5b0b236d3cb7","F1","batch6","","674","","","tol_toboard","","","","","","","","","tol_peg_1","674","674","0","[[2,1,0],[3,0],[0]]","4","[[2,1,3],[0,0],[0]]","1","0","","","","","","5","",""
"","","","","","single-stim-button","217","761954","0.0-3.0-13.4-0.4","64135acfe82a5b0b236d3cb7","F1","batch6","","2199","","","tol_tohand","","","","","","","","","tol_peg_2","2199","2199","0","[[2,1,0],[0,0],[0]]","5","[[2,1,3],[0,0],[0]]","1","0","","","","","","5","",""
"","","","","","single-stim-button","218","762318","0.0-3.0-13.4-1.4","64135acfe82a5b0b236d3cb7","F1","batch6","","364","","","tol_toboard","","","","","","","","","tol_peg_2","364","364","0","[[2,1,0],[3,0],[0]]","5","[[2,1,3],[0,0],[0]]","1","0","","","","","","5","",""
"","","","","","single-stim-button","219","763021","0.0-3.0-13.5-0.5","64135acfe82a5b0b236d3cb7","F1","batch6","","703","","","tol_tohand","","","","","","","","","tol_peg_2","703","703","0","[[2,1,0],[0,0],[0]]","6","[[2,1,3],[0,0],[0]]","1","0","","","","","","5","",""
"","","","","","single-stim-button","220","763273","0.0-3.0-13.5-1.5","64135acfe82a5b0b236d3cb7","F1","batch6","","250","","","tol_toboard","","","","","","","","","tol_peg_1","250","250","0","[[2,1,3],[0,0],[0]]","6","[[2,1,3],[0,0],[0]]","1","0","","","","","","5","",""
"","","","","","poldrack-single-stim","221","764273","0.0-3.0-14.0","64135acfe82a5b0b236d3cb7","F1","batch6","","-1","","","tol_feedback","true","","","","","","","","","1000","1000","500","","","","","","-1","none","true","5464","10631","","",""
"","","","","","html-button-response","222","767195","0.0-3.0-15.0","64135acfe82a5b0b236d3cb7","F1","batch6","","2922","<div class = centerbox><p class = center-block-text>problem <strong>3</strong> out of 25 problems</p></div>","0","tol_trial_num","","","","","","","","","","","","","","","","","","","","","","","","",""
"","","","","","single-stim-button","223","784586","0.0-3.0-16.0-0.0","64135acfe82a5b0b236d3cb7","F1","batch6","","17390","","","tol_tohand","","","","","","","","","tol_peg_3","17390","17390","0","[[2,3,0],[0,0],[0]]","1","[[1,2,0],[3,0],[0]]","2","0","","","","","","4","",""
"","","","","","single-stim-button","224","788043","0.0-3.0-16.0-1.0","64135acfe82a5b0b236d3cb7","F1","batch6","","3456","","","tol_toboard","","","","","","","","","tol_peg_2","3456","3456","0","[[2,3,0],[1,0],[0]]","1","[[1,2,0],[3,0],[0]]","2","0","","","","","","4","",""
"","","","","","single-stim-button","225","788522","0.0-3.0-16.1-0.1","64135acfe82a5b0b236d3cb7","F1","batch6","","479","","","tol_tohand","","","","","","","","","tol_peg_1","479","479","0","[[2,0,0],[1,0],[0]]","2","[[1,2,0],[3,0],[0]]","2","0","","","","","","4","",""
"","","","","","single-stim-button","226","789303","0.0-3.0-16.1-1.1","64135acfe82a5b0b236d3cb7","F1","batch6","","781","","","tol_toboard","","","","","","","","","tol_peg_2","781","781","0","[[2,0,0],[1,3],[0]]","2","[[1,2,0],[3,0],[0]]","2","0","","","","","","4","",""
"","","","","","single-stim-button","227","790045","0.0-3.0-16.2-0.2","64135acfe82a5b0b236d3cb7","F1","batch6","","740","","","tol_tohand","","","","","","","","","tol_peg_1","740","740","0","[[0,0,0],[1,3],[0]]","3","[[1,2,0],[3,0],[0]]","2","0","","","","","","4","",""
"","","","","","single-stim-button","228","792040","0.0-3.0-16.2-1.2","64135acfe82a5b0b236d3cb7","F1","batch6","","1995","","","tol_toboard","","","","","","","","","tol_peg_3","1995","1995","0","[[0,0,0],[1,3],[2]]","3","[[1,2,0],[3,0],[0]]","2","0","","","","","","4","",""
"","","","","","single-stim-button","229","794551","0.0-3.0-16.3-0.3","64135acfe82a5b0b236d3cb7","F1","batch6","","2509","","","tol_tohand","","","","","","","","","tol_peg_2","2509","2509","0","[[0,0,0],[1,0],[2]]","4","[[1,2,0],[3,0],[0]]","2","0","","","","","","4","",""
"","","","","","single-stim-button","230","799965","0.0-3.0-16.3-1.3","64135acfe82a5b0b236d3cb7","F1","batch6","","5413","","","tol_toboard","","","","","","","","","tol_peg_2","5413","5413","0","[[0,0,0],[1,3],[2]]","4","[[1,2,0],[3,0],[0]]","2","0","","","","","","4","",""
"","","","","","single-stim-button","231","804451","0.0-3.0-16.4-0.4","64135acfe82a5b0b236d3cb7","F1","batch6","","4486","","","tol_tohand","","","","","","","","","tol_peg_3","4486","4486","0","[[0,0,0],[1,3],[0]]","5","[[1,2,0],[3,0],[0]]","2","0","","","","","","4","",""
"","","","","","single-stim-button","232","805037","0.0-3.0-16.4-1.4","64135acfe82a5b0b236d3cb7","F1","batch6","","585","","","tol_toboard","","","","","","","","","tol_peg_1","585","585","0","[[2,0,0],[1,3],[0]]","5","[[1,2,0],[3,0],[0]]","2","0","","","","","","4","",""
"","","","","","single-stim-button","233","817414","0.0-3.0-16.5-0.5","64135acfe82a5b0b236d3cb7","F1","batch6","","12376","","","tol_tohand","","","","","","","","","tol_peg_1","12376","12376","0","[[0,0,0],[1,3],[0]]","6","[[1,2,0],[3,0],[0]]","2","0","","","","","","4","",""
"","","","","","single-stim-button","234","818567","0.0-3.0-16.5-1.5","64135acfe82a5b0b236d3cb7","F1","batch6","","1152","","","tol_toboard","","","","","","","","","tol_peg_3","1152","1152","0","[[0,0,0],[1,3],[2]]","6","[[1,2,0],[3,0],[0]]","2","0","","","","","","4","",""
"","","","","","single-stim-button","235","821991","0.0-3.0-16.6-0.6","64135acfe82a5b0b236d3cb7","F1","batch6","","3423","","","tol_tohand","","","","","","","","","tol_peg_2","3423","3423","0","[[0,0,0],[1,0],[2]]","7","[[1,2,0],[3,0],[0]]","2","0","","","","","","4","",""
"","","","","","single-stim-button","236","835829","0.0-3.0-16.6-1.6","64135acfe82a5b0b236d3cb7","F1","batch6","","13838","","","tol_toboard","","","","","","","","","tol_peg_2","13838","13838","0","[[0,0,0],[1,3],[2]]","7","[[1,2,0],[3,0],[0]]","2","0","","","","","","4","",""
"","","","","","single-stim-button","237","837783","0.0-3.0-16.7-0.7","64135acfe82a5b0b236d3cb7","F1","batch6","","1952","","","tol_tohand","","","","","","","","","tol_peg_3","1952","1952","0","[[0,0,0],[1,3],[0]]","8","[[1,2,0],[3,0],[0]]","2","0","","","","","","4","",""
"","","","","","single-stim-button","238","838636","0.0-3.0-16.7-1.7","64135acfe82a5b0b236d3cb7","F1","batch6","","853","","","tol_toboard","","","","","","","","","tol_peg_1","853","853","0","[[2,0,0],[1,3],[0]]","8","[[1,2,0],[3,0],[0]]","2","0","","","","","","4","",""
"","","","","","single-stim-button","239","839385","0.0-3.0-16.8-0.8","64135acfe82a5b0b236d3cb7","F1","batch6","","749","","","tol_tohand","","","","","","","","","tol_peg_2","749","749","0","[[2,0,0],[1,0],[0]]","9","[[1,2,0],[3,0],[0]]","2","0","","","","","","4","",""
"","","","","","single-stim-button","240","842752","0.0-3.0-16.8-1.8","64135acfe82a5b0b236d3cb7","F1","batch6","","3367","","","tol_toboard","","","","","","","","","tol_peg_3","3367","3367","0","[[2,0,0],[1,0],[3]]","9","[[1,2,0],[3,0],[0]]","2","0","","","","","","4","",""
"","","","","","single-stim-button","241","847446","0.0-3.0-16.9-0.9","64135acfe82a5b0b236d3cb7","F1","batch6","","4694","","","tol_tohand","","","","","","","","","tol_peg_1","4694","4694","0","[[0,0,0],[1,0],[3]]","10","[[1,2,0],[3,0],[0]]","2","0","","","","","","4","",""
"","","","","","single-stim-button","242","848822","0.0-3.0-16.9-1.9","64135acfe82a5b0b236d3cb7","F1","batch6","","1375","","","tol_toboard","","","","","","","","","tol_peg_1","1375","1375","0","[[2,0,0],[1,0],[3]]","10","[[1,2,0],[3,0],[0]]","2","0","","","","","","4","",""
"","","","","","single-stim-button","243","859121","0.0-3.0-16.10-0.10","64135acfe82a5b0b236d3cb7","F1","batch6","","10299","","","tol_tohand","","","","","","","","","tol_peg_3","10299","10299","0","[[2,0,0],[1,0],[0]]","11","[[1,2,0],[3,0],[0]]","2","0","","","","","","4","",""
"","","","","","single-stim-button","244","861365","0.0-3.0-16.10-1.10","64135acfe82a5b0b236d3cb7","F1","batch6","","2244","","","tol_toboard","","","","","","","","","tol_peg_1","2244","2244","0","[[2,3,0],[1,0],[0]]","11","[[1,2,0],[3,0],[0]]","2","0","","","","","","4","",""
"","","","","","single-stim-button","245","862018","0.0-3.0-16.11-0.11","64135acfe82a5b0b236d3cb7","F1","batch6","","653","","","tol_tohand","","","","","","","","","tol_peg_2","653","653","0","[[2,3,0],[0,0],[0]]","12","[[1,2,0],[3,0],[0]]","2","0","","","","","","4","",""
"","","","","","single-stim-button","246","863206","0.0-3.0-16.11-1.11","64135acfe82a5b0b236d3cb7","F1","batch6","","1188","","","tol_toboard","","","","","","","","","tol_peg_3","1188","1188","0","[[2,3,0],[0,0],[1]]","12","[[1,2,0],[3,0],[0]]","2","0","","","","","","4","",""
"","","","","","single-stim-button","247","873008","0.0-3.0-16.12-0.12","64135acfe82a5b0b236d3cb7","F1","batch6","","9802","","","tol_tohand","","","","","","","","","tol_peg_3","9802","9802","0","[[2,3,0],[0,0],[0]]","13","[[1,2,0],[3,0],[0]]","2","0","","","","","","4","",""
"","","","","","single-stim-button","248","874454","0.0-3.0-16.12-1.12","64135acfe82a5b0b236d3cb7","F1","batch6","","1445","","","tol_toboard","","","","","","","","","tol_peg_2","1445","1445","0","[[2,3,0],[1,0],[0]]","13","[[1,2,0],[3,0],[0]]","2","0","","","","","","4","",""
"","","","","","single-stim-button","249","875591","0.0-3.0-16.13-0.13","64135acfe82a5b0b236d3cb7","F1","batch6","","1135","","","tol_tohand","","","","","","","","","tol_peg_1","1135","1135","0","[[2,0,0],[1,0],[0]]","14","[[1,2,0],[3,0],[0]]","2","0","","","","","","4","",""
"","","","","","single-stim-button","250","876426","0.0-3.0-16.13-1.13","64135acfe82a5b0b236d3cb7","F1","batch6","","835","","","tol_toboard","","","","","","","","","tol_peg_3","835","835","0","[[2,0,0],[1,0],[3]]","14","[[1,2,0],[3,0],[0]]","2","0","","","","","","4","",""
"","","","","","single-stim-button","251","884316","0.0-3.0-16.14-0.14","64135acfe82a5b0b236d3cb7","F1","batch6","","7889","","","tol_tohand","","","","","","","","","tol_peg_3","7889","7889","0","[[2,0,0],[1,0],[0]]","15","[[1,2,0],[3,0],[0]]","2","0","","","","","","4","",""
"","","","","","single-stim-button","252","884908","0.0-3.0-16.14-1.14","64135acfe82a5b0b236d3cb7","F1","batch6","","592","","","tol_toboard","","","","","","","","","tol_peg_2","592","592","0","[[2,0,0],[1,3],[0]]","15","[[1,2,0],[3,0],[0]]","2","0","","","","","","4","",""
"","","","","","single-stim-button","253","885324","0.0-3.0-16.15-0.15","64135acfe82a5b0b236d3cb7","F1","batch6","","414","","","tol_tohand","","","","","","","","","tol_peg_1","414","414","0","[[0,0,0],[1,3],[0]]","16","[[1,2,0],[3,0],[0]]","2","0","","","","","","4","",""
"","","","","","single-stim-button","254","886195","0.0-3.0-16.15-1.15","64135acfe82a5b0b236d3cb7","F1","batch6","","870","","","tol_toboard","","","","","","","","","tol_peg_3","870","870","0","[[0,0,0],[1,3],[2]]","16","[[1,2,0],[3,0],[0]]","2","0","","","","","","4","",""
"","","","","","single-stim-button","255","888552","0.0-3.0-16.16-0.16","64135acfe82a5b0b236d3cb7","F1","batch6","","2356","","","tol_tohand","","","","","","","","","tol_peg_2","2356","2356","0","[[0,0,0],[1,0],[2]]","17","[[1,2,0],[3,0],[0]]","2","0","","","","","","4","",""
"","","","","","single-stim-button","256","897257","0.0-3.0-16.16-1.16","64135acfe82a5b0b236d3cb7","F1","batch6","","8705","","","tol_toboard","","","","","","","","","tol_peg_1","8705","8705","0","[[3,0,0],[1,0],[2]]","17","[[1,2,0],[3,0],[0]]","2","0","","","","","","4","",""
"","","","","","single-stim-button","257","902566","0.0-3.0-16.17-0.17","64135acfe82a5b0b236d3cb7","F1","batch6","","5308","","","tol_tohand","","","","","","","","","tol_peg_3","5308","5308","0","[[3,0,0],[1,0],[0]]","18","[[1,2,0],[3,0],[0]]","2","0","","","","","","4","",""
"","","","","","single-stim-button","258","904356","0.0-3.0-16.17-1.17","64135acfe82a5b0b236d3cb7","F1","batch6","","1789","","","tol_toboard","","","","","","","","","tol_peg_1","1789","1789","0","[[3,2,0],[1,0],[0]]","18","[[1,2,0],[3,0],[0]]","2","0","","","","","","4","",""
"","","","","","single-stim-button","259","906529","0.0-3.0-16.18-0.18","64135acfe82a5b0b236d3cb7","F1","batch6","","2173","","","tol_tohand","","","","","","","","","tol_peg_2","2173","2173","0","[[3,2,0],[0,0],[0]]","19","[[1,2,0],[3,0],[0]]","2","0","","","","","","4","",""
"","","","","","single-stim-button","260","907326","0.0-3.0-16.18-1.18","64135acfe82a5b0b236d3cb7","F1","batch6","","796","","","tol_toboard","","","","","","","","","tol_peg_3","796","796","0","[[3,2,0],[0,0],[1]]","19","[[1,2,0],[3,0],[0]]","2","0","","","","","","4","",""
"","","","","","single-stim-button","261","910716","0.0-3.0-16.19-0.19","64135acfe82a5b0b236d3cb7","F1","batch6","","3390","","","tol_tohand","","","","","","","","","tol_peg_1","3390","3390","0","[[3,0,0],[0,0],[1]]","20","[[1,2,0],[3,0],[0]]","2","0","","","","","","4","",""
"","","","","","single-stim-button","262","912508","0.0-3.0-16.19-1.19","64135acfe82a5b0b236d3cb7","F1","batch6","","1792","","","tol_toboard","","","","","","","","","tol_peg_2","1792","1792","0","[[3,0,0],[2,0],[1]]","20","[[1,2,0],[3,0],[0]]","2","0","","","","","","4","",""
"","","","","","single-stim-button","263","913056","0.0-3.0-16.20-0.20","64135acfe82a5b0b236d3cb7","F1","batch6","","548","","","tol_tohand","","","","","","","","","tol_peg_1","548","548","0","[[0,0,0],[2,0],[1]]","21","[[1,2,0],[3,0],[0]]","2","0","","","","","","4","",""
"","","","","","single-stim-button","264","914077","0.0-3.0-16.20-1.20","64135acfe82a5b0b236d3cb7","F1","batch6","","1021","","","tol_toboard","","","","","","","","","tol_peg_2","1021","1021","0","[[0,0,0],[2,3],[1]]","21","[[1,2,0],[3,0],[0]]","2","0","","","","","","4","",""
"","","","","","single-stim-button","265","914581","0.0-3.0-16.21-0.21","64135acfe82a5b0b236d3cb7","F1","batch6","","504","","","tol_tohand","","","","","","","","","tol_peg_3","504","504","0","[[0,0,0],[2,3],[0]]","22","[[1,2,0],[3,0],[0]]","2","0","","","","","","4","",""
"","","","","","single-stim-button","266","915382","0.0-3.0-16.21-1.21","64135acfe82a5b0b236d3cb7","F1","batch6","","801","","","tol_toboard","","","","","","","","","tol_peg_1","801","801","0","[[1,0,0],[2,3],[0]]","22","[[1,2,0],[3,0],[0]]","2","0","","","","","","4","",""
"","","","","","single-stim-button","267","916708","0.0-3.0-16.22-0.22","64135acfe82a5b0b236d3cb7","F1","batch6","","1326","","","tol_tohand","","","","","","","","","tol_peg_2","1326","1326","0","[[1,0,0],[2,0],[0]]","23","[[1,2,0],[3,0],[0]]","2","0","","","","","","4","",""
"","","","","","single-stim-button","268","917898","0.0-3.0-16.22-1.22","64135acfe82a5b0b236d3cb7","F1","batch6","","1190","","","tol_toboard","","","","","","","","","tol_peg_3","1190","1190","0","[[1,0,0],[2,0],[3]]","23","[[1,2,0],[3,0],[0]]","2","0","","","","","","4","",""
"","","","","","single-stim-button","269","918726","0.0-3.0-16.23-0.23","64135acfe82a5b0b236d3cb7","F1","batch6","","828","","","tol_tohand","","","","","","","","","tol_peg_2","828","828","0","[[1,0,0],[0,0],[3]]","24","[[1,2,0],[3,0],[0]]","2","0","","","","","","4","",""
"","","","","","single-stim-button","270","919403","0.0-3.0-16.23-1.23","64135acfe82a5b0b236d3cb7","F1","batch6","","677","","","tol_toboard","","","","","","","","","tol_peg_1","677","677","0","[[1,2,0],[0,0],[3]]","24","[[1,2,0],[3,0],[0]]","2","0","","","","","","4","",""
"","","","","","single-stim-button","271","920327","0.0-3.0-16.24-0.24","64135acfe82a5b0b236d3cb7","F1","batch6","","924","","","tol_tohand","","","","","","","","","tol_peg_3","924","924","0","[[1,2,0],[0,0],[0]]","25","[[1,2,0],[3,0],[0]]","2","0","","","","","","4","",""
"","","","","","single-stim-button","272","920681","0.0-3.0-16.24-1.24","64135acfe82a5b0b236d3cb7","F1","batch6","","353","","","tol_toboard","","","","","","","","","tol_peg_2","353","353","0","[[1,2,0],[3,0],[0]]","25","[[1,2,0],[3,0],[0]]","2","0","","","","","","4","",""
"","","","","","poldrack-single-stim","273","921682","0.0-3.0-17.0","64135acfe82a5b0b236d3cb7","F1","batch6","","-1","","","tol_feedback","true","","","","","","","","","1000","1000","500","","","","","","-1","none","true","17390","96347","","",""
"","","","","","html-button-response","274","922638","0.0-3.0-18.0","64135acfe82a5b0b236d3cb7","F1","batch6","","954","<div class = centerbox><p class = center-block-text>problem <strong>4</strong> out of 25 problems</p></div>","0","tol_trial_num","","","","","","","","","","","","","","","","","","","","","","","","",""
"","","","","","single-stim-button","275","929823","0.0-3.0-19.0-0.0","64135acfe82a5b0b236d3cb7","F1","batch6","","7185","","","tol_tohand","","","","","","","","","tol_peg_2","7185","7185","0","[[3,0,0],[2,0],[0]]","1","[[3,0,0],[1,0],[2]]","3","0","","","","","","3","",""
"","","","","","single-stim-button","276","931559","0.0-3.0-19.0-1.0","64135acfe82a5b0b236d3cb7","F1","batch6","","1736","","","tol_toboard","","","","","","","","","tol_peg_1","1736","1736","0","[[3,1,0],[2,0],[0]]","1","[[3,0,0],[1,0],[2]]","3","0","","","","","","3","",""
"","","","","","single-stim-button","277","932044","0.0-3.0-19.1-0.1","64135acfe82a5b0b236d3cb7","F1","batch6","","484","","","tol_tohand","","","","","","","","","tol_peg_2","484","484","0","[[3,1,0],[0,0],[0]]","2","[[3,0,0],[1,0],[2]]","3","0","","","","","","3","",""
"","","","","","single-stim-button","278","932599","0.0-3.0-19.1-1.1","64135acfe82a5b0b236d3cb7","F1","batch6","","555","","","tol_toboard","","","","","","","","","tol_peg_3","555","555","0","[[3,1,0],[0,0],[2]]","2","[[3,0,0],[1,0],[2]]","3","0","","","","","","3","",""
"","","","","","single-stim-button","279","933359","0.0-3.0-19.2-0.2","64135acfe82a5b0b236d3cb7","F1","batch6","","760","","","tol_tohand","","","","","","","","","tol_peg_1","760","760","0","[[3,0,0],[0,0],[2]]","3","[[3,0,0],[1,0],[2]]","3","0","","","","","","3","",""
"","","","","","single-stim-button","280","933799","0.0-3.0-19.2-1.2","64135acfe82a5b0b236d3cb7","F1","batch6","","440","","","tol_toboard","","","","","","","","","tol_peg_2","440","440","0","[[3,0,0],[1,0],[2]]","3","[[3,0,0],[1,0],[2]]","3","0","","","","","","3","",""
"","","","","","poldrack-single-stim","281","934807","0.0-3.0-20.0","64135acfe82a5b0b236d3cb7","F1","batch6","","-1","","","tol_feedback","true","","","","","","","","","1000","1000","500","","","","","","-1","none","true","7185","8429","","",""
"","","","","","html-button-response","282","935761","0.0-3.0-21.0","64135acfe82a5b0b236d3cb7","F1","batch6","","952","<div class = centerbox><p class = center-block-text>problem <strong>5</strong> out of 25 problems</p></div>","0","tol_trial_num","","","","","","","","","","","","","","","","","","","","","","","","",""
"","","","","","single-stim-button","283","963387","0.0-3.0-22.0-0.0","64135acfe82a5b0b236d3cb7","F1","batch6","","27626","","","tol_tohand","","","","","","","","","tol_peg_2","27626","27626","0","[[1,0,0],[0,0],[3]]","1","[[0,0,0],[1,2],[3]]","4","0","","","","","","7","",""
"","","","","","single-stim-button","284","964243","0.0-3.0-22.0-1.0","64135acfe82a5b0b236d3cb7","F1","batch6","","855","","","tol_toboard","","","","","","","","","tol_peg_1","855","855","0","[[1,2,0],[0,0],[3]]","1","[[0,0,0],[1,2],[3]]","4","0","","","","","","7","",""
"","","","","","single-stim-button","285","967409","0.0-3.0-22.1-0.1","64135acfe82a5b0b236d3cb7","F1","batch6","","3165","","","tol_tohand","","","","","","","","","tol_peg_3","3165","3165","0","[[1,2,0],[0,0],[0]]","2","[[0,0,0],[1,2],[3]]","4","0","","","","","","7","",""
"","","","","","single-stim-button","286","974063","0.0-3.0-22.1-1.1","64135acfe82a5b0b236d3cb7","F1","batch6","","6654","","","tol_toboard","","","","","","","","","tol_peg_2","6654","6654","0","[[1,2,0],[3,0],[0]]","2","[[0,0,0],[1,2],[3]]","4","0","","","","","","7","",""
"","","","","","single-stim-button","287","975531","0.0-3.0-22.2-0.2","64135acfe82a5b0b236d3cb7","F1","batch6","","1467","","","tol_tohand","","","","","","","","","tol_peg_1","1467","1467","0","[[1,0,0],[3,0],[0]]","3","[[0,0,0],[1,2],[3]]","4","0","","","","","","7","",""
"","","","","","single-stim-button","288","982897","0.0-3.0-22.2-1.2","64135acfe82a5b0b236d3cb7","F1","batch6","","7366","","","tol_toboard","","","","","","","","","tol_peg_1","7366","7366","0","[[1,2,0],[3,0],[0]]","3","[[0,0,0],[1,2],[3]]","4","0","","","","","","7","",""
"","","","","","single-stim-button","289","985650","0.0-3.0-22.3-0.3","64135acfe82a5b0b236d3cb7","F1","batch6","","2751","","","tol_tohand","","","","","","","","","tol_peg_2","2751","2751","0","[[1,2,0],[0,0],[0]]","4","[[0,0,0],[1,2],[3]]","4","0","","","","","","7","",""
"","","","","","single-stim-button","290","986897","0.0-3.0-22.3-1.3","64135acfe82a5b0b236d3cb7","F1","batch6","","1246","","","tol_toboard","","","","","","","","","tol_peg_3","1246","1246","0","[[1,2,0],[0,0],[3]]","4","[[0,0,0],[1,2],[3]]","4","0","","","","","","7","",""
"","","","","","single-stim-button","291","990228","0.0-3.0-22.4-0.4","64135acfe82a5b0b236d3cb7","F1","batch6","","3331","","","tol_tohand","","","","","","","","","tol_peg_1","3331","3331","0","[[1,0,0],[0,0],[3]]","5","[[0,0,0],[1,2],[3]]","4","0","","","","","","7","",""
"","","","","","single-stim-button","292","996580","0.0-3.0-22.4-1.4","64135acfe82a5b0b236d3cb7","F1","batch6","","6351","","","tol_toboard","","","","","","","","","tol_peg_2","6351","6351","0","[[1,0,0],[2,0],[3]]","5","[[0,0,0],[1,2],[3]]","4","0","","","","","","7","",""
"","","","","","single-stim-button","293","998333","0.0-3.0-22.5-0.5","64135acfe82a5b0b236d3cb7","F1","batch6","","1753","","","tol_tohand","","","","","","","","","tol_peg_3","1753","1753","0","[[1,0,0],[2,0],[0]]","6","[[0,0,0],[1,2],[3]]","4","0","","","","","","7","",""
"","","","","","single-stim-button","294","998837","0.0-3.0-22.5-1.5","64135acfe82a5b0b236d3cb7","F1","batch6","","502","","","tol_toboard","","","","","","","","","tol_peg_1","502","502","0","[[1,3,0],[2,0],[0]]","6","[[0,0,0],[1,2],[3]]","4","0","","","","","","7","",""
"","","","","","single-stim-button","295","999339","0.0-3.0-22.6-0.6","64135acfe82a5b0b236d3cb7","F1","batch6","","502","","","tol_tohand","","","","","","","","","tol_peg_2","502","502","0","[[1,3,0],[0,0],[0]]","7","[[0,0,0],[1,2],[3]]","4","0","","","","","","7","",""
"","","","","","single-stim-button","296","999870","0.0-3.0-22.6-1.6","64135acfe82a5b0b236d3cb7","F1","batch6","","530","","","tol_toboard","","","","","","","","","tol_peg_3","530","530","0","[[1,3,0],[0,0],[2]]","7","[[0,0,0],[1,2],[3]]","4","0","","","","","","7","",""
"","","","","","single-stim-button","297","1000778","0.0-3.0-22.7-0.7","64135acfe82a5b0b236d3cb7","F1","batch6","","908","","","tol_tohand","","","","","","","","","tol_peg_1","908","908","0","[[1,0,0],[0,0],[2]]","8","[[0,0,0],[1,2],[3]]","4","0","","","","","","7","",""
"","","","","","single-stim-button","298","1002666","0.0-3.0-22.7-1.7","64135acfe82a5b0b236d3cb7","F1","batch6","","1888","","","tol_toboard","","","","","","","","","tol_peg_2","1888","1888","0","[[1,0,0],[3,0],[2]]","8","[[0,0,0],[1,2],[3]]","4","0","","","","","","7","",""
"","","","","","single-stim-button","299","1003109","0.0-3.0-22.8-0.8","64135acfe82a5b0b236d3cb7","F1","batch6","","442","","","tol_tohand","","","","","","","","","tol_peg_1","442","442","0","[[0,0,0],[3,0],[2]]","9","[[0,0,0],[1,2],[3]]","4","0","","","","","","7","",""
"","","","","","single-stim-button","300","1009464","0.0-3.0-22.8-1.8","64135acfe82a5b0b236d3cb7","F1","batch6","","6355","","","tol_toboard","","","","","","","","","tol_peg_2","6355","6355","0","[[0,0,0],[3,1],[2]]","9","[[0,0,0],[1,2],[3]]","4","0","","","","","","7","",""
"","","","","","single-stim-button","301","1009859","0.0-3.0-22.9-0.9","64135acfe82a5b0b236d3cb7","F1","batch6","","394","","","tol_tohand","","","","","","","","","tol_peg_3","394","394","0","[[0,0,0],[3,1],[0]]","10","[[0,0,0],[1,2],[3]]","4","0","","","","","","7","",""
"","","","","","single-stim-button","302","1010400","0.0-3.0-22.9-1.9","64135acfe82a5b0b236d3cb7","F1","batch6","","540","","","tol_toboard","","","","","","","","","tol_peg_1","540","540","0","[[2,0,0],[3,1],[0]]","10","[[0,0,0],[1,2],[3]]","4","0","","","","","","7","",""
"","","","","","single-stim-button","303","1011557","0.0-3.0-22.10-0.10","64135acfe82a5b0b236d3cb7","F1","batch6","","1157","","","tol_tohand","","","","","","","","","tol_peg_2","1157","1157","0","[[2,0,0],[3,0],[0]]","11","[[0,0,0],[1,2],[3]]","4","0","","","","","","7","",""
"","","","","","single-stim-button","304","1013408","0.0-3.0-22.10-1.10","64135acfe82a5b0b236d3cb7","F1","batch6","","1850","","","tol_toboard","","","","","","","","","tol_peg_3","1850","1850","0","[[2,0,0],[3,0],[1]]","11","[[0,0,0],[1,2],[3]]","4","0","","","","","","7","",""
"","","","","","single-stim-button","305","1013763","0.0-3.0-22.11-0.11","64135acfe82a5b0b236d3cb7","F1","batch6","","355","","","tol_tohand","","","","","","","","","tol_peg_2","355","355","0","[[2,0,0],[0,0],[1]]","12","[[0,0,0],[1,2],[3]]","4","0","","","","","","7","",""
"","","","","","single-stim-button","306","1015953","0.0-3.0-22.11-1.11","64135acfe82a5b0b236d3cb7","F1","batch6","","2188","","","tol_toboard","","","","","","","","","tol_peg_1","2188","2188","0","[[2,3,0],[0,0],[1]]","12","[[0,0,0],[1,2],[3]]","4","0","","","","","","7","",""
"","","","","","single-stim-button","307","1016714","0.0-3.0-22.12-0.12","64135acfe82a5b0b236d3cb7","F1","batch6","","761","","","tol_tohand","","","","","","","","","tol_peg_3","761","761","0","[[2,3,0],[0,0],[0]]","13","[[0,0,0],[1,2],[3]]","4","0","","","","","","7","",""
"","","","","","single-stim-button","308","1017290","0.0-3.0-22.12-1.12","64135acfe82a5b0b236d3cb7","F1","batch6","","575","","","tol_toboard","","","","","","","","","tol_peg_2","575","575","0","[[2,3,0],[1,0],[0]]","13","[[0,0,0],[1,2],[3]]","4","0","","","","","","7","",""
"","","","","","single-stim-button","309","1017773","0.0-3.0-22.13-0.13","64135acfe82a5b0b236d3cb7","F1","batch6","","483","","","tol_tohand","","","","","","","","","tol_peg_1","483","483","0","[[2,0,0],[1,0],[0]]","14","[[0,0,0],[1,2],[3]]","4","0","","","","","","7","",""
"","","","","","single-stim-button","310","1019530","0.0-3.0-22.13-1.13","64135acfe82a5b0b236d3cb7","F1","batch6","","1757","","","tol_toboard","","","","","","","","","tol_peg_3","1757","1757","0","[[2,0,0],[1,0],[3]]","14","[[0,0,0],[1,2],[3]]","4","0","","","","","","7","",""
"","","","","","single-stim-button","311","1020176","0.0-3.0-22.14-0.14","64135acfe82a5b0b236d3cb7","F1","batch6","","646","","","tol_tohand","","","","","","","","","tol_peg_1","646","646","0","[[0,0,0],[1,0],[3]]","15","[[0,0,0],[1,2],[3]]","4","0","","","","","","7","",""
"","","","","","single-stim-button","312","1020835","0.0-3.0-22.14-1.14","64135acfe82a5b0b236d3cb7","F1","batch6","","659","","","tol_toboard","","","","","","","","","tol_peg_2","659","659","0","[[0,0,0],[1,2],[3]]","15","[[0,0,0],[1,2],[3]]","4","0","","","","","","7","",""
"","","","","","poldrack-single-stim","313","1021837","0.0-3.0-23.0","64135acfe82a5b0b236d3cb7","F1","batch6","","-1","","","tol_feedback","true","","","","","","","","","1000","1000","500","","","","","","-1","none","true","27626","45741","","",""
"","","","","","html-button-response","314","1022704","0.0-3.0-24.0","64135acfe82a5b0b236d3cb7","F1","batch6","","866","<div class = centerbox><p class = center-block-text>problem <strong>6</strong> out of 25 problems</p></div>","0","tol_trial_num","","","","","","","","","","","","","","","","","","","","","","","","",""
"","","","","","single-stim-button","315","1034823","0.0-3.0-25.0-0.0","64135acfe82a5b0b236d3cb7","F1","batch6","","12119","","","tol_tohand","","","","","","","","","tol_peg_2","12119","12119","0","[[0,0,0],[1,0],[3]]","1","[[1,0,0],[2,3],[0]]","5","0","","","","","","6","",""
"","","","","","single-stim-button","316","1041366","0.0-3.0-25.0-1.0","64135acfe82a5b0b236d3cb7","F1","batch6","","6543","","","tol_toboard","","","","","","","","","tol_peg_1","6543","6543","0","[[2,0,0],[1,0],[3]]","1","[[1,0,0],[2,3],[0]]","5","0","","","","","","6","",""
"","","","","","single-stim-button","317","1042341","0.0-3.0-25.1-0.1","64135acfe82a5b0b236d3cb7","F1","batch6","","975","","","tol_tohand","","","","","","","","","tol_peg_3","975","975","0","[[2,0,0],[1,0],[0]]","2","[[1,0,0],[2,3],[0]]","5","0","","","","","","6","",""
"","","","","","single-stim-button","318","1044594","0.0-3.0-25.1-1.1","64135acfe82a5b0b236d3cb7","F1","batch6","","2253","","","tol_toboard","","","","","","","","","tol_peg_1","2253","2253","0","[[2,3,0],[1,0],[0]]","2","[[1,0,0],[2,3],[0]]","5","0","","","","","","6","",""
"","","","","","single-stim-button","319","1046333","0.0-3.0-25.2-0.2","64135acfe82a5b0b236d3cb7","F1","batch6","","1739","","","tol_tohand","","","","","","","","","tol_peg_2","1739","1739","0","[[2,3,0],[0,0],[0]]","3","[[1,0,0],[2,3],[0]]","5","0","","","","","","6","",""
"","","","","","single-stim-button","320","1046900","0.0-3.0-25.2-1.2","64135acfe82a5b0b236d3cb7","F1","batch6","","567","","","tol_toboard","","","","","","","","","tol_peg_3","567","567","0","[[2,3,0],[0,0],[1]]","3","[[1,0,0],[2,3],[0]]","5","0","","","","","","6","",""
"","","","","","single-stim-button","321","1049669","0.0-3.0-25.3-0.3","64135acfe82a5b0b236d3cb7","F1","batch6","","2769","","","tol_tohand","","","","","","","","","tol_peg_1","2769","2769","0","[[2,0,0],[0,0],[1]]","4","[[1,0,0],[2,3],[0]]","5","0","","","","","","6","",""
"","","","","","single-stim-button","322","1050375","0.0-3.0-25.3-1.3","64135acfe82a5b0b236d3cb7","F1","batch6","","706","","","tol_toboard","","","","","","","","","tol_peg_2","706","706","0","[[2,0,0],[3,0],[1]]","4","[[1,0,0],[2,3],[0]]","5","0","","","","","","6","",""
"","","","","","single-stim-button","323","1052213","0.0-3.0-25.4-0.4","64135acfe82a5b0b236d3cb7","F1","batch6","","1838","","","tol_tohand","","","","","","","","","tol_peg_2","1838","1838","0","[[2,0,0],[0,0],[1]]","5","[[1,0,0],[2,3],[0]]","5","0","","","","","","6","",""
"","","","","","single-stim-button","324","1052496","0.0-3.0-25.4-1.4","64135acfe82a5b0b236d3cb7","F1","batch6","","283","","","tol_toboard","","","","","","","","","tol_peg_1","283","283","0","[[2,3,0],[0,0],[1]]","5","[[1,0,0],[2,3],[0]]","5","0","","","","","","6","",""
"","","","","","single-stim-button","325","1053228","0.0-3.0-25.5-0.5","64135acfe82a5b0b236d3cb7","F1","batch6","","732","","","tol_tohand","","","","","","","","","tol_peg_3","732","732","0","[[2,3,0],[0,0],[0]]","6","[[1,0,0],[2,3],[0]]","5","0","","","","","","6","",""
"","","","","","single-stim-button","326","1053506","0.0-3.0-25.5-1.5","64135acfe82a5b0b236d3cb7","F1","batch6","","277","","","tol_toboard","","","","","","","","","tol_peg_2","277","277","0","[[2,3,0],[1,0],[0]]","6","[[1,0,0],[2,3],[0]]","5","0","","","","","","6","",""
"","","","","","single-stim-button","327","1054119","0.0-3.0-25.6-0.6","64135acfe82a5b0b236d3cb7","F1","batch6","","613","","","tol_tohand","","","","","","","","","tol_peg_1","613","613","0","[[2,0,0],[1,0],[0]]","7","[[1,0,0],[2,3],[0]]","5","0","","","","","","6","",""
"","","","","","single-stim-button","328","1054715","0.0-3.0-25.6-1.6","64135acfe82a5b0b236d3cb7","F1","batch6","","595","","","tol_toboard","","","","","","","","","tol_peg_3","595","595","0","[[2,0,0],[1,0],[3]]","7","[[1,0,0],[2,3],[0]]","5","0","","","","","","6","",""
"","","","","","single-stim-button","329","1059165","0.0-3.0-25.7-0.7","64135acfe82a5b0b236d3cb7","F1","batch6","","4450","","","tol_tohand","","","","","","","","","tol_peg_1","4450","4450","0","[[0,0,0],[1,0],[3]]","8","[[1,0,0],[2,3],[0]]","5","0","","","","","","6","",""
"","","","","","single-stim-button","330","1060848","0.0-3.0-25.7-1.7","64135acfe82a5b0b236d3cb7","F1","batch6","","1683","","","tol_toboard","","","","","","","","","tol_peg_1","1683","1683","0","[[2,0,0],[1,0],[3]]","8","[[1,0,0],[2,3],[0]]","5","0","","","","","","6","",""
"","","","","","single-stim-button","331","1061416","0.0-3.0-25.8-0.8","64135acfe82a5b0b236d3cb7","F1","batch6","","568","","","tol_tohand","","","","","","","","","tol_peg_3","568","568","0","[[2,0,0],[1,0],[0]]","9","[[1,0,0],[2,3],[0]]","5","0","","","","","","6","",""
"","","","","","single-stim-button","332","1062903","0.0-3.0-25.8-1.8","64135acfe82a5b0b236d3cb7","F1","batch6","","1486","","","tol_toboard","","","","","","","","","tol_peg_2","1486","1486","0","[[2,0,0],[1,3],[0]]","9","[[1,0,0],[2,3],[0]]","5","0","","","","","","6","",""
"","","","","","single-stim-button","333","1063387","0.0-3.0-25.9-0.9","64135acfe82a5b0b236d3cb7","F1","batch6","","484","","","tol_tohand","","","","","","","","","tol_peg_1","484","484","0","[[0,0,0],[1,3],[0]]","10","[[1,0,0],[2,3],[0]]","5","0","","","","","","6","",""
"","","","","","single-stim-button","334","1063883","0.0-3.0-25.9-1.9","64135acfe82a5b0b236d3cb7","F1","batch6","","495","","","tol_toboard","","","","","","","","","tol_peg_3","495","495","0","[[0,0,0],[1,3],[2]]","10","[[1,0,0],[2,3],[0]]","5","0","","","","","","6","",""
"","","","","","single-stim-button","335","1069285","0.0-3.0-25.10-0.10","64135acfe82a5b0b236d3cb7","F1","batch6","","5401","","","tol_tohand","","","","","","","","","tol_peg_3","5401","5401","0","[[0,0,0],[1,3],[0]]","11","[[1,0,0],[2,3],[0]]","5","0","","","","","","6","",""
"","","","","","single-stim-button","336","1069630","0.0-3.0-25.10-1.10","64135acfe82a5b0b236d3cb7","F1","batch6","","344","","","tol_toboard","","","","","","","","","tol_peg_1","344","344","0","[[2,0,0],[1,3],[0]]","11","[[1,0,0],[2,3],[0]]","5","0","","","","","","6","",""
"","","","","","single-stim-button","337","1073705","0.0-3.0-25.11-0.11","64135acfe82a5b0b236d3cb7","F1","batch6","","4075","","","tol_tohand","","","","","","","","","tol_peg_1","4075","4075","0","[[0,0,0],[1,3],[0]]","12","[[1,0,0],[2,3],[0]]","5","0","","","","","","6","",""
"","","","","","single-stim-button","338","1074162","0.0-3.0-25.11-1.11","64135acfe82a5b0b236d3cb7","F1","batch6","","457","","","tol_toboard","","","","","","","","","tol_peg_3","457","457","0","[[0,0,0],[1,3],[2]]","12","[[1,0,0],[2,3],[0]]","5","0","","","","","","6","",""
"","","","","","single-stim-button","339","1074746","0.0-3.0-25.12-0.12","64135acfe82a5b0b236d3cb7","F1","batch6","","584","","","tol_tohand","","","","","","","","","tol_peg_2","584","584","0","[[0,0,0],[1,0],[2]]","13","[[1,0,0],[2,3],[0]]","5","0","","","","","","6","",""
"","","","","","single-stim-button","340","1075563","0.0-3.0-25.12-1.12","64135acfe82a5b0b236d3cb7","F1","batch6","","816","","","tol_toboard","","","","","","","","","tol_peg_1","816","816","0","[[3,0,0],[1,0],[2]]","13","[[1,0,0],[2,3],[0]]","5","0","","","","","","6","",""
"","","","","","single-stim-button","341","1076004","0.0-3.0-25.13-0.13","64135acfe82a5b0b236d3cb7","F1","batch6","","441","","","tol_tohand","","","","","","","","","tol_peg_2","441","441","0","[[3,0,0],[0,0],[2]]","14","[[1,0,0],[2,3],[0]]","5","0","","","","","","6","",""
"","","","","","single-stim-button","342","1076393","0.0-3.0-25.13-1.13","64135acfe82a5b0b236d3cb7","F1","batch6","","388","","","tol_toboard","","","","","","","","","tol_peg_1","388","388","0","[[3,1,0],[0,0],[2]]","14","[[1,0,0],[2,3],[0]]","5","0","","","","","","6","",""
"","","","","","single-stim-button","343","1078088","0.0-3.0-25.14-0.14","64135acfe82a5b0b236d3cb7","F1","batch6","","1694","","","tol_tohand","","","","","","","","","tol_peg_3","1694","1694","0","[[3,1,0],[0,0],[0]]","15","[[1,0,0],[2,3],[0]]","5","0","","","","","","6","",""
"","","","","","single-stim-button","344","1078365","0.0-3.0-25.14-1.14","64135acfe82a5b0b236d3cb7","F1","batch6","","277","","","tol_toboard","","","","","","","","","tol_peg_2","277","277","0","[[3,1,0],[2,0],[0]]","15","[[1,0,0],[2,3],[0]]","5","0","","","","","","6","",""
"","","","","","single-stim-button","345","1080525","0.0-3.0-25.15-0.15","64135acfe82a5b0b236d3cb7","F1","batch6","","2158","","","tol_tohand","","","","","","","","","tol_peg_1","2158","2158","0","[[3,0,0],[2,0],[0]]","16","[[1,0,0],[2,3],[0]]","5","0","","","","","","6","",""
"","","","","","single-stim-button","346","1081013","0.0-3.0-25.15-1.15","64135acfe82a5b0b236d3cb7","F1","batch6","","488","","","tol_toboard","","","","","","","","","tol_peg_3","488","488","0","[[3,0,0],[2,0],[1]]","16","[[1,0,0],[2,3],[0]]","5","0","","","","","","6","",""
"","","","","","single-stim-button","347","1082692","0.0-3.0-25.16-0.16","64135acfe82a5b0b236d3cb7","F1","batch6","","1679","","","tol_tohand","","","","","","","","","tol_peg_1","1679","1679","0","[[0,0,0],[2,0],[1]]","17","[[1,0,0],[2,3],[0]]","5","0","","","","","","6","",""
"","","","","","single-stim-button","348","1083402","0.0-3.0-25.16-1.16","64135acfe82a5b0b236d3cb7","F1","batch6","","709","","","tol_toboard","","","","","","","","","tol_peg_2","709","709","0","[[0,0,0],[2,3],[1]]","17","[[1,0,0],[2,3],[0]]","5","0","","","","","","6","",""
"","","","","","single-stim-button","349","1083822","0.0-3.0-25.17-0.17","64135acfe82a5b0b236d3cb7","F1","batch6","","420","","","tol_tohand","","","","","","","","","tol_peg_3","420","420","0","[[0,0,0],[2,3],[0]]","18","[[1,0,0],[2,3],[0]]","5","0","","","","","","6","",""
"","","","","","single-stim-button","350","1084301","0.0-3.0-25.17-1.17","64135acfe82a5b0b236d3cb7","F1","batch6","","479","","","tol_toboard","","","","","","","","","tol_peg_1","479","479","0","[[1,0,0],[2,3],[0]]","18","[[1,0,0],[2,3],[0]]","5","0","","","","","","6","",""
"","","","","","poldrack-single-stim","351","1085303","0.0-3.0-26.0","64135acfe82a5b0b236d3cb7","F1","batch6","","-1","","","tol_feedback","true","","","","","","","","","1000","1000","500","","","","","","-1","none","true","12119","42739","","",""
"","","","","","html-button-response","352","1086435","0.0-3.0-27.0","64135acfe82a5b0b236d3cb7","F1","batch6","","1131","<div class = centerbox><p class = center-block-text>problem <strong>7</strong> out of 25 problems</p></div>","0","tol_trial_num","","","","","","","","","","","","","","","","","","","","","","","","",""
"","","","","","single-stim-button","353","1098588","0.0-3.0-28.0-0.0","64135acfe82a5b0b236d3cb7","F1","batch6","","12153","","","tol_tohand","","","","","","","","","tol_peg_1","12153","12153","0","[[2,0,0],[0,0],[3]]","1","[[1,2,0],[3,0],[0]]","6","0","","","","","","5","",""
"","","","","","single-stim-button","354","1100210","0.0-3.0-28.0-1.0","64135acfe82a5b0b236d3cb7","F1","batch6","","1622","","","tol_toboard","","","","","","","","","tol_peg_2","1622","1622","0","[[2,0,0],[1,0],[3]]","1","[[1,2,0],[3,0],[0]]","6","0","","","","","","5","",""
"","","","","","single-stim-button","355","1100817","0.0-3.0-28.1-0.1","64135acfe82a5b0b236d3cb7","F1","batch6","","607","","","tol_tohand","","","","","","","","","tol_peg_1","607","607","0","[[0,0,0],[1,0],[3]]","2","[[1,2,0],[3,0],[0]]","6","0","","","","","","5","",""
"","","","","","single-stim-button","356","1104304","0.0-3.0-28.1-1.1","64135acfe82a5b0b236d3cb7","F1","batch6","","3486","","","tol_toboard","","","","","","","","","tol_peg_2","3486","3486","0","[[0,0,0],[1,2],[3]]","2","[[1,2,0],[3,0],[0]]","6","0","","","","","","5","",""
