"success","timeout","failed_images","failed_audio","failed_video","trial_type","trial_index","time_elapsed","internal_node_id","subject_id","study_id","session_id","view_history","rt","stimulus","response","task","correct","answer","item","fiar_detect_rt","fiar_detect_correct","total_correct_fiar_detect","post_trial_gap","choices","mouse_click","stim_duration","block_duration","timing_post_trial","current_position","tol_num_moves_made","tol_target","tol_problem_id","tol_rt","key_press","possible_responses","tol_correct","preplanning","tol_rt_per_trial","tol_min_moves","spm_correct","spm_rt"
"true","false","[]","[]","[]","preload","0","6012","0.0-0.0","6413691b3b7c36b2a341bae6","F1","batch6","","","","","","","","","","","","","","","","","","","","","","","","","","","","","",""
"true","","","","","fullscreen","1","23011","0.0-1.0-0.0","6413691b3b7c36b2a341bae6","F1","batch6","","","","","","","","","","","","","","","","","","","","","","","","","","","","","",""
"true","","","","","fullscreen","2","26605","0.0-2.0-0.0","6413691b3b7c36b2a341bae6","F1","batch6","","","","","","","","","","","","","","","","","","","","","","","","","","","","","",""
"","","","","","instructions","3","47028","0.0-2.0-1.0-0.0","6413691b3b7c36b2a341bae6","F1","batch6","[{""page_index"":0,""viewing_time"":9937.60000000894},{""page_index"":1,""viewing_time"":10485}]","20422.90000000596","","","","","","","","","","","","","","","","","","","","","","","","","","","",""
"","","","","","html-button-response","4","47990","0.0-2.0-1.0-1.0-0.0","6413691b3b7c36b2a341bae6","F1","batch6","","960.7999999970198","<p class=block-text> Let's answer a few questions <br>","0","pattern_enter_quiz","","","","","","","","","","","","","","","","","","","","","","","","",""
"","","","","","html-button-response","5","53516","0.0-2.0-1.0-1.0-1.0","6413691b3b7c36b2a341bae6","F1","batch6","","5526","<p class = block-text>True or False: You will have as much time as you want to make each choice. <br></p>","1","pattern_quiz","true","","","","","","","","","","","","","","","","","","","","","","","",""
"","","","","","html-button-response","6","55558","0.0-2.0-1.0-1.0-2.0","6413691b3b7c36b2a341bae6","F1","batch6","","2041.4000000059605","<p class = block-text>Correct! You should make your choice <strong> as fast as you can</strong>.</p>","0","pattern_quiz_feedback","","","","","","","","","","","","","","","","","","","","","","","","",""
"","","","","","html-button-response","7","60684","0.0-2.0-1.0-1.0-3.0","6413691b3b7c36b2a341bae6","F1","batch6","","5125.79999999702","<p class = block-text>True or False: You will look for 4 pieces in black or white color connected in a row either horizontally, vertically or diagonally. <br></p>","0","pattern_quiz","true","","","","","","","","","","","","","","","","","","","","","","","",""
"","","","","","html-button-response","8","61468","0.0-2.0-1.0-1.0-4.0","6413691b3b7c36b2a341bae6","F1","batch6","","783.1000000089407","<p class = block-text>Correct! </p>","0","pattern_quiz_feedback","","","","","","","","","","","","","","","","","","","","","","","","",""
"","","","","","html-button-response","9","63716","0.0-2.0-2.0","6413691b3b7c36b2a341bae6","F1","batch6","","2247.3999999910593","<p class=block-text> Now that you've understood the game, let's do a few practice trials before we start!<br> <br>","0","pattern_enter_practice","","","","","","","","","","","","","","","","","","","","","","","","",""
"","","","","","image-keyboard-response","10","67720","0.0-2.0-3.0-0.0","6413691b3b7c36b2a341bae6","F1","batch6","","4002.3999999910593","stim/prac_no_18_1.png","j","pattern_practice","true","j","","","","","","","","","","","","","","","","","","","","","","",""
"","","","","","html-keyboard-response","11","68736","0.0-2.0-3.0-1.0","6413691b3b7c36b2a341bae6","F1","batch6","","null","<p style=""font-size:30px;color:green;"">Correct!</p>","null","pattern_feedback","","","","","","","","","","","","","","","","","","","","","","","","",""
"","","","","","image-keyboard-response","12","69699","0.0-2.0-3.0-0.1","6413691b3b7c36b2a341bae6","F1","batch6","","962.6000000089407","stim/prac_yes_16_ver_w1.png","f","pattern_practice","true","f","","","","","","","","","","","","","","","","","","","","","","",""
"","","","","","html-keyboard-response","13","70726","0.0-2.0-3.0-1.1","6413691b3b7c36b2a341bae6","F1","batch6","","null","<p style=""font-size:30px;color:green;"">Correct!</p>","null","pattern_feedback","","","","","","","","","","","","","","","","","","","","","","","","",""
"","","","","","image-keyboard-response","14","73244","0.0-2.0-3.0-0.2","6413691b3b7c36b2a341bae6","F1","batch6","","2517.3999999910593","stim/prac_no_16_1.png","j","pattern_practice","true","j","","","","","","","","","","","","","","","","","","","","","","",""
"","","","","","html-keyboard-response","15","74270","0.0-2.0-3.0-1.2","6413691b3b7c36b2a341bae6","F1","batch6","","null","<p style=""font-size:30px;color:green;"">Correct!</p>","null","pattern_feedback","","","","","","","","","","","","","","","","","","","","","","","","",""
"","","","","","image-keyboard-response","16","75230","0.0-2.0-3.0-0.3","6413691b3b7c36b2a341bae6","F1","batch6","","959.7000000029802","stim/prac_yes_20_dia_b1.png","f","pattern_practice","true","f","","","","","","","","","","","","","","","","","","","","","","",""
"","","","","","html-keyboard-response","17","76246","0.0-2.0-3.0-1.3","6413691b3b7c36b2a341bae6","F1","batch6","","null","<p style=""font-size:30px;color:green;"">Correct!</p>","null","pattern_feedback","","","","","","","","","","","","","","","","","","","","","","","","",""
"","","","","","image-keyboard-response","18","77554","0.0-2.0-3.0-0.4","6413691b3b7c36b2a341bae6","F1","batch6","","1307.5","stim/prac_yes_18_hor_w1.png","f","pattern_practice","true","f","","","","","","","","","","","","","","","","","","","","","","",""
"","","","","","html-keyboard-response","19","78576","0.0-2.0-3.0-1.4","6413691b3b7c36b2a341bae6","F1","batch6","","null","<p style=""font-size:30px;color:green;"">Correct!</p>","null","pattern_feedback","","","","","","","","","","","","","","","","","","","","","","","","",""
"","","","","","html-button-response","20","87013","0.0-2.0-4.0","6413691b3b7c36b2a341bae6","F1","batch6","","8436.10000000894","<p class=block-text> Good job! You are done with practice trials!<br>
        You responded correctly on 100% of the trials.<br>
        Press the button below to start official trials. Now you won't see any feedback about your response</p>","0","pattern_enter_official_trials","","","","","","","","","","","","","","","","","","","","","","","","",""
"","","","","","html-keyboard-response","21","87827","0.0-2.0-5.0-0.0","6413691b3b7c36b2a341bae6","F1","batch6","","null","<p class=block-text>Trial 1 out of 78</p>","null","pattern_show_trial_num","","","","","","","","","","","","","","","","","","","","","","","","",""
"","","","","","image-keyboard-response","22","90502","0.0-2.0-5.0-1.0","6413691b3b7c36b2a341bae6","F1","batch6","","2674.0999999940395","stim/yes_42_dia_w1_w.png","f","pattern_response","true","f","pattern_64","2674.0999999940395","true","1","","","","","","","","","","","","","","","","","","",""
"","","","","","html-keyboard-response","23","91810","0.0-2.0-5.0-0.1","6413691b3b7c36b2a341bae6","F1","batch6","","null","<p class=block-text>Trial 2 out of 78</p>","null","pattern_show_trial_num","","","","","","","","","","","","","","","","","","","","","","","","",""
"","","","","","image-keyboard-response","24","94024","0.0-2.0-5.0-1.1","6413691b3b7c36b2a341bae6","F1","batch6","","2213","stim/no_22_1_b.png","j","pattern_response","true","j","pattern_07","2213","true","2","","","","","","","","","","","","","","","","","","",""
"","","","","","html-keyboard-response","25","95330","0.0-2.0-5.0-0.2","6413691b3b7c36b2a341bae6","F1","batch6","","null","<p class=block-text>Trial 3 out of 78</p>","null","pattern_show_trial_num","","","","","","","","","","","","","","","","","","","","","","","","",""
"","","","","","image-keyboard-response","26","97331","0.0-2.0-5.0-1.2","6413691b3b7c36b2a341bae6","F1","batch6","","2000.0999999940395","stim/yes_37_hor_w1_w.png","f","pattern_response","true","f","pattern_60","2000.0999999940395","true","3","","","","","","","","","","","","","","","","","","",""
"","","","","","html-keyboard-response","27","98637","0.0-2.0-5.0-0.3","6413691b3b7c36b2a341bae6","F1","batch6","","null","<p class=block-text>Trial 4 out of 78</p>","null","pattern_show_trial_num","","","","","","","","","","","","","","","","","","","","","","","","",""
"","","","","","image-keyboard-response","28","107624","0.0-2.0-5.0-1.3","6413691b3b7c36b2a341bae6","F1","batch6","","8986.29999999702","stim/no_39_1_w.png","j","pattern_response","true","j","pattern_21","8986.29999999702","true","4","","","","","","","","","","","","","","","","","","",""
"","","","","","html-keyboard-response","29","108939","0.0-2.0-5.0-0.4","6413691b3b7c36b2a341bae6","F1","batch6","","null","<p class=block-text>Trial 5 out of 78</p>","null","pattern_show_trial_num","","","","","","","","","","","","","","","","","","","","","","","","",""
"","","","","","image-keyboard-response","30","110974","0.0-2.0-5.0-1.4","6413691b3b7c36b2a341bae6","F1","batch6","","2034.5","stim/yes_46_ver_b1_b.png","f","pattern_response","true","f","pattern_68","2034.5","true","5","","","","","","","","","","","","","","","","","","",""
"","","","","","html-keyboard-response","31","112291","0.0-2.0-5.0-0.5","6413691b3b7c36b2a341bae6","F1","batch6","","null","<p class=block-text>Trial 6 out of 78</p>","null","pattern_show_trial_num","","","","","","","","","","","","","","","","","","","","","","","","",""
"","","","","","image-keyboard-response","32","114287","0.0-2.0-5.0-1.5","6413691b3b7c36b2a341bae6","F1","batch6","","1995.5999999940395","stim/yes_39_hor_w1_w.png","f","pattern_response","true","f","pattern_62","1995.5999999940395","true","6","","","","","","","","","","","","","","","","","","",""
"","","","","","html-keyboard-response","33","115589","0.0-2.0-5.0-0.6","6413691b3b7c36b2a341bae6","F1","batch6","","null","<p class=block-text>Trial 7 out of 78</p>","null","pattern_show_trial_num","","","","","","","","","","","","","","","","","","","","","","","","",""
"","","","","","image-keyboard-response","34","122852","0.0-2.0-5.0-1.6","6413691b3b7c36b2a341bae6","F1","batch6","","7263.399999991059","stim/no_67_1.png","j","pattern_response","true","j","pattern_39","7263.399999991059","true","7","","","","","","","","","","","","","","","","","","",""
"","","","","","html-keyboard-response","35","124171","0.0-2.0-5.0-0.7","6413691b3b7c36b2a341bae6","F1","batch6","","null","<p class=block-text>Trial 8 out of 78</p>","null","pattern_show_trial_num","","","","","","","","","","","","","","","","","","","","","","","","",""
"","","","","","image-keyboard-response","36","125519","0.0-2.0-5.0-1.7","6413691b3b7c36b2a341bae6","F1","batch6","","1346.8999999910593","stim/yes_29_hor_b1_b.png","f","pattern_response","true","f","pattern_52","1346.8999999910593","true","8","","","","","","","","","","","","","","","","","","",""
"","","","","","html-keyboard-response","37","126839","0.0-2.0-5.0-0.8","6413691b3b7c36b2a341bae6","F1","batch6","","null","<p class=block-text>Trial 9 out of 78</p>","null","pattern_show_trial_num","","","","","","","","","","","","","","","","","","","","","","","","",""
"","","","","","image-keyboard-response","38","132090","0.0-2.0-5.0-1.8","6413691b3b7c36b2a341bae6","F1","batch6","","5249.4000000059605","stim/no_28_2.png","f","pattern_response","false","j","pattern_11","5249.4000000059605","false","8","","","","","","","","","","","","","","","","","","",""
"","","","","","html-keyboard-response","39","133400","0.0-2.0-5.0-0.9","6413691b3b7c36b2a341bae6","F1","batch6","","null","<p class=block-text>Trial 10 out of 78</p>","null","pattern_show_trial_num","","","","","","","","","","","","","","","","","","","","","","","","",""
"","","","","","image-keyboard-response","40","135719","0.0-2.0-5.0-1.9","6413691b3b7c36b2a341bae6","F1","batch6","","2318.0999999940395","stim/yes_33_dia_w1_w.png","f","pattern_response","true","f","pattern_56","2318.0999999940395","true","9","","","","","","","","","","","","","","","","","","",""
"","","","","","html-keyboard-response","41","137037","0.0-2.0-5.0-0.10","6413691b3b7c36b2a341bae6","F1","batch6","","null","<p class=block-text>Trial 11 out of 78</p>","null","pattern_show_trial_num","","","","","","","","","","","","","","","","","","","","","","","","",""
"","","","","","image-keyboard-response","42","137828","0.0-2.0-5.0-1.10","6413691b3b7c36b2a341bae6","F1","batch6","","790","stim/yes_36_ver_w1_w.png","f","pattern_response","true","f","pattern_58","790","true","10","","","","","","","","","","","","","","","","","","",""
"","","","","","html-keyboard-response","43","139143","0.0-2.0-5.0-0.11","6413691b3b7c36b2a341bae6","F1","batch6","","null","<p class=block-text>Trial 12 out of 78</p>","null","pattern_show_trial_num","","","","","","","","","","","","","","","","","","","","","","","","",""
"","","","","","image-keyboard-response","44","143473","0.0-2.0-5.0-1.11","6413691b3b7c36b2a341bae6","F1","batch6","","4329.600000008941","stim/no_43_2_b.png","j","pattern_response","true","j","pattern_23","4329.600000008941","true","11","","","","","","","","","","","","","","","","","","",""
"","","","","","html-keyboard-response","45","144793","0.0-2.0-5.0-0.12","6413691b3b7c36b2a341bae6","F1","batch6","","null","<p class=block-text>Trial 13 out of 78</p>","null","pattern_show_trial_num","","","","","","","","","","","","","","","","","","","","","","","","",""
"","","","","","image-keyboard-response","46","153034","0.0-2.0-5.0-1.12","6413691b3b7c36b2a341bae6","F1","batch6","","8239.90000000596","stim/no_53_1_b.png","j","pattern_response","true","j","pattern_33","8239.90000000596","true","12","","","","","","","","","","","","","","","","","","",""
"","","","","","html-keyboard-response","47","154339","0.0-2.0-5.0-0.13","6413691b3b7c36b2a341bae6","F1","batch6","","null","<p class=block-text>Trial 14 out of 78</p>","null","pattern_show_trial_num","","","","","","","","","","","","","","","","","","","","","","","","",""
"","","","","","image-keyboard-response","48","157237","0.0-2.0-5.0-1.13","6413691b3b7c36b2a341bae6","F1","batch6","","2896.8999999910593","stim/yes_49_hor_w1_b.png","f","pattern_response","true","f","pattern_70","2896.8999999910593","true","13","","","","","","","","","","","","","","","","","","",""
"","","","","","html-keyboard-response","49","158552","0.0-2.0-5.0-0.14","6413691b3b7c36b2a341bae6","F1","batch6","","null","<p class=block-text>Trial 15 out of 78</p>","null","pattern_show_trial_num","","","","","","","","","","","","","","","","","","","","","","","","",""
"","","","","","image-keyboard-response","50","159633","0.0-2.0-5.0-1.14","6413691b3b7c36b2a341bae6","F1","batch6","","1080.5","stim/yes_26_dia_w2_w.png","f","pattern_response","true","f","pattern_50","1080.5","true","14","","","","","","","","","","","","","","","","","","",""
"","","","","","html-keyboard-response","51","160946","0.0-2.0-5.0-0.15","6413691b3b7c36b2a341bae6","F1","batch6","","null","<p class=block-text>Trial 16 out of 78</p>","null","pattern_show_trial_num","","","","","","","","","","","","","","","","","","","","","","","","",""
"","","","","","image-keyboard-response","52","162273","0.0-2.0-5.0-1.15","6413691b3b7c36b2a341bae6","F1","batch6","","1326.5999999940395","stim/yes_23_ver_b1.png","f","pattern_response","true","f","pattern_48","1326.5999999940395","true","15","","","","","","","","","","","","","","","","","","",""
"","","","","","html-keyboard-response","53","163578","0.0-2.0-5.0-0.16","6413691b3b7c36b2a341bae6","F1","batch6","","null","<p class=block-text>Trial 17 out of 78</p>","null","pattern_show_trial_num","","","","","","","","","","","","","","","","","","","","","","","","",""
"","","","","","image-keyboard-response","54","171038","0.0-2.0-5.0-1.16","6413691b3b7c36b2a341bae6","F1","batch6","","7459.5999999940395","stim/yes_44_ver_w1_w.png","j","pattern_response","false","f","pattern_66","7459.5999999940395","false","15","","","","","","","","","","","","","","","","","","",""
"","","","","","html-keyboard-response","55","172360","0.0-2.0-5.0-0.17","6413691b3b7c36b2a341bae6","F1","batch6","","null","<p class=block-text>Trial 18 out of 78</p>","null","pattern_show_trial_num","","","","","","","","","","","","","","","","","","","","","","","","",""
"","","","","","image-keyboard-response","56","175248","0.0-2.0-5.0-1.17","6413691b3b7c36b2a341bae6","F1","batch6","","2887.699999988079","stim/no_18_1_b.png","j","pattern_response","true","j","pattern_05","2887.699999988079","true","16","","","","","","","","","","","","","","","","","","",""
"","","","","","html-keyboard-response","57","176563","0.0-2.0-5.0-0.18","6413691b3b7c36b2a341bae6","F1","batch6","","null","<p class=block-text>Trial 19 out of 78</p>","null","pattern_show_trial_num","","","","","","","","","","","","","","","","","","","","","","","","",""
"","","","","","image-keyboard-response","58","185965","0.0-2.0-5.0-1.18","6413691b3b7c36b2a341bae6","F1","batch6","","9400.89999999106","stim/no_36_1_b.png","j","pattern_response","true","j","pattern_17","9400.89999999106","true","17","","","","","","","","","","","","","","","","","","",""
"","","","","","html-keyboard-response","59","187281","0.0-2.0-5.0-0.19","6413691b3b7c36b2a341bae6","F1","batch6","","null","<p class=block-text>Trial 20 out of 78</p>","null","pattern_show_trial_num","","","","","","","","","","","","","","","","","","","","","","","","",""
"","","","","","image-keyboard-response","60","194134","0.0-2.0-5.0-1.19","6413691b3b7c36b2a341bae6","F1","batch6","","6852.20000000298","stim/no_33_1_b.png","j","pattern_response","true","j","pattern_15","6852.20000000298","true","18","","","","","","","","","","","","","","","","","","",""
"","","","","","html-keyboard-response","61","195448","0.0-2.0-5.0-0.20","6413691b3b7c36b2a341bae6","F1","batch6","","null","<p class=block-text>Trial 21 out of 78</p>","null","pattern_show_trial_num","","","","","","","","","","","","","","","","","","","","","","","","",""
"","","","","","image-keyboard-response","62","203746","0.0-2.0-5.0-1.20","6413691b3b7c36b2a341bae6","F1","batch6","","8297.79999999702","stim/yes_53_ver_b1_b.png","f","pattern_response","true","f","pattern_74","8297.79999999702","true","19","","","","","","","","","","","","","","","","","","",""
"","","","","","html-keyboard-response","63","205056","0.0-2.0-5.0-0.21","6413691b3b7c36b2a341bae6","F1","batch6","","null","<p class=block-text>Trial 22 out of 78</p>","null","pattern_show_trial_num","","","","","","","","","","","","","","","","","","","","","","","","",""
"","","","","","image-keyboard-response","64","208666","0.0-2.0-5.0-1.21","6413691b3b7c36b2a341bae6","F1","batch6","","3609.2999999970198","stim/no_30_1_b.png","j","pattern_response","true","j","pattern_13","3609.2999999970198","true","20","","","","","","","","","","","","","","","","","","",""
"","","","","","html-keyboard-response","65","209978","0.0-2.0-5.0-0.22","6413691b3b7c36b2a341bae6","F1","batch6","","null","<p class=block-text>Trial 23 out of 78</p>","null","pattern_show_trial_num","","","","","","","","","","","","","","","","","","","","","","","","",""
"","","","","","image-keyboard-response","66","211083","0.0-2.0-5.0-1.22","6413691b3b7c36b2a341bae6","F1","batch6","","1104.9000000059605","stim/yes_15_dia_b1u_b.png","f","pattern_response","true","f","pattern_44","1104.9000000059605","true","21","","","","","","","","","","","","","","","","","","",""
"","","","","","html-keyboard-response","67","212388","0.0-2.0-5.0-0.23","6413691b3b7c36b2a341bae6","F1","batch6","","null","<p class=block-text>Trial 24 out of 78</p>","null","pattern_show_trial_num","","","","","","","","","","","","","","","","","","","","","","","","",""
"","","","","","image-keyboard-response","68","229065","0.0-2.0-5.0-1.23","6413691b3b7c36b2a341bae6","F1","batch6","","16675.89999999106","stim/yes_58_dia_w1_w.png","j","pattern_response","false","f","pattern_76","16675.89999999106","false","21","","","","","","","","","","","","","","","","","","",""
"","","","","","html-keyboard-response","69","230387","0.0-2.0-5.0-0.24","6413691b3b7c36b2a341bae6","F1","batch6","","null","<p class=block-text>Trial 25 out of 78</p>","null","pattern_show_trial_num","","","","","","","","","","","","","","","","","","","","","","","","",""
"","","","","","image-keyboard-response","70","232084","0.0-2.0-5.0-1.24","6413691b3b7c36b2a341bae6","F1","batch6","","1696.7999999970198","stim/no_15_1_w.png","j","pattern_response","true","j","pattern_03","1696.7999999970198","true","22","","","","","","","","","","","","","","","","","","",""
"","","","","","html-keyboard-response","71","233394","0.0-2.0-5.0-0.25","6413691b3b7c36b2a341bae6","F1","batch6","","null","<p class=block-text>Trial 26 out of 78</p>","null","pattern_show_trial_num","","","","","","","","","","","","","","","","","","","","","","","","",""
"","","","","","image-keyboard-response","72","238791","0.0-2.0-5.0-1.25","6413691b3b7c36b2a341bae6","F1","batch6","","5395.600000008941","stim/no_25_1_b.png","j","pattern_response","true","j","pattern_09","5395.600000008941","true","23","","","","","","","","","","","","","","","","","","",""
"","","","","","html-keyboard-response","73","240109","0.0-2.0-5.0-0.26","6413691b3b7c36b2a341bae6","F1","batch6","","null","<p class=block-text>Trial 27 out of 78</p>","null","pattern_show_trial_num","","","","","","","","","","","","","","","","","","","","","","","","",""
"","","","","","image-keyboard-response","74","247821","0.0-2.0-5.0-1.26","6413691b3b7c36b2a341bae6","F1","batch6","","7710.70000000298","stim/no_47_1_b.png","j","pattern_response","true","j","pattern_27","7710.70000000298","true","24","","","","","","","","","","","","","","","","","","",""
"","","","","","html-keyboard-response","75","249135","0.0-2.0-5.0-0.27","6413691b3b7c36b2a341bae6","F1","batch6","","null","<p class=block-text>Trial 28 out of 78</p>","null","pattern_show_trial_num","","","","","","","","","","","","","","","","","","","","","","","","",""
"","","","","","image-keyboard-response","76","260030","0.0-2.0-5.0-1.27","6413691b3b7c36b2a341bae6","F1","batch6","","10894.59999999404","stim/yes_63_dia_b1.png","j","pattern_response","false","f","pattern_78","10894.59999999404","false","24","","","","","","","","","","","","","","","","","","",""
"","","","","","html-keyboard-response","77","261349","0.0-2.0-5.0-0.28","6413691b3b7c36b2a341bae6","F1","batch6","","null","<p class=block-text>Trial 29 out of 78</p>","null","pattern_show_trial_num","","","","","","","","","","","","","","","","","","","","","","","","",""
"","","","","","image-keyboard-response","78","270086","0.0-2.0-5.0-1.28","6413691b3b7c36b2a341bae6","F1","batch6","","8736.59999999404","stim/no_51_1.png","j","pattern_response","true","j","pattern_31","8736.59999999404","true","25","","","","","","","","","","","","","","","","","","",""
"","","","","","html-keyboard-response","79","271399","0.0-2.0-5.0-0.29","6413691b3b7c36b2a341bae6","F1","batch6","","null","<p class=block-text>Trial 30 out of 78</p>","null","pattern_show_trial_num","","","","","","","","","","","","","","","","","","","","","","","","",""
"","","","","","image-keyboard-response","80","272582","0.0-2.0-5.0-1.29","6413691b3b7c36b2a341bae6","F1","batch6","","1181.7999999970198","stim/yes_12_hor_w1_w.png","f","pattern_response","true","f","pattern_42","1181.7999999970198","true","26","","","","","","","","","","","","","","","","","","",""
"","","","","","html-keyboard-response","81","273892","0.0-2.0-5.0-0.30","6413691b3b7c36b2a341bae6","F1","batch6","","null","<p class=block-text>Trial 31 out of 78</p>","null","pattern_show_trial_num","","","","","","","","","","","","","","","","","","","","","","","","",""
"","","","","","image-keyboard-response","82","274848","0.0-2.0-5.0-1.30","6413691b3b7c36b2a341bae6","F1","batch6","","955.2999999970198","stim/yes_30_ver_b1_b.png","f","pattern_response","true","f","pattern_54","955.2999999970198","true","27","","","","","","","","","","","","","","","","","","",""
"","","","","","html-keyboard-response","83","276163","0.0-2.0-5.0-0.31","6413691b3b7c36b2a341bae6","F1","batch6","","null","<p class=block-text>Trial 32 out of 78</p>","null","pattern_show_trial_num","","","","","","","","","","","","","","","","","","","","","","","","",""
"","","","","","image-keyboard-response","84","286632","0.0-2.0-5.0-1.31","6413691b3b7c36b2a341bae6","F1","batch6","","10468","stim/no_49_2_b.png","j","pattern_response","true","j","pattern_29","10468","true","28","","","","","","","","","","","","","","","","","","",""
"","","","","","html-keyboard-response","85","287948","0.0-2.0-5.0-0.32","6413691b3b7c36b2a341bae6","F1","batch6","","null","<p class=block-text>Trial 33 out of 78</p>","null","pattern_show_trial_num","","","","","","","","","","","","","","","","","","","","","","","","",""
"","","","","","image-keyboard-response","86","299206","0.0-2.0-5.0-1.32","6413691b3b7c36b2a341bae6","F1","batch6","","11257.09999999404","stim/no_58_1_w.png","j","pattern_response","true","j","pattern_35","11257.09999999404","true","29","","","","","","","","","","","","","","","","","","",""
"","","","","","html-keyboard-response","87","300528","0.0-2.0-5.0-0.33","6413691b3b7c36b2a341bae6","F1","batch6","","null","<p class=block-text>Trial 34 out of 78</p>","null","pattern_show_trial_num","","","","","","","","","","","","","","","","","","","","","","","","",""
"","","","","","image-keyboard-response","88","302555","0.0-2.0-5.0-1.33","6413691b3b7c36b2a341bae6","F1","batch6","","2026.2999999970198","stim/no_12_1.png","j","pattern_response","true","j","pattern_01","2026.2999999970198","true","30","","","","","","","","","","","","","","","","","","",""
"","","","","","html-keyboard-response","89","303874","0.0-2.0-5.0-0.34","6413691b3b7c36b2a341bae6","F1","batch6","","null","<p class=block-text>Trial 35 out of 78</p>","null","pattern_show_trial_num","","","","","","","","","","","","","","","","","","","","","","","","",""
"","","","","","image-keyboard-response","90","305611","0.0-2.0-5.0-1.34","6413691b3b7c36b2a341bae6","F1","batch6","","1736.5999999940395","stim/yes_70_ver_b1.png","f","pattern_response","true","f","pattern_80","1736.5999999940395","true","31","","","","","","","","","","","","","","","","","","",""
"","","","","","html-keyboard-response","91","306931","0.0-2.0-5.0-0.35","6413691b3b7c36b2a341bae6","F1","batch6","","null","<p class=block-text>Trial 36 out of 78</p>","null","pattern_show_trial_num","","","","","","","","","","","","","","","","","","","","","","","","",""
"","","","","","image-keyboard-response","92","313414","0.0-2.0-5.0-1.35","6413691b3b7c36b2a341bae6","F1","batch6","","6482.9000000059605","stim/no_45_1_w.png","j","pattern_response","true","j","pattern_25","6482.9000000059605","true","32","","","","","","","","","","","","","","","","","","",""
"","","","","","html-keyboard-response","93","314728","0.0-2.0-5.0-0.36","6413691b3b7c36b2a341bae6","F1","batch6","","null","<p class=block-text>Trial 37 out of 78</p>","null","pattern_show_trial_num","","","","","","","","","","","","","","","","","","","","","","","","",""
"","","","","","image-keyboard-response","94","321440","0.0-2.0-5.0-1.36","6413691b3b7c36b2a341bae6","F1","batch6","","6711","stim/yes_51_dia_b1.png","f","pattern_response","true","f","pattern_72","6711","true","33","","","","","","","","","","","","","","","","","","",""
"","","","","","html-keyboard-response","95","322771","0.0-2.0-5.0-0.37","6413691b3b7c36b2a341bae6","F1","batch6","","null","<p class=block-text>Trial 38 out of 78</p>","null","pattern_show_trial_num","","","","","","","","","","","","","","","","","","","","","","","","",""
"","","","","","image-keyboard-response","96","329574","0.0-2.0-5.0-1.37","6413691b3b7c36b2a341bae6","F1","batch6","","6802.29999999702","stim/no_37_2_w.png","j","pattern_response","true","j","pattern_19","6802.29999999702","true","34","","","","","","","","","","","","","","","","","","",""
"","","","","","html-keyboard-response","97","330909","0.0-2.0-5.0-0.38","6413691b3b7c36b2a341bae6","F1","batch6","","null","<p class=block-text>Trial 39 out of 78</p>","null","pattern_show_trial_num","","","","","","","","","","","","","","","","","","","","","","","","",""
"","","","","","image-keyboard-response","98","332286","0.0-2.0-5.0-1.38","6413691b3b7c36b2a341bae6","F1","batch6","","1375.7999999970198","stim/yes_17_ver_b1_b.png","f","pattern_response","true","f","pattern_46","1375.7999999970198","true","35","","","","","","","","","","","","","","","","","","",""
"","","","","","image-keyboard-response","99","335677","0.0-2.0-6.0","6413691b3b7c36b2a341bae6","F1","batch6","","2884.8999999910593","stim/empty_board.png","j","attention_check","true","j","","","","","500","[""f"",""j""]","","","","","","","","","","","","","","","","",""
"","","","","","html-keyboard-response","100","336488","0.0-2.0-7.0-0.0","6413691b3b7c36b2a341bae6","F1","batch6","","null","<p class=block-text>Trial 40 out of 78</p>","null","pattern_show_trial_num","","","","","","","","","","","","","","","","","","","","","","","","",""
"","","","","","image-keyboard-response","101","338690","0.0-2.0-7.0-1.0","6413691b3b7c36b2a341bae6","F1","batch6","","2201.800000011921","stim/yes_45_hor_b2_b.png","f","pattern_response","true","f","pattern_67","2201.800000011921","true","36","","","","","","","","","","","","","","","","","","",""
"","","","","","html-keyboard-response","102","340000","0.0-2.0-7.0-0.1","6413691b3b7c36b2a341bae6","F1","batch6","","null","<p class=block-text>Trial 41 out of 78</p>","null","pattern_show_trial_num","","","","","","","","","","","","","","","","","","","","","","","","",""
"","","","","","image-keyboard-response","103","346702","0.0-2.0-7.0-1.1","6413691b3b7c36b2a341bae6","F1","batch6","","6700.600000008941","stim/no_46_1_b.png","j","pattern_response","true","j","pattern_26","6700.600000008941","true","37","","","","","","","","","","","","","","","","","","",""
"","","","","","html-keyboard-response","104","348009","0.0-2.0-7.0-0.2","6413691b3b7c36b2a341bae6","F1","batch6","","null","<p class=block-text>Trial 42 out of 78</p>","null","pattern_show_trial_num","","","","","","","","","","","","","","","","","","","","","","","","",""
"","","","","","image-keyboard-response","105","350811","0.0-2.0-7.0-1.2","6413691b3b7c36b2a341bae6","F1","batch6","","2801.5","stim/yes_40_dia_b1_b.png","f","pattern_response","true","f","pattern_63","2801.5","true","38","","","","","","","","","","","","","","","","","","",""
"","","","","","html-keyboard-response","106","352137","0.0-2.0-7.0-0.3","6413691b3b7c36b2a341bae6","F1","batch6","","null","<p class=block-text>Trial 43 out of 78</p>","null","pattern_show_trial_num","","","","","","","","","","","","","","","","","","","","","","","","",""
"","","","","","image-keyboard-response","107","353186","0.0-2.0-7.0-1.3","6413691b3b7c36b2a341bae6","F1","batch6","","1047.7000000029802","stim/yes_25_hor_b1_b.png","f","pattern_response","true","f","pattern_49","1047.7000000029802","true","39","","","","","","","","","","","","","","","","","","",""
"","","","","","html-keyboard-response","108","354507","0.0-2.0-7.0-0.4","6413691b3b7c36b2a341bae6","F1","batch6","","null","<p class=block-text>Trial 44 out of 78</p>","null","pattern_show_trial_num","","","","","","","","","","","","","","","","","","","","","","","","",""
"","","","","","image-keyboard-response","109","361456","0.0-2.0-7.0-1.4","6413691b3b7c36b2a341bae6","F1","batch6","","6948.20000000298","stim/no_62_1_w.png","j","pattern_response","true","j","pattern_36","6948.20000000298","true","40","","","","","","","","","","","","","","","","","","",""
"","","","","","html-keyboard-response","110","362785","0.0-2.0-7.0-0.5","6413691b3b7c36b2a341bae6","F1","batch6","","null","<p class=block-text>Trial 45 out of 78</p>","null","pattern_show_trial_num","","","","","","","","","","","","","","","","","","","","","","","","",""
"","","","","","image-keyboard-response","111","371146","0.0-2.0-7.0-1.5","6413691b3b7c36b2a341bae6","F1","batch6","","8360.20000000298","stim/no_70_2.png","j","pattern_response","true","j","pattern_40","8360.20000000298","true","41","","","","","","","","","","","","","","","","","","",""
"","","","","","html-keyboard-response","112","372466","0.0-2.0-7.0-0.6","6413691b3b7c36b2a341bae6","F1","batch6","","null","<p class=block-text>Trial 46 out of 78</p>","null","pattern_show_trial_num","","","","","","","","","","","","","","","","","","","","","","","","",""
"","","","","","image-keyboard-response","113","373434","0.0-2.0-7.0-1.6","6413691b3b7c36b2a341bae6","F1","batch6","","967.2000000029802","stim/yes_14_hor_b1_w.png","f","pattern_response","true","f","pattern_43","967.2000000029802","true","42","","","","","","","","","","","","","","","","","","",""
"","","","","","html-keyboard-response","114","374737","0.0-2.0-7.0-0.7","6413691b3b7c36b2a341bae6","F1","batch6","","null","<p class=block-text>Trial 47 out of 78</p>","null","pattern_show_trial_num","","","","","","","","","","","","","","","","","","","","","","","","",""
"","","","","","image-keyboard-response","115","375801","0.0-2.0-7.0-1.7","6413691b3b7c36b2a341bae6","F1","batch6","","1063.2000000029802","stim/yes_67_hor_b1.png","f","pattern_response","true","f","pattern_79","1063.2000000029802","true","43","","","","","","","","","","","","","","","","","","",""
"","","","","","html-keyboard-response","116","377116","0.0-2.0-7.0-0.8","6413691b3b7c36b2a341bae6","F1","batch6","","null","<p class=block-text>Trial 48 out of 78</p>","null","pattern_show_trial_num","","","","","","","","","","","","","","","","","","","","","","","","",""
"","","","","","image-keyboard-response","117","382070","0.0-2.0-7.0-1.8","6413691b3b7c36b2a341bae6","F1","batch6","","4953.70000000298","stim/no_44_1.png","j","pattern_response","true","j","pattern_24","4953.70000000298","true","44","","","","","","","","","","","","","","","","","","",""
"","","","","","html-keyboard-response","118","383393","0.0-2.0-7.0-0.9","6413691b3b7c36b2a341bae6","F1","batch6","","null","<p class=block-text>Trial 49 out of 78</p>","null","pattern_show_trial_num","","","","","","","","","","","","","","","","","","","","","","","","",""
"","","","","","image-keyboard-response","119","391085","0.0-2.0-7.0-1.9","6413691b3b7c36b2a341bae6","F1","batch6","","7691.79999999702","stim/no_34_1_b.png","j","pattern_response","true","j","pattern_16","7691.79999999702","true","45","","","","","","","","","","","","","","","","","","",""
"","","","","","html-keyboard-response","120","392407","0.0-2.0-7.0-0.10","6413691b3b7c36b2a341bae6","F1","batch6","","null","<p class=block-text>Trial 50 out of 78</p>","null","pattern_show_trial_num","","","","","","","","","","","","","","","","","","","","","","","","",""
"","","","","","image-keyboard-response","121","394958","0.0-2.0-7.0-1.10","6413691b3b7c36b2a341bae6","F1","batch6","","2550.7999999970198","stim/no_17_1_w.png","j","pattern_response","true","j","pattern_04","2550.7999999970198","true","46","","","","","","","","","","","","","","","","","","",""
"","","","","","html-keyboard-response","122","396274","0.0-2.0-7.0-0.11","6413691b3b7c36b2a341bae6","F1","batch6","","null","<p class=block-text>Trial 51 out of 78</p>","null","pattern_show_trial_num","","","","","","","","","","","","","","","","","","","","","","","","",""
"","","","","","image-keyboard-response","123","401881","0.0-2.0-7.0-1.11","6413691b3b7c36b2a341bae6","F1","batch6","","5606","stim/no_38_1_b.png","j","pattern_response","true","j","pattern_20","5606","true","47","","","","","","","","","","","","","","","","","","",""
"","","","","","html-keyboard-response","124","403188","0.0-2.0-7.0-0.12","6413691b3b7c36b2a341bae6","F1","batch6","","null","<p class=block-text>Trial 52 out of 78</p>","null","pattern_show_trial_num","","","","","","","","","","","","","","","","","","","","","","","","",""
"","","","","","image-keyboard-response","125","414146","0.0-2.0-7.0-1.12","6413691b3b7c36b2a341bae6","F1","batch6","","10956.70000000298","stim/yes_50_dia_w1.png","j","pattern_response","false","f","pattern_71","10956.70000000298","false","47","","","","","","","","","","","","","","","","","","",""
"","","","","","html-keyboard-response","126","415472","0.0-2.0-7.0-0.13","6413691b3b7c36b2a341bae6","F1","batch6","","null","<p class=block-text>Trial 53 out of 78</p>","null","pattern_show_trial_num","","","","","","","","","","","","","","","","","","","","","","","","",""
"","","","","","image-keyboard-response","127","426432","0.0-2.0-7.0-1.13","6413691b3b7c36b2a341bae6","F1","batch6","","10958.79999999702","stim/no_36_2_w.png","j","pattern_response","true","j","pattern_18","10958.79999999702","true","48","","","","","","","","","","","","","","","","","","",""
"","","","","","html-keyboard-response","128","427747","0.0-2.0-7.0-0.14","6413691b3b7c36b2a341bae6","F1","batch6","","null","<p class=block-text>Trial 54 out of 78</p>","null","pattern_show_trial_num","","","","","","","","","","","","","","","","","","","","","","","","",""
"","","","","","image-keyboard-response","129","431632","0.0-2.0-7.0-1.14","6413691b3b7c36b2a341bae6","F1","batch6","","3883.4000000059605","stim/no_20_1_w.png","j","pattern_response","true","j","pattern_06","3883.4000000059605","true","49","","","","","","","","","","","","","","","","","","",""
"","","","","","html-keyboard-response","130","432954","0.0-2.0-7.0-0.15","6413691b3b7c36b2a341bae6","F1","batch6","","null","<p class=block-text>Trial 55 out of 78</p>","null","pattern_show_trial_num","","","","","","","","","","","","","","","","","","","","","","","","",""
"","","","","","image-keyboard-response","131","442211","0.0-2.0-7.0-1.15","6413691b3b7c36b2a341bae6","F1","batch6","","9256.90000000596","stim/no_42_1_w.png","j","pattern_response","true","j","pattern_22","9256.90000000596","true","50","","","","","","","","","","","","","","","","","","",""
"","","","","","html-keyboard-response","132","443518","0.0-2.0-7.0-0.16","6413691b3b7c36b2a341bae6","F1","batch6","","null","<p class=block-text>Trial 56 out of 78</p>","null","pattern_show_trial_num","","","","","","","","","","","","","","","","","","","","","","","","",""
"","","","","","image-keyboard-response","133","444901","0.0-2.0-7.0-1.16","6413691b3b7c36b2a341bae6","F1","batch6","","1382.8999999910593","stim/yes_60_ver_b1_b.png","f","pattern_response","true","f","pattern_77","1382.8999999910593","true","51","","","","","","","","","","","","","","","","","","",""
"","","","","","html-keyboard-response","134","446204","0.0-2.0-7.0-0.17","6413691b3b7c36b2a341bae6","F1","batch6","","null","<p class=block-text>Trial 57 out of 78</p>","null","pattern_show_trial_num","","","","","","","","","","","","","","","","","","","","","","","","",""
"","","","","","image-keyboard-response","135","447225","0.0-2.0-7.0-1.17","6413691b3b7c36b2a341bae6","F1","batch6","","1021","stim/yes_28_ver_b1.png","f","pattern_response","true","f","pattern_51","1021","true","52","","","","","","","","","","","","","","","","","","",""
"","","","","","html-keyboard-response","136","448532","0.0-2.0-7.0-0.18","6413691b3b7c36b2a341bae6","F1","batch6","","null","<p class=block-text>Trial 58 out of 78</p>","null","pattern_show_trial_num","","","","","","","","","","","","","","","","","","","","","","","","",""
"","","","","","image-keyboard-response","137","453000","0.0-2.0-7.0-1.18","6413691b3b7c36b2a341bae6","F1","batch6","","4467.199999988079","stim/no_55_1_w.png","j","pattern_response","true","j","pattern_34","4467.199999988079","true","53","","","","","","","","","","","","","","","","","","",""
"","","","","","html-keyboard-response","138","454305","0.0-2.0-7.0-0.19","6413691b3b7c36b2a341bae6","F1","batch6","","null","<p class=block-text>Trial 59 out of 78</p>","null","pattern_show_trial_num","","","","","","","","","","","","","","","","","","","","","","","","",""
"","","","","","image-keyboard-response","139","456004","0.0-2.0-7.0-1.19","6413691b3b7c36b2a341bae6","F1","batch6","","1698.5999999940395","stim/yes_38_hor_b1_b.png","f","pattern_response","true","f","pattern_61","1698.5999999940395","true","54","","","","","","","","","","","","","","","","","","",""
"","","","","","html-keyboard-response","140","457318","0.0-2.0-7.0-0.20","6413691b3b7c36b2a341bae6","F1","batch6","","null","<p class=block-text>Trial 60 out of 78</p>","null","pattern_show_trial_num","","","","","","","","","","","","","","","","","","","","","","","","",""
"","","","","","image-keyboard-response","141","459296","0.0-2.0-7.0-1.20","6413691b3b7c36b2a341bae6","F1","batch6","","1977.5","stim/yes_37_dia_w1.png","f","pattern_response","true","f","pattern_59","1977.5","true","55","","","","","","","","","","","","","","","","","","",""
"","","","","","html-keyboard-response","142","460608","0.0-2.0-7.0-0.21","6413691b3b7c36b2a341bae6","F1","batch6","","null","<p class=block-text>Trial 61 out of 78</p>","null","pattern_show_trial_num","","","","","","","","","","","","","","","","","","","","","","","","",""
"","","","","","image-keyboard-response","143","462288","0.0-2.0-7.0-1.21","6413691b3b7c36b2a341bae6","F1","batch6","","1679.2000000029802","stim/yes_29_ver_w1.png","f","pattern_response","true","f","pattern_53","1679.2000000029802","true","56","","","","","","","","","","","","","","","","","","",""
"","","","","","html-keyboard-response","144","463597","0.0-2.0-7.0-0.22","6413691b3b7c36b2a341bae6","F1","batch6","","null","<p class=block-text>Trial 62 out of 78</p>","null","pattern_show_trial_num","","","","","","","","","","","","","","","","","","","","","","","","",""
"","","","","","image-keyboard-response","145","466633","0.0-2.0-7.0-1.22","6413691b3b7c36b2a341bae6","F1","batch6","","3035.5999999940395","stim/no_23_1.png","j","pattern_response","true","j","pattern_08","3035.5999999940395","true","57","","","","","","","","","","","","","","","","","","",""
"","","","","","html-keyboard-response","146","467951","0.0-2.0-7.0-0.23","6413691b3b7c36b2a341bae6","F1","batch6","","null","<p class=block-text>Trial 63 out of 78</p>","null","pattern_show_trial_num","","","","","","","","","","","","","","","","","","","","","","","","",""
"","","","","","image-keyboard-response","147","471275","0.0-2.0-7.0-1.23","6413691b3b7c36b2a341bae6","F1","batch6","","3323.2000000029802","stim/no_52_1.png","f","pattern_response","false","j","pattern_32","3323.2000000029802","false","57","","","","","","","","","","","","","","","","","","",""
"","","","","","html-keyboard-response","148","472581","0.0-2.0-7.0-0.24","6413691b3b7c36b2a341bae6","F1","batch6","","null","<p class=block-text>Trial 64 out of 78</p>","null","pattern_show_trial_num","","","","","","","","","","","","","","","","","","","","","","","","",""
"","","","","","image-keyboard-response","149","474121","0.0-2.0-7.0-1.24","6413691b3b7c36b2a341bae6","F1","batch6","","1539.9000000059605","stim/yes_55_hor_w1_w.png","f","pattern_response","true","f","pattern_75","1539.9000000059605","true","58","","","","","","","","","","","","","","","","","","",""
"","","","","","html-keyboard-response","150","475437","0.0-2.0-7.0-0.25","6413691b3b7c36b2a341bae6","F1","batch6","","null","<p class=block-text>Trial 65 out of 78</p>","null","pattern_show_trial_num","","","","","","","","","","","","","","","","","","","","","","","","",""
"","","","","","image-keyboard-response","151","479150","0.0-2.0-7.0-1.25","6413691b3b7c36b2a341bae6","F1","batch6","","3711.800000011921","stim/no_50_1.png","j","pattern_response","true","j","pattern_30","3711.800000011921","true","59","","","","","","","","","","","","","","","","","","",""
"","","","","","html-keyboard-response","152","480477","0.0-2.0-7.0-0.26","6413691b3b7c36b2a341bae6","F1","batch6","","null","<p class=block-text>Trial 66 out of 78</p>","null","pattern_show_trial_num","","","","","","","","","","","","","","","","","","","","","","","","",""
"","","","","","image-keyboard-response","153","484149","0.0-2.0-7.0-1.26","6413691b3b7c36b2a341bae6","F1","batch6","","3670.2999999970198","stim/no_29_1_b.png","j","pattern_response","true","j","pattern_12","3670.2999999970198","true","60","","","","","","","","","","","","","","","","","","",""
"","","","","","html-keyboard-response","154","485466","0.0-2.0-7.0-0.27","6413691b3b7c36b2a341bae6","F1","batch6","","null","<p class=block-text>Trial 67 out of 78</p>","null","pattern_show_trial_num","","","","","","","","","","","","","","","","","","","","","","","","",""
"","","","","","image-keyboard-response","155","487291","0.0-2.0-7.0-1.27","6413691b3b7c36b2a341bae6","F1","batch6","","1824.1000000089407","stim/yes_43_ver_w1_w.png","f","pattern_response","true","f","pattern_65","1824.1000000089407","true","61","","","","","","","","","","","","","","","","","","",""
"","","","","","html-keyboard-response","156","488609","0.0-2.0-7.0-0.28","6413691b3b7c36b2a341bae6","F1","batch6","","null","<p class=block-text>Trial 68 out of 78</p>","null","pattern_show_trial_num","","","","","","","","","","","","","","","","","","","","","","","","",""
"","","","","","image-keyboard-response","157","489184","0.0-2.0-7.0-1.28","6413691b3b7c36b2a341bae6","F1","batch6","","574.1000000089407","stim/yes_22_ver_w1.png","f","pattern_response","true","f","pattern_47","574.1000000089407","true","62","","","","","","","","","","","","","","","","","","",""
"","","","","","html-keyboard-response","158","490500","0.0-2.0-7.0-0.29","6413691b3b7c36b2a341bae6","F1","batch6","","null","<p class=block-text>Trial 69 out of 78</p>","null","pattern_show_trial_num","","","","","","","","","","","","","","","","","","","","","","","","",""
"","","","","","image-keyboard-response","159","492763","0.0-2.0-7.0-1.29","6413691b3b7c36b2a341bae6","F1","batch6","","2262.7000000029802","stim/yes_31_hor_b1.png","f","pattern_response","true","f","pattern_55","2262.7000000029802","true","63","","","","","","","","","","","","","","","","","","",""
"","","","","","html-keyboard-response","160","494068","0.0-2.0-7.0-0.30","6413691b3b7c36b2a341bae6","F1","batch6","","null","<p class=block-text>Trial 70 out of 78</p>","null","pattern_show_trial_num","","","","","","","","","","","","","","","","","","","","","","","","",""
"","","","","","image-keyboard-response","161","495668","0.0-2.0-7.0-1.30","6413691b3b7c36b2a341bae6","F1","batch6","","1599.5","stim/no_13_2_b.png","j","pattern_response","true","j","pattern_02","1599.5","true","64","","","","","","","","","","","","","","","","","","",""
"","","","","","html-keyboard-response","162","496979","0.0-2.0-7.0-0.31","6413691b3b7c36b2a341bae6","F1","batch6","","null","<p class=block-text>Trial 71 out of 78</p>","null","pattern_show_trial_num","","","","","","","","","","","","","","","","","","","","","","","","",""
"","","","","","image-keyboard-response","163","499471","0.0-2.0-7.0-1.31","6413691b3b7c36b2a341bae6","F1","batch6","","2490.5999999940395","stim/no_26_1_w.png","j","pattern_response","true","j","pattern_10","2490.5999999940395","true","65","","","","","","","","","","","","","","","","","","",""
"","","","","","html-keyboard-response","164","500795","0.0-2.0-7.0-0.32","6413691b3b7c36b2a341bae6","F1","batch6","","null","<p class=block-text>Trial 72 out of 78</p>","null","pattern_show_trial_num","","","","","","","","","","","","","","","","","","","","","","","","",""
"","","","","","image-keyboard-response","165","502102","0.0-2.0-7.0-1.32","6413691b3b7c36b2a341bae6","F1","batch6","","1306.7999999970198","stim/yes_35_dia_b1.png","f","pattern_response","true","f","pattern_57","1306.7999999970198","true","66","","","","","","","","","","","","","","","","","","",""
"","","","","","html-keyboard-response","166","503428","0.0-2.0-7.0-0.33","6413691b3b7c36b2a341bae6","F1","batch6","","null","<p class=block-text>Trial 73 out of 78</p>","null","pattern_show_trial_num","","","","","","","","","","","","","","","","","","","","","","","","",""
"","","","","","image-keyboard-response","167","513801","0.0-2.0-7.0-1.33","6413691b3b7c36b2a341bae6","F1","batch6","","10372.5","stim/no_65_1_b.png","j","pattern_response","true","j","pattern_38","10372.5","true","67","","","","","","","","","","","","","","","","","","",""
"","","","","","html-keyboard-response","168","515115","0.0-2.0-7.0-0.34","6413691b3b7c36b2a341bae6","F1","batch6","","null","<p class=block-text>Trial 74 out of 78</p>","null","pattern_show_trial_num","","","","","","","","","","","","","","","","","","","","","","","","",""
"","","","","","image-keyboard-response","169","518004","0.0-2.0-7.0-1.34","6413691b3b7c36b2a341bae6","F1","batch6","","2888.199999988079","stim/yes_52_ver_w1.png","f","pattern_response","true","f","pattern_73","2888.199999988079","true","68","","","","","","","","","","","","","","","","","","",""
"","","","","","html-keyboard-response","170","519335","0.0-2.0-7.0-0.35","6413691b3b7c36b2a341bae6","F1","batch6","","null","<p class=block-text>Trial 75 out of 78</p>","null","pattern_show_trial_num","","","","","","","","","","","","","","","","","","","","","","","","",""
"","","","","","image-keyboard-response","171","520228","0.0-2.0-7.0-1.35","6413691b3b7c36b2a341bae6","F1","batch6","","892.3000000119209","stim/yes_17_dia_w1.png","f","pattern_response","true","f","pattern_45","892.3000000119209","true","69","","","","","","","","","","","","","","","","","","",""
"","","","","","html-keyboard-response","172","521541","0.0-2.0-7.0-0.36","6413691b3b7c36b2a341bae6","F1","batch6","","null","<p class=block-text>Trial 76 out of 78</p>","null","pattern_show_trial_num","","","","","","","","","","","","","","","","","","","","","","","","",""
"","","","","","image-keyboard-response","173","531531","0.0-2.0-7.0-1.36","6413691b3b7c36b2a341bae6","F1","batch6","","9989","stim/yes_48_dia_w1_w.png","j","pattern_response","false","f","pattern_69","9989","false","69","","","","","","","","","","","","","","","","","","",""
"","","","","","html-keyboard-response","174","532858","0.0-2.0-7.0-0.37","6413691b3b7c36b2a341bae6","F1","batch6","","null","<p class=block-text>Trial 77 out of 78</p>","null","pattern_show_trial_num","","","","","","","","","","","","","","","","","","","","","","","","",""
"","","","","","image-keyboard-response","175","536796","0.0-2.0-7.0-1.37","6413691b3b7c36b2a341bae6","F1","batch6","","3936.9000000059605","stim/no_48_1_w.png","j","pattern_response","true","j","pattern_28","3936.9000000059605","true","70","","","","","","","","","","","","","","","","","","",""
"","","","","","html-keyboard-response","176","538115","0.0-2.0-7.0-0.38","6413691b3b7c36b2a341bae6","F1","batch6","","null","<p class=block-text>Trial 78 out of 78</p>","null","pattern_show_trial_num","","","","","","","","","","","","","","","","","","","","","","","","",""
"","","","","","image-keyboard-response","177","545999","0.0-2.0-7.0-1.38","6413691b3b7c36b2a341bae6","F1","batch6","","7882.5","stim/no_32_1_w.png","j","pattern_response","true","j","pattern_14","7882.5","true","71","","","","","","","","","","","","","","","","","","",""
"","","","","","html-button-response","178","612414","0.0-2.0-8.0","6413691b3b7c36b2a341bae6","F1","batch6","","65912.40000000596","<p class = block-text>This concludes the 4-in-a-row detection game.Thank you for your responses!<br>
            You responded correctly on 91% of the trials.<br>
            When you are ready, press ""Continue"" button to continue </p>","0","","","","","","","","","","","","","","","","","","","","","","","","","",""
"true","","","","","fullscreen","179","615881","0.0-3.0-0.0","6413691b3b7c36b2a341bae6","F1","batch6","","","","","","","","","","","","","","","","","","","","","","","","","","","","","",""
"","","","","","instructions","180","653435","0.0-3.0-1.0-0.0-0.0","6413691b3b7c36b2a341bae6","F1","batch6","[{""page_index"":0,""viewing_time"":11818.79999999702},{""page_index"":1,""viewing_time"":5057.20000000298},{""page_index"":2,""viewing_time"":3215.8999999910593},{""page_index"":3,""viewing_time"":8128.100000008941},{""page_index"":4,""viewing_time"":3228.2000000029802},{""page_index"":5,""viewing_time"":1485.2999999970198},{""page_index"":6,""viewing_time"":4619.5999999940395}]","37553.20000000298","","","tol-instructions","","","","","","","","","","","","","","","","","","","","","","","","",""
"","","","","","html-button-response","181","654365","0.0-3.0-1.0-1.0-0.0","6413691b3b7c36b2a341bae6","F1","batch6","","929.5999999940395","<p class=block-text> Let's answer a few questions <br>","0","tol_enter_quiz","","","","","","","","","","","","","","","","","","","","","","","","",""
"","","","","","html-button-response","182","659615","0.0-3.0-1.0-1.0-1.0","6413691b3b7c36b2a341bae6","F1","batch6","","5249.79999999702","<p class = block-text>True or False: You can only move the ball on top of a peg. <br></p>","0","tol_quiz","true","","","","","","","","","","","","","","","","","","","","","","","",""
"","","","","","html-button-response","183","661269","0.0-3.0-1.0-1.0-2.0","6413691b3b7c36b2a341bae6","F1","batch6","","1653.5","<p class = block-text>Correct! You can only move the ball on top of a peg.</p>","0","tol_quiz_feedback","","","","","","","","","","","","","","","","","","","","","","","","",""
"","","","","","html-button-response","184","664520","0.0-3.0-1.0-1.0-3.0","6413691b3b7c36b2a341bae6","F1","batch6","","3250.3999999910593","<p class = block-text>True or False: You should try to match your board with the target board with fewest moves possible. <br></p>","0","tol_quiz","true","","","","","","","","","","","","","","","","","","","","","","","",""
"","","","","","html-button-response","185","665294","0.0-3.0-1.0-1.0-4.0","6413691b3b7c36b2a341bae6","F1","batch6","","773.7000000029802","<p class = block-text>Correct! </p>","0","tol_quiz_feedback","","","","","","","","","","","","","","","","","","","","","","","","",""
"","","","","","html-button-response","186","667051","0.0-3.0-2.0","6413691b3b7c36b2a341bae6","F1","batch6","","1756.7000000029802","<p class=block-text> Now that you've understood the game, let's practice a few easier examples before we start!<br> <br>","0","","","","","","","","","","","","","","","","","","","","","","","","","",""
"","","","","","single-stim-button","187","669447","0.0-3.0-3.0-0.0","6413691b3b7c36b2a341bae6","F1","batch6","","2395","","","tol_practice","","","","","","","","","tol_peg_2","2395","2395","0","[[1,2,0],[0,0],[0]]","1","[[1,2,0],[0,0],[3]]","practice","2395","","","","","","","",""
"","","","","","single-stim-button","188","671544","0.0-3.0-3.0-1.0","6413691b3b7c36b2a341bae6","F1","batch6","","2095","","","tol_practice","","","","","","","","","tol_peg_3","2095","2095","0","[[1,2,0],[0,0],[3]]","1","[[1,2,0],[0,0],[3]]","practice","2095","","","","","","","",""
"","","","","","poldrack-single-stim","189","672545","0.0-3.0-4.0","6413691b3b7c36b2a341bae6","F1","batch6","","-1","","","tol_feedback","true","","","","","","","","","1000","1000","500","","","","","","-1","none","true","","0","","",""
"","","","","","single-stim-button","190","675589","0.0-3.0-5.0-0.0","6413691b3b7c36b2a341bae6","F1","batch6","","3044","","","tol_practice","","","","","","","","","tol_peg_1","3044","3044","0","[[1,0,0],[3,0],[0]]","2","[[0,0,0],[3,1],[2]]","practice","3044","","","","","","","",""
"","","","","","single-stim-button","191","678443","0.0-3.0-5.0-1.0","6413691b3b7c36b2a341bae6","F1","batch6","","2853","","","tol_practice","","","","","","","","","tol_peg_3","2853","2853","0","[[1,0,0],[3,0],[2]]","2","[[0,0,0],[3,1],[2]]","practice","2853","","","","","","","",""
"","","","","","single-stim-button","192","679496","0.0-3.0-5.1-0.1","6413691b3b7c36b2a341bae6","F1","batch6","","1053","","","tol_practice","","","","","","","","","tol_peg_1","1053","1053","0","[[0,0,0],[3,0],[2]]","3","[[0,0,0],[3,1],[2]]","practice","1053","","","","","","","",""
"","","","","","single-stim-button","193","680410","0.0-3.0-5.1-1.1","6413691b3b7c36b2a341bae6","F1","batch6","","914","","","tol_practice","","","","","","","","","tol_peg_2","914","914","0","[[0,0,0],[3,1],[2]]","3","[[0,0,0],[3,1],[2]]","practice","914","","","","","","","",""
"","","","","","poldrack-single-stim","194","681415","0.0-3.0-6.0","6413691b3b7c36b2a341bae6","F1","batch6","","-1","","","tol_feedback","true","","","","","","","","","1000","1000","500","","","","","","-1","none","true","","0","","",""
"","","","","","single-stim-button","195","683731","0.0-3.0-7.0-0.0","6413691b3b7c36b2a341bae6","F1","batch6","","2315","","","tol_practice","","","","","","","","","tol_peg_2","2315","2315","0","[[1,2,0],[0,0],[0]]","4","[[1,0,0],[2,0],[3]]","practice","2315","","","","","","","",""
"","","","","","single-stim-button","196","684831","0.0-3.0-7.0-1.0","6413691b3b7c36b2a341bae6","F1","batch6","","1099","","","tol_practice","","","","","","","","","tol_peg_3","1099","1099","0","[[1,2,0],[0,0],[3]]","4","[[1,0,0],[2,0],[3]]","practice","1099","","","","","","","",""
"","","","","","single-stim-button","197","685720","0.0-3.0-7.1-0.1","6413691b3b7c36b2a341bae6","F1","batch6","","888","","","tol_practice","","","","","","","","","tol_peg_1","888","888","0","[[1,0,0],[0,0],[3]]","5","[[1,0,0],[2,0],[3]]","practice","888","","","","","","","",""
"","","","","","single-stim-button","198","686406","0.0-3.0-7.1-1.1","6413691b3b7c36b2a341bae6","F1","batch6","","685","","","tol_practice","","","","","","","","","tol_peg_2","685","685","0","[[1,0,0],[2,0],[3]]","5","[[1,0,0],[2,0],[3]]","practice","685","","","","","","","",""
"","","","","","poldrack-single-stim","199","687406","0.0-3.0-8.0","6413691b3b7c36b2a341bae6","F1","batch6","","-1","","","tol_feedback","true","","","","","","","","","1000","1000","500","","","","","","-1","none","true","","0","","",""
"","","","","","html-button-response","200","691774","0.0-3.0-9.0","6413691b3b7c36b2a341bae6","F1","batch6","","4367.5","<div class = centerbox><p class = center-block-text>Great job! You are done with practice trials<br>You are about to start official trials.<br> <br> Problem <strong>1</strong> out of 25 problems</p></div>","0","tol_instruction","","","","","","","","","","","","","","","","","","","","","","","","",""
"","","","","","single-stim-button","201","696373","0.0-3.0-10.0-0.0","6413691b3b7c36b2a341bae6","F1","batch6","","3573","","","tol_tohand","","","","","","","","","tol_peg_1","3573","3573","0","[[1,0,0],[3,0],[0]]","1","[[1,3,0],[2,0],[0]]","0","0","","","","","","3","",""
"","","","","","single-stim-button","202","697959","0.0-3.0-10.0-1.0","6413691b3b7c36b2a341bae6","F1","batch6","","1586","","","tol_toboard","","","","","","","","","tol_peg_3","1586","1586","0","[[1,0,0],[3,0],[2]]","1","[[1,3,0],[2,0],[0]]","0","0","","","","","","3","",""
"","","","","","single-stim-button","203","698448","0.0-3.0-10.1-0.1","6413691b3b7c36b2a341bae6","F1","batch6","","489","","","tol_tohand","","","","","","","","","tol_peg_2","489","489","0","[[1,0,0],[0,0],[2]]","2","[[1,3,0],[2,0],[0]]","0","0","","","","","","3","",""
"","","","","","single-stim-button","204","699188","0.0-3.0-10.1-1.1","6413691b3b7c36b2a341bae6","F1","batch6","","740","","","tol_toboard","","","","","","","","","tol_peg_1","740","740","0","[[1,3,0],[0,0],[2]]","2","[[1,3,0],[2,0],[0]]","0","0","","","","","","3","",""
"","","","","","single-stim-button","205","699744","0.0-3.0-10.2-0.2","6413691b3b7c36b2a341bae6","F1","batch6","","556","","","tol_tohand","","","","","","","","","tol_peg_3","556","556","0","[[1,3,0],[0,0],[0]]","3","[[1,3,0],[2,0],[0]]","0","0","","","","","","3","",""
"","","","","","single-stim-button","206","700396","0.0-3.0-10.2-1.2","6413691b3b7c36b2a341bae6","F1","batch6","","652","","","tol_toboard","","","","","","","","","tol_peg_2","652","652","0","[[1,3,0],[2,0],[0]]","3","[[1,3,0],[2,0],[0]]","0","0","","","","","","3","",""
"","","","","","poldrack-single-stim","207","701404","0.0-3.0-11.0","6413691b3b7c36b2a341bae6","F1","batch6","","-1","","","tol_feedback","true","","","","","","","","","1000","1000","500","","","","","","-1","none","true","3573","4618","","",""
"","","","","","html-button-response","208","702454","0.0-3.0-12.0","6413691b3b7c36b2a341bae6","F1","batch6","","1049.6000000089407","<div class = centerbox><p class = center-block-text>problem <strong>2</strong> out of 25 problems</p></div>","0","tol_trial_num","","","","","","","","","","","","","","","","","","","","","","","","",""
"","","","","","single-stim-button","209","719394","0.0-3.0-13.0-0.0","6413691b3b7c36b2a341bae6","F1","batch6","","16940","","","tol_tohand","","","","","","","","","tol_peg_1","16940","16940","0","[[1,0,0],[3,0],[0]]","1","[[2,1,3],[0,0],[0]]","1","0","","","","","","5","",""
"","","","","","single-stim-button","210","720380","0.0-3.0-13.0-1.0","6413691b3b7c36b2a341bae6","F1","batch6","","985","","","tol_toboard","","","","","","","","","tol_peg_3","985","985","0","[[1,0,0],[3,0],[2]]","1","[[2,1,3],[0,0],[0]]","1","0","","","","","","5","",""
"","","","","","single-stim-button","211","722195","0.0-3.0-13.1-0.1","6413691b3b7c36b2a341bae6","F1","batch6","","1815","","","tol_tohand","","","","","","","","","tol_peg_1","1815","1815","0","[[0,0,0],[3,0],[2]]","2","[[2,1,3],[0,0],[0]]","1","0","","","","","","5","",""
"","","","","","single-stim-button","212","725792","0.0-3.0-13.1-1.1","6413691b3b7c36b2a341bae6","F1","batch6","","3597","","","tol_toboard","","","","","","","","","tol_peg_1","3597","3597","0","[[1,0,0],[3,0],[2]]","2","[[2,1,3],[0,0],[0]]","1","0","","","","","","5","",""
"","","","","","single-stim-button","213","726361","0.0-3.0-13.2-0.2","6413691b3b7c36b2a341bae6","F1","batch6","","568","","","tol_tohand","","","","","","","","","tol_peg_2","568","568","0","[[1,0,0],[0,0],[2]]","3","[[2,1,3],[0,0],[0]]","1","0","","","","","","5","",""
"","","","","","single-stim-button","214","730273","0.0-3.0-13.2-1.2","6413691b3b7c36b2a341bae6","F1","batch6","","3911","","","tol_toboard","","","","","","","","","tol_peg_1","3911","3911","0","[[1,3,0],[0,0],[2]]","3","[[2,1,3],[0,0],[0]]","1","0","","","","","","5","",""
"","","","","","single-stim-button","215","731307","0.0-3.0-13.3-0.3","6413691b3b7c36b2a341bae6","F1","batch6","","1032","","","tol_tohand","","","","","","","","","tol_peg_3","1032","1032","0","[[1,3,0],[0,0],[0]]","4","[[2,1,3],[0,0],[0]]","1","0","","","","","","5","",""
"","","","","","single-stim-button","216","731985","0.0-3.0-13.3-1.3","6413691b3b7c36b2a341bae6","F1","batch6","","678","","","tol_toboard","","","","","","","","","tol_peg_2","678","678","0","[[1,3,0],[2,0],[0]]","4","[[2,1,3],[0,0],[0]]","1","0","","","","","","5","",""
"","","","","","single-stim-button","217","732852","0.0-3.0-13.4-0.4","6413691b3b7c36b2a341bae6","F1","batch6","","866","","","tol_tohand","","","","","","","","","tol_peg_1","866","866","0","[[1,0,0],[2,0],[0]]","5","[[2,1,3],[0,0],[0]]","1","0","","","","","","5","",""
"","","","","","single-stim-button","218","734150","0.0-3.0-13.4-1.4","6413691b3b7c36b2a341bae6","F1","batch6","","1298","","","tol_toboard","","","","","","","","","tol_peg_3","1298","1298","0","[[1,0,0],[2,0],[3]]","5","[[2,1,3],[0,0],[0]]","1","0","","","","","","5","",""
"","","","","","single-stim-button","219","735126","0.0-3.0-13.5-0.5","6413691b3b7c36b2a341bae6","F1","batch6","","975","","","tol_tohand","","","","","","","","","tol_peg_1","975","975","0","[[0,0,0],[2,0],[3]]","6","[[2,1,3],[0,0],[0]]","1","0","","","","","","5","",""
"","","","","","single-stim-button","220","736607","0.0-3.0-13.5-1.5","6413691b3b7c36b2a341bae6","F1","batch6","","1480","","","tol_toboard","","","","","","","","","tol_peg_2","1480","1480","0","[[0,0,0],[2,1],[3]]","6","[[2,1,3],[0,0],[0]]","1","0","","","","","","5","",""
"","","","","","single-stim-button","221","739282","0.0-3.0-13.6-0.6","6413691b3b7c36b2a341bae6","F1","batch6","","2674","","","tol_tohand","","","","","","","","","tol_peg_3","2674","2674","0","[[0,0,0],[2,1],[0]]","7","[[2,1,3],[0,0],[0]]","1","0","","","","","","5","",""
"","","","","","single-stim-button","222","740297","0.0-3.0-13.6-1.6","6413691b3b7c36b2a341bae6","F1","batch6","","1014","","","tol_toboard","","","","","","","","","tol_peg_1","1014","1014","0","[[3,0,0],[2,1],[0]]","7","[[2,1,3],[0,0],[0]]","1","0","","","","","","5","",""
"","","","","","single-stim-button","223","741318","0.0-3.0-13.7-0.7","6413691b3b7c36b2a341bae6","F1","batch6","","1020","","","tol_tohand","","","","","","","","","tol_peg_2","1020","1020","0","[[3,0,0],[2,0],[0]]","8","[[2,1,3],[0,0],[0]]","1","0","","","","","","5","",""
"","","","","","single-stim-button","224","743797","0.0-3.0-13.7-1.7","6413691b3b7c36b2a341bae6","F1","batch6","","2478","","","tol_toboard","","","","","","","","","tol_peg_3","2478","2478","0","[[3,0,0],[2,0],[1]]","8","[[2,1,3],[0,0],[0]]","1","0","","","","","","5","",""
"","","","","","single-stim-button","225","744928","0.0-3.0-13.8-0.8","6413691b3b7c36b2a341bae6","F1","batch6","","1130","","","tol_tohand","","","","","","","","","tol_peg_1","1130","1130","0","[[0,0,0],[2,0],[1]]","9","[[2,1,3],[0,0],[0]]","1","0","","","","","","5","",""
"","","","","","single-stim-button","226","747959","0.0-3.0-13.8-1.8","6413691b3b7c36b2a341bae6","F1","batch6","","3029","","","tol_toboard","","","","","","","","","tol_peg_1","3029","3029","0","[[3,0,0],[2,0],[1]]","9","[[2,1,3],[0,0],[0]]","1","0","","","","","","5","",""
"","","","","","single-stim-button","227","748602","0.0-3.0-13.9-0.9","6413691b3b7c36b2a341bae6","F1","batch6","","642","","","tol_tohand","","","","","","","","","tol_peg_2","642","642","0","[[3,0,0],[0,0],[1]]","10","[[2,1,3],[0,0],[0]]","1","0","","","","","","5","",""
"","","","","","single-stim-button","228","750239","0.0-3.0-13.9-1.9","6413691b3b7c36b2a341bae6","F1","batch6","","1637","","","tol_toboard","","","","","","","","","tol_peg_1","1637","1637","0","[[3,2,0],[0,0],[1]]","10","[[2,1,3],[0,0],[0]]","1","0","","","","","","5","",""
"","","","","","single-stim-button","229","751379","0.0-3.0-13.10-0.10","6413691b3b7c36b2a341bae6","F1","batch6","","1140","","","tol_tohand","","","","","","","","","tol_peg_1","1140","1140","0","[[3,0,0],[0,0],[1]]","11","[[2,1,3],[0,0],[0]]","1","0","","","","","","5","",""
"","","","","","single-stim-button","230","755912","0.0-3.0-13.10-1.10","6413691b3b7c36b2a341bae6","F1","batch6","","4533","","","tol_toboard","","","","","","","","","tol_peg_2","4533","4533","0","[[3,0,0],[2,0],[1]]","11","[[2,1,3],[0,0],[0]]","1","0","","","","","","5","",""
"","","","","","single-stim-button","231","758131","0.0-3.0-13.11-0.11","6413691b3b7c36b2a341bae6","F1","batch6","","2219","","","tol_tohand","","","","","","","","","tol_peg_3","2219","2219","0","[[3,0,0],[2,0],[0]]","12","[[2,1,3],[0,0],[0]]","1","0","","","","","","5","",""
"","","","","","single-stim-button","232","759019","0.0-3.0-13.11-1.11","6413691b3b7c36b2a341bae6","F1","batch6","","888","","","tol_toboard","","","","","","","","","tol_peg_2","888","888","0","[[3,0,0],[2,1],[0]]","12","[[2,1,3],[0,0],[0]]","1","0","","","","","","5","",""
"","","","","","single-stim-button","233","759826","0.0-3.0-13.12-0.12","6413691b3b7c36b2a341bae6","F1","batch6","","807","","","tol_tohand","","","","","","","","","tol_peg_1","807","807","0","[[0,0,0],[2,1],[0]]","13","[[2,1,3],[0,0],[0]]","1","0","","","","","","5","",""
"","","","","","single-stim-button","234","760596","0.0-3.0-13.12-1.12","6413691b3b7c36b2a341bae6","F1","batch6","","770","","","tol_toboard","","","","","","","","","tol_peg_3","770","770","0","[[0,0,0],[2,1],[3]]","13","[[2,1,3],[0,0],[0]]","1","0","","","","","","5","",""
"","","","","","single-stim-button","235","763600","0.0-3.0-13.13-0.13","6413691b3b7c36b2a341bae6","F1","batch6","","3004","","","tol_tohand","","","","","","","","","tol_peg_2","3004","3004","0","[[0,0,0],[2,0],[3]]","14","[[2,1,3],[0,0],[0]]","1","0","","","","","","5","",""
"","","","","","single-stim-button","236","764291","0.0-3.0-13.13-1.13","6413691b3b7c36b2a341bae6","F1","batch6","","691","","","tol_toboard","","","","","","","","","tol_peg_1","691","691","0","[[1,0,0],[2,0],[3]]","14","[[2,1,3],[0,0],[0]]","1","0","","","","","","5","",""
"","","","","","single-stim-button","237","767150","0.0-3.0-13.14-0.14","6413691b3b7c36b2a341bae6","F1","batch6","","2859","","","tol_tohand","","","","","","","","","tol_peg_2","2859","2859","0","[[1,0,0],[0,0],[3]]","15","[[2,1,3],[0,0],[0]]","1","0","","","","","","5","",""
"","","","","","single-stim-button","238","767823","0.0-3.0-13.14-1.14","6413691b3b7c36b2a341bae6","F1","batch6","","673","","","tol_toboard","","","","","","","","","tol_peg_1","673","673","0","[[1,2,0],[0,0],[3]]","15","[[2,1,3],[0,0],[0]]","1","0","","","","","","5","",""
"","","","","","single-stim-button","239","768377","0.0-3.0-13.15-0.15","6413691b3b7c36b2a341bae6","F1","batch6","","554","","","tol_tohand","","","","","","","","","tol_peg_3","554","554","0","[[1,2,0],[0,0],[0]]","16","[[2,1,3],[0,0],[0]]","1","0","","","","","","5","",""
"","","","","","single-stim-button","240","769097","0.0-3.0-13.15-1.15","6413691b3b7c36b2a341bae6","F1","batch6","","720","","","tol_toboard","","","","","","","","","tol_peg_2","720","720","0","[[1,2,0],[3,0],[0]]","16","[[2,1,3],[0,0],[0]]","1","0","","","","","","5","",""
"","","","","","single-stim-button","241","769574","0.0-3.0-13.16-0.16","6413691b3b7c36b2a341bae6","F1","batch6","","477","","","tol_tohand","","","","","","","","","tol_peg_1","477","477","0","[[1,0,0],[3,0],[0]]","17","[[2,1,3],[0,0],[0]]","1","0","","","","","","5","",""
"","","","","","single-stim-button","242","770158","0.0-3.0-13.16-1.16","6413691b3b7c36b2a341bae6","F1","batch6","","584","","","tol_toboard","","","","","","","","","tol_peg_2","584","584","0","[[1,0,0],[3,2],[0]]","17","[[2,1,3],[0,0],[0]]","1","0","","","","","","5","",""
"","","","","","single-stim-button","243","771097","0.0-3.0-13.17-0.17","6413691b3b7c36b2a341bae6","F1","batch6","","939","","","tol_tohand","","","","","","","","","tol_peg_1","939","939","0","[[0,0,0],[3,2],[0]]","18","[[2,1,3],[0,0],[0]]","1","0","","","","","","5","",""
"","","","","","single-stim-button","244","771863","0.0-3.0-13.17-1.17","6413691b3b7c36b2a341bae6","F1","batch6","","766","","","tol_toboard","","","","","","","","","tol_peg_3","766","766","0","[[0,0,0],[3,2],[1]]","18","[[2,1,3],[0,0],[0]]","1","0","","","","","","5","",""
"","","","","","single-stim-button","245","772444","0.0-3.0-13.18-0.18","6413691b3b7c36b2a341bae6","F1","batch6","","580","","","tol_tohand","","","","","","","","","tol_peg_2","580","580","0","[[0,0,0],[3,0],[1]]","19","[[2,1,3],[0,0],[0]]","1","0","","","","","","5","",""
"","","","","","single-stim-button","246","773441","0.0-3.0-13.18-1.18","6413691b3b7c36b2a341bae6","F1","batch6","","997","","","tol_toboard","","","","","","","","","tol_peg_1","997","997","0","[[2,0,0],[3,0],[1]]","19","[[2,1,3],[0,0],[0]]","1","0","","","","","","5","",""
"","","","","","single-stim-button","247","774108","0.0-3.0-13.19-0.19","6413691b3b7c36b2a341bae6","F1","batch6","","667","","","tol_tohand","","","","","","","","","tol_peg_3","667","667","0","[[2,0,0],[3,0],[0]]","20","[[2,1,3],[0,0],[0]]","1","0","","","","","","5","",""
"","","","","","single-stim-button","248","774954","0.0-3.0-13.19-1.19","6413691b3b7c36b2a341bae6","F1","batch6","","846","","","tol_toboard","","","","","","","","","tol_peg_1","846","846","0","[[2,1,0],[3,0],[0]]","20","[[2,1,3],[0,0],[0]]","1","0","","","","","","5","",""
"","","","","","single-stim-button","249","775436","0.0-3.0-13.20-0.20","6413691b3b7c36b2a341bae6","F1","batch6","","482","","","tol_tohand","","","","","","","","","tol_peg_2","482","482","0","[[2,1,0],[0,0],[0]]","21","[[2,1,3],[0,0],[0]]","1","0","","","","","","5","",""
"","","","","","single-stim-button","250","775951","0.0-3.0-13.20-1.20","6413691b3b7c36b2a341bae6","F1","batch6","","515","","","tol_toboard","","","","","","","","","tol_peg_1","515","515","0","[[2,1,3],[0,0],[0]]","21","[[2,1,3],[0,0],[0]]","1","0","","","","","","5","",""
"","","","","","poldrack-single-stim","251","776959","0.0-3.0-14.0","6413691b3b7c36b2a341bae6","F1","batch6","","-1","","","tol_feedback","true","","","","","","","","","1000","1000","500","","","","","","-1","none","true","16940","41390","","",""
"","","","","","html-button-response","252","777876","0.0-3.0-15.0","6413691b3b7c36b2a341bae6","F1","batch6","","916.7000000029802","<div class = centerbox><p class = center-block-text>problem <strong>3</strong> out of 25 problems</p></div>","0","tol_trial_num","","","","","","","","","","","","","","","","","","","","","","","","",""
"","","","","","single-stim-button","253","781325","0.0-3.0-16.0-0.0","6413691b3b7c36b2a341bae6","F1","batch6","","3448","","","tol_tohand","","","","","","","","","tol_peg_1","3448","3448","0","[[2,0,0],[0,0],[1]]","1","[[1,2,0],[3,0],[0]]","2","0","","","","","","4","",""
"","","","","","single-stim-button","254","782563","0.0-3.0-16.0-1.0","6413691b3b7c36b2a341bae6","F1","batch6","","1238","","","tol_toboard","","","","","","","","","tol_peg_2","1238","1238","0","[[2,0,0],[3,0],[1]]","1","[[1,2,0],[3,0],[0]]","2","0","","","","","","4","",""
"","","","","","single-stim-button","255","785032","0.0-3.0-16.1-0.1","6413691b3b7c36b2a341bae6","F1","batch6","","2469","","","tol_tohand","","","","","","","","","tol_peg_1","2469","2469","0","[[0,0,0],[3,0],[1]]","2","[[1,2,0],[3,0],[0]]","2","0","","","","","","4","",""
"","","","","","single-stim-button","256","786016","0.0-3.0-16.1-1.1","6413691b3b7c36b2a341bae6","F1","batch6","","984","","","tol_toboard","","","","","","","","","tol_peg_2","984","984","0","[[0,0,0],[3,2],[1]]","2","[[1,2,0],[3,0],[0]]","2","0","","","","","","4","",""
"","","","","","single-stim-button","257","786477","0.0-3.0-16.2-0.2","6413691b3b7c36b2a341bae6","F1","batch6","","460","","","tol_tohand","","","","","","","","","tol_peg_3","460","460","0","[[0,0,0],[3,2],[0]]","3","[[1,2,0],[3,0],[0]]","2","0","","","","","","4","",""
"","","","","","single-stim-button","258","787029","0.0-3.0-16.2-1.2","6413691b3b7c36b2a341bae6","F1","batch6","","552","","","tol_toboard","","","","","","","","","tol_peg_1","552","552","0","[[1,0,0],[3,2],[0]]","3","[[1,2,0],[3,0],[0]]","2","0","","","","","","4","",""
"","","","","","single-stim-button","259","787535","0.0-3.0-16.3-0.3","6413691b3b7c36b2a341bae6","F1","batch6","","505","","","tol_tohand","","","","","","","","","tol_peg_2","505","505","0","[[1,0,0],[3,0],[0]]","4","[[1,2,0],[3,0],[0]]","2","0","","","","","","4","",""
"","","","","","single-stim-button","260","788059","0.0-3.0-16.3-1.3","6413691b3b7c36b2a341bae6","F1","batch6","","523","","","tol_toboard","","","","","","","","","tol_peg_1","523","523","0","[[1,2,0],[3,0],[0]]","4","[[1,2,0],[3,0],[0]]","2","0","","","","","","4","",""
"","","","","","poldrack-single-stim","261","789060","0.0-3.0-17.0","6413691b3b7c36b2a341bae6","F1","batch6","","-1","","","tol_feedback","true","","","","","","","","","1000","1000","500","","","","","","-1","none","true","3448","6882","","",""
"","","","","","html-button-response","262","789719","0.0-3.0-18.0","6413691b3b7c36b2a341bae6","F1","batch6","","659","<div class = centerbox><p class = center-block-text>problem <strong>4</strong> out of 25 problems</p></div>","0","tol_trial_num","","","","","","","","","","","","","","","","","","","","","","","","",""
"","","","","","single-stim-button","263","792696","0.0-3.0-19.0-0.0","6413691b3b7c36b2a341bae6","F1","batch6","","2977","","","tol_tohand","","","","","","","","","tol_peg_2","2977","2977","0","[[3,0,0],[2,0],[0]]","1","[[3,0,0],[1,0],[2]]","3","0","","","","","","3","",""
"","","","","","single-stim-button","264","794711","0.0-3.0-19.0-1.0","6413691b3b7c36b2a341bae6","F1","batch6","","2015","","","tol_toboard","","","","","","","","","tol_peg_1","2015","2015","0","[[3,1,0],[2,0],[0]]","1","[[3,0,0],[1,0],[2]]","3","0","","","","","","3","",""
"","","","","","single-stim-button","265","795383","0.0-3.0-19.1-0.1","6413691b3b7c36b2a341bae6","F1","batch6","","672","","","tol_tohand","","","","","","","","","tol_peg_2","672","672","0","[[3,1,0],[0,0],[0]]","2","[[3,0,0],[1,0],[2]]","3","0","","","","","","3","",""
"","","","","","single-stim-button","266","796112","0.0-3.0-19.1-1.1","6413691b3b7c36b2a341bae6","F1","batch6","","729","","","tol_toboard","","","","","","","","","tol_peg_3","729","729","0","[[3,1,0],[0,0],[2]]","2","[[3,0,0],[1,0],[2]]","3","0","","","","","","3","",""
"","","","","","single-stim-button","267","796537","0.0-3.0-19.2-0.2","6413691b3b7c36b2a341bae6","F1","batch6","","425","","","tol_tohand","","","","","","","","","tol_peg_1","425","425","0","[[3,0,0],[0,0],[2]]","3","[[3,0,0],[1,0],[2]]","3","0","","","","","","3","",""
"","","","","","single-stim-button","268","797031","0.0-3.0-19.2-1.2","6413691b3b7c36b2a341bae6","F1","batch6","","494","","","tol_toboard","","","","","","","","","tol_peg_2","494","494","0","[[3,0,0],[1,0],[2]]","3","[[3,0,0],[1,0],[2]]","3","0","","","","","","3","",""
"","","","","","poldrack-single-stim","269","798032","0.0-3.0-20.0","6413691b3b7c36b2a341bae6","F1","batch6","","-1","","","tol_feedback","true","","","","","","","","","1000","1000","500","","","","","","-1","none","true","2977","4074","","",""
"","","","","","html-button-response","270","798799","0.0-3.0-21.0","6413691b3b7c36b2a341bae6","F1","batch6","","766.4000000059605","<div class = centerbox><p class = center-block-text>problem <strong>5</strong> out of 25 problems</p></div>","0","tol_trial_num","","","","","","","","","","","","","","","","","","","","","","","","",""
"","","","","","single-stim-button","271","810761","0.0-3.0-22.0-0.0","6413691b3b7c36b2a341bae6","F1","batch6","","11962","","","tol_tohand","","","","","","","","","tol_peg_1","11962","11962","0","[[0,0,0],[2,0],[3]]","1","[[0,0,0],[1,2],[3]]","4","0","","","","","","7","",""
"","","","","","single-stim-button","272","811546","0.0-3.0-22.0-1.0","6413691b3b7c36b2a341bae6","F1","batch6","","784","","","tol_toboard","","","","","","","","","tol_peg_2","784","784","0","[[0,0,0],[2,1],[3]]","1","[[0,0,0],[1,2],[3]]","4","0","","","","","","7","",""
"","","","","","single-stim-button","273","812603","0.0-3.0-22.1-0.1","6413691b3b7c36b2a341bae6","F1","batch6","","1056","","","tol_tohand","","","","","","","","","tol_peg_3","1056","1056","0","[[0,0,0],[2,1],[0]]","2","[[0,0,0],[1,2],[3]]","4","0","","","","","","7","",""
"","","","","","single-stim-button","274","813370","0.0-3.0-22.1-1.1","6413691b3b7c36b2a341bae6","F1","batch6","","766","","","tol_toboard","","","","","","","","","tol_peg_1","766","766","0","[[3,0,0],[2,1],[0]]","2","[[0,0,0],[1,2],[3]]","4","0","","","","","","7","",""
"","","","","","single-stim-button","275","816016","0.0-3.0-22.2-0.2","6413691b3b7c36b2a341bae6","F1","batch6","","2644","","","tol_tohand","","","","","","","","","tol_peg_2","2644","2644","0","[[3,0,0],[2,0],[0]]","3","[[0,0,0],[1,2],[3]]","4","0","","","","","","7","",""
"","","","","","single-stim-button","276","816660","0.0-3.0-22.2-1.2","6413691b3b7c36b2a341bae6","F1","batch6","","644","","","tol_toboard","","","","","","","","","tol_peg_1","644","644","0","[[3,1,0],[2,0],[0]]","3","[[0,0,0],[1,2],[3]]","4","0","","","","","","7","",""
"","","","","","single-stim-button","277","817075","0.0-3.0-22.3-0.3","6413691b3b7c36b2a341bae6","F1","batch6","","414","","","tol_tohand","","","","","","","","","tol_peg_2","414","414","0","[[3,1,0],[0,0],[0]]","4","[[0,0,0],[1,2],[3]]","4","0","","","","","","7","",""
"","","","","","single-stim-button","278","817533","0.0-3.0-22.3-1.3","6413691b3b7c36b2a341bae6","F1","batch6","","458","","","tol_toboard","","","","","","","","","tol_peg_3","458","458","0","[[3,1,0],[0,0],[2]]","4","[[0,0,0],[1,2],[3]]","4","0","","","","","","7","",""
"","","","","","single-stim-button","279","818224","0.0-3.0-22.4-0.4","6413691b3b7c36b2a341bae6","F1","batch6","","690","","","tol_tohand","","","","","","","","","tol_peg_1","690","690","0","[[3,0,0],[0,0],[2]]","5","[[0,0,0],[1,2],[3]]","4","0","","","","","","7","",""
"","","","","","single-stim-button","280","818674","0.0-3.0-22.4-1.4","6413691b3b7c36b2a341bae6","F1","batch6","","449","","","tol_toboard","","","","","","","","","tol_peg_2","449","449","0","[[3,0,0],[1,0],[2]]","5","[[0,0,0],[1,2],[3]]","4","0","","","","","","7","",""
"","","","","","single-stim-button","281","819331","0.0-3.0-22.5-0.5","6413691b3b7c36b2a341bae6","F1","batch6","","656","","","tol_tohand","","","","","","","","","tol_peg_3","656","656","0","[[3,0,0],[1,0],[0]]","6","[[0,0,0],[1,2],[3]]","4","0","","","","","","7","",""
"","","","","","single-stim-button","282","819849","0.0-3.0-22.5-1.5","6413691b3b7c36b2a341bae6","F1","batch6","","517","","","tol_toboard","","","","","","","","","tol_peg_2","517","517","0","[[3,0,0],[1,2],[0]]","6","[[0,0,0],[1,2],[3]]","4","0","","","","","","7","",""
"","","","","","single-stim-button","283","820440","0.0-3.0-22.6-0.6","6413691b3b7c36b2a341bae6","F1","batch6","","590","","","tol_tohand","","","","","","","","","tol_peg_1","590","590","0","[[0,0,0],[1,2],[0]]","7","[[0,0,0],[1,2],[3]]","4","0","","","","","","7","",""
"","","","","","single-stim-button","284","820929","0.0-3.0-22.6-1.6","6413691b3b7c36b2a341bae6","F1","batch6","","487","","","tol_toboard","","","","","","","","","tol_peg_3","487","487","0","[[0,0,0],[1,2],[3]]","7","[[0,0,0],[1,2],[3]]","4","0","","","","","","7","",""
"","","","","","poldrack-single-stim","285","821929","0.0-3.0-23.0","6413691b3b7c36b2a341bae6","F1","batch6","","-1","","","tol_feedback","true","","","","","","","","","1000","1000","500","","","","","","-1","none","true","11962","18012","","",""
"","","","","","html-button-response","286","822628","0.0-3.0-24.0","6413691b3b7c36b2a341bae6","F1","batch6","","698.7999999970198","<div class = centerbox><p class = center-block-text>problem <strong>6</strong> out of 25 problems</p></div>","0","tol_trial_num","","","","","","","","","","","","","","","","","","","","","","","","",""
"","","","","","single-stim-button","287","824925","0.0-3.0-25.0-0.0","6413691b3b7c36b2a341bae6","F1","batch6","","2295","","","tol_tohand","","","","","","","","","tol_peg_2","2295","2295","0","[[0,0,0],[1,0],[3]]","1","[[1,0,0],[2,3],[0]]","5","0","","","","","","6","",""
"","","","","","single-stim-button","288","827084","0.0-3.0-25.0-1.0","6413691b3b7c36b2a341bae6","F1","batch6","","2159","","","tol_toboard","","","","","","","","","tol_peg_2","2159","2159","0","[[0,0,0],[1,2],[3]]","1","[[1,0,0],[2,3],[0]]","5","0","","","","","","6","",""
"","","","","","single-stim-button","289","829201","0.0-3.0-25.1-0.1","6413691b3b7c36b2a341bae6","F1","batch6","","2116","","","tol_tohand","","","","","","","","","tol_peg_3","2116","2116","0","[[0,0,0],[1,2],[0]]","2","[[1,0,0],[2,3],[0]]","5","0","","","","","","6","",""
"","","","","","single-stim-button","290","834139","0.0-3.0-25.1-1.1","6413691b3b7c36b2a341bae6","F1","batch6","","4938","","","tol_toboard","","","","","","","","","tol_peg_3","4938","4938","0","[[0,0,0],[1,2],[3]]","2","[[1,0,0],[2,3],[0]]","5","0","","","","","","6","",""
"","","","","","single-stim-button","291","835274","0.0-3.0-25.2-0.2","6413691b3b7c36b2a341bae6","F1","batch6","","1135","","","tol_tohand","","","","","","","","","tol_peg_2","1135","1135","0","[[0,0,0],[1,0],[3]]","3","[[1,0,0],[2,3],[0]]","5","0","","","","","","6","",""
"","","","","","single-stim-button","292","835845","0.0-3.0-25.2-1.2","6413691b3b7c36b2a341bae6","F1","batch6","","571","","","tol_toboard","","","","","","","","","tol_peg_1","571","571","0","[[2,0,0],[1,0],[3]]","3","[[1,0,0],[2,3],[0]]","5","0","","","","","","6","",""
"","","","","","single-stim-button","293","836992","0.0-3.0-25.3-0.3","6413691b3b7c36b2a341bae6","F1","batch6","","1147","","","tol_tohand","","","","","","","","","tol_peg_3","1147","1147","0","[[2,0,0],[1,0],[0]]","4","[[1,0,0],[2,3],[0]]","5","0","","","","","","6","",""
"","","","","","single-stim-button","294","837616","0.0-3.0-25.3-1.3","6413691b3b7c36b2a341bae6","F1","batch6","","624","","","tol_toboard","","","","","","","","","tol_peg_1","624","624","0","[[2,3,0],[1,0],[0]]","4","[[1,0,0],[2,3],[0]]","5","0","","","","","","6","",""
"","","","","","single-stim-button","295","838388","0.0-3.0-25.4-0.4","6413691b3b7c36b2a341bae6","F1","batch6","","772","","","tol_tohand","","","","","","","","","tol_peg_2","772","772","0","[[2,3,0],[0,0],[0]]","5","[[1,0,0],[2,3],[0]]","5","0","","","","","","6","",""
"","","","","","single-stim-button","296","838992","0.0-3.0-25.4-1.4","6413691b3b7c36b2a341bae6","F1","batch6","","604","","","tol_toboard","","","","","","","","","tol_peg_3","604","604","0","[[2,3,0],[0,0],[1]]","5","[[1,0,0],[2,3],[0]]","5","0","","","","","","6","",""
"","","","","","single-stim-button","297","839736","0.0-3.0-25.5-0.5","6413691b3b7c36b2a341bae6","F1","batch6","","744","","","tol_tohand","","","","","","","","","tol_peg_1","744","744","0","[[2,0,0],[0,0],[1]]","6","[[1,0,0],[2,3],[0]]","5","0","","","","","","6","",""
"","","","","","single-stim-button","298","840327","0.0-3.0-25.5-1.5","6413691b3b7c36b2a341bae6","F1","batch6","","591","","","tol_toboard","","","","","","","","","tol_peg_2","591","591","0","[[2,0,0],[3,0],[1]]","6","[[1,0,0],[2,3],[0]]","5","0","","","","","","6","",""
"","","","","","single-stim-button","299","840859","0.0-3.0-25.6-0.6","6413691b3b7c36b2a341bae6","F1","batch6","","532","","","tol_tohand","","","","","","","","","tol_peg_1","532","532","0","[[0,0,0],[3,0],[1]]","7","[[1,0,0],[2,3],[0]]","5","0","","","","","","6","",""
"","","","","","single-stim-button","300","841473","0.0-3.0-25.6-1.6","6413691b3b7c36b2a341bae6","F1","batch6","","614","","","tol_toboard","","","","","","","","","tol_peg_2","614","614","0","[[0,0,0],[3,2],[1]]","7","[[1,0,0],[2,3],[0]]","5","0","","","","","","6","",""
"","","","","","single-stim-button","301","842006","0.0-3.0-25.7-0.7","6413691b3b7c36b2a341bae6","F1","batch6","","533","","","tol_tohand","","","","","","","","","tol_peg_3","533","533","0","[[0,0,0],[3,2],[0]]","8","[[1,0,0],[2,3],[0]]","5","0","","","","","","6","",""
"","","","","","single-stim-button","302","842844","0.0-3.0-25.7-1.7","6413691b3b7c36b2a341bae6","F1","batch6","","838","","","tol_toboard","","","","","","","","","tol_peg_1","838","838","0","[[1,0,0],[3,2],[0]]","8","[[1,0,0],[2,3],[0]]","5","0","","","","","","6","",""
"","","","","","single-stim-button","303","844300","0.0-3.0-25.8-0.8","6413691b3b7c36b2a341bae6","F1","batch6","","1456","","","tol_tohand","","","","","","","","","tol_peg_2","1456","1456","0","[[1,0,0],[3,0],[0]]","9","[[1,0,0],[2,3],[0]]","5","0","","","","","","6","",""
"","","","","","single-stim-button","304","844940","0.0-3.0-25.8-1.8","6413691b3b7c36b2a341bae6","F1","batch6","","640","","","tol_toboard","","","","","","","","","tol_peg_3","640","640","0","[[1,0,0],[3,0],[2]]","9","[[1,0,0],[2,3],[0]]","5","0","","","","","","6","",""
"","","","","","single-stim-button","305","845413","0.0-3.0-25.9-0.9","6413691b3b7c36b2a341bae6","F1","batch6","","473","","","tol_tohand","","","","","","","","","tol_peg_2","473","473","0","[[1,0,0],[0,0],[2]]","10","[[1,0,0],[2,3],[0]]","5","0","","","","","","6","",""
"","","","","","single-stim-button","306","847091","0.0-3.0-25.9-1.9","6413691b3b7c36b2a341bae6","F1","batch6","","1678","","","tol_toboard","","","","","","","","","tol_peg_1","1678","1678","0","[[1,3,0],[0,0],[2]]","10","[[1,0,0],[2,3],[0]]","5","0","","","","","","6","",""
"","","","","","single-stim-button","307","847618","0.0-3.0-25.10-0.10","6413691b3b7c36b2a341bae6","F1","batch6","","527","","","tol_tohand","","","","","","","","","tol_peg_3","527","527","0","[[1,3,0],[0,0],[0]]","11","[[1,0,0],[2,3],[0]]","5","0","","","","","","6","",""
"","","","","","single-stim-button","308","848394","0.0-3.0-25.10-1.10","6413691b3b7c36b2a341bae6","F1","batch6","","776","","","tol_toboard","","","","","","","","","tol_peg_2","776","776","0","[[1,3,0],[2,0],[0]]","11","[[1,0,0],[2,3],[0]]","5","0","","","","","","6","",""
"","","","","","single-stim-button","309","849089","0.0-3.0-25.11-0.11","6413691b3b7c36b2a341bae6","F1","batch6","","695","","","tol_tohand","","","","","","","","","tol_peg_1","695","695","0","[[1,0,0],[2,0],[0]]","12","[[1,0,0],[2,3],[0]]","5","0","","","","","","6","",""
"","","","","","single-stim-button","310","849902","0.0-3.0-25.11-1.11","6413691b3b7c36b2a341bae6","F1","batch6","","813","","","tol_toboard","","","","","","","","","tol_peg_2","813","813","0","[[1,0,0],[2,3],[0]]","12","[[1,0,0],[2,3],[0]]","5","0","","","","","","6","",""
"","","","","","poldrack-single-stim","311","850903","0.0-3.0-26.0","6413691b3b7c36b2a341bae6","F1","batch6","","-1","","","tol_feedback","true","","","","","","","","","1000","1000","500","","","","","","-1","none","true","2295","12425","","",""
"","","","","","html-button-response","312","852049","0.0-3.0-27.0","6413691b3b7c36b2a341bae6","F1","batch6","","1146.0999999940395","<div class = centerbox><p class = center-block-text>problem <strong>7</strong> out of 25 problems</p></div>","0","tol_trial_num","","","","","","","","","","","","","","","","","","","","","","","","",""
"","","","","","single-stim-button","313","855302","0.0-3.0-28.0-0.0","6413691b3b7c36b2a341bae6","F1","batch6","","3253","","","tol_tohand","","","","","","","","","tol_peg_1","3253","3253","0","[[2,0,0],[0,0],[3]]","1","[[1,2,0],[3,0],[0]]","6","0","","","","","","5","",""
"","","","","","single-stim-button","314","857831","0.0-3.0-28.0-1.0","6413691b3b7c36b2a341bae6","F1","batch6","","2528","","","tol_toboard","","","","","","","","","tol_peg_2","2528","2528","0","[[2,0,0],[1,0],[3]]","1","[[1,2,0],[3,0],[0]]","6","0","","","","","","5","",""
"","","","","","single-stim-button","315","858393","0.0-3.0-28.1-0.1","6413691b3b7c36b2a341bae6","F1","batch6","","560","","","tol_tohand","","","","","","","","","tol_peg_3","560","560","0","[[2,0,0],[1,0],[0]]","2","[[1,2,0],[3,0],[0]]","6","0","","","","","","5","",""
"","","","","","single-stim-button","316","861161","0.0-3.0-28.1-1.1","6413691b3b7c36b2a341bae6","F1","batch6","","2768","","","tol_toboard","","","","","","","","","tol_peg_1","2768","2768","0","[[2,3,0],[1,0],[0]]","2","[[1,2,0],[3,0],[0]]","6","0","","","","","","5","",""
"","","","","","single-stim-button","317","861877","0.0-3.0-28.2-0.2","6413691b3b7c36b2a341bae6","F1","batch6","","715","","","tol_tohand","","","","","","","","","tol_peg_2","715","715","0","[[2,3,0],[0,0],[0]]","3","[[1,2,0],[3,0],[0]]","6","0","","","","","","5","",""
"","","","","","single-stim-button","318","862342","0.0-3.0-28.2-1.2","6413691b3b7c36b2a341bae6","F1","batch6","","465","","","tol_toboard","","","","","","","","","tol_peg_3","465","465","0","[[2,3,0],[0,0],[1]]","3","[[1,2,0],[3,0],[0]]","6","0","","","","","","5","",""
"","","","","","single-stim-button","319","863159","0.0-3.0-28.3-0.3","6413691b3b7c36b2a341bae6","F1","batch6","","816","","","tol_tohand","","","","","","","","","tol_peg_1","816","816","0","[[2,0,0],[0,0],[1]]","4","[[1,2,0],[3,0],[0]]","6","0","","","","","","5","",""
"","","","","","single-stim-button","320","864133","0.0-3.0-28.3-1.3","6413691b3b7c36b2a341bae6","F1","batch6","","974","","","tol_toboard","","","","","","","","","tol_peg_2","974","974","0","[[2,0,0],[3,0],[1]]","4","[[1,2,0],[3,0],[0]]","6","0","","","","","","5","",""
"","","","","","single-stim-button","321","865501","0.0-3.0-28.4-0.4","6413691b3b7c36b2a341bae6","F1","batch6","","1367","","","tol_tohand","","","","","","","","","tol_peg_1","1367","1367","0","[[0,0,0],[3,0],[1]]","5","[[1,2,0],[3,0],[0]]","6","0","","","","","","5","",""
"","","","","","single-stim-button","322","865931","0.0-3.0-28.4-1.4","6413691b3b7c36b2a341bae6","F1","batch6","","429","","","tol_toboard","","","","","","","","","tol_peg_2","429","429","0","[[0,0,0],[3,2],[1]]","5","[[1,2,0],[3,0],[0]]","6","0","","","","","","5","",""
"","","","","","single-stim-button","323","866332","0.0-3.0-28.5-0.5","6413691b3b7c36b2a341bae6","F1","batch6","","401","","","tol_tohand","","","","","","","","","tol_peg_3","401","401","0","[[0,0,0],[3,2],[0]]","6","[[1,2,0],[3,0],[0]]","6","0","","","","","","5","",""
"","","","","","single-stim-button","324","866902","0.0-3.0-28.5-1.5","6413691b3b7c36b2a341bae6","F1","batch6","","569","","","tol_toboard","","","","","","","","","tol_peg_1","569","569","0","[[1,0,0],[3,2],[0]]","6","[[1,2,0],[3,0],[0]]","6","0","","","","","","5","",""
"","","","","","single-stim-button","325","867346","0.0-3.0-28.6-0.6","6413691b3b7c36b2a341bae6","F1","batch6","","442","","","tol_tohand","","","","","","","","","tol_peg_2","442","442","0","[[1,0,0],[3,0],[0]]","7","[[1,2,0],[3,0],[0]]","6","0","","","","","","5","",""
"","","","","","single-stim-button","326","867851","0.0-3.0-28.6-1.6","6413691b3b7c36b2a341bae6","F1","batch6","","504","","","tol_toboard","","","","","","","","","tol_peg_1","504","504","0","[[1,2,0],[3,0],[0]]","7","[[1,2,0],[3,0],[0]]","6","0","","","","","","5","",""
"","","","","","poldrack-single-stim","327","868853","0.0-3.0-29.0","6413691b3b7c36b2a341bae6","F1","batch6","","-1","","","tol_feedback","true","","","","","","","","","1000","1000","500","","","","","","-1","none","true","3253","7554","","",""
"","","","","","html-button-response","328","869790","0.0-3.0-30.0","6413691b3b7c36b2a341bae6","F1","batch6","","936.6000000089407","<div class = centerbox><p class = center-block-text>problem <strong>8</strong> out of 25 problems</p></div>","0","tol_trial_num","","","","","","","","","","","","","","","","","","","","","","","","",""
"","","","","","single-stim-button","329","872567","0.0-3.0-31.0-0.0","6413691b3b7c36b2a341bae6","F1","batch6","","2777","","","tol_tohand","","","","","","","","","tol_peg_3","2777","2777","0","[[0,0,0],[2,3],[0]]","1","[[1,2,0],[3,0],[0]]","7","0","","","","","","4","",""
"","","","","","single-stim-button","330","873474","0.0-3.0-31.0-1.0","6413691b3b7c36b2a341bae6","F1","batch6","","906","","","tol_toboard","","","","","","","","","tol_peg_1","906","906","0","[[1,0,0],[2,3],[0]]","1","[[1,2,0],[3,0],[0]]","7","0","","","","","","4","",""
"","","","","","single-stim-button","331","873932","0.0-3.0-31.1-0.1","6413691b3b7c36b2a341bae6","F1","batch6","","457","","","tol_tohand","","","","","","","","","tol_peg_2","457","457","0","[[1,0,0],[2,0],[0]]","2","[[1,2,0],[3,0],[0]]","7","0","","","","","","4","",""
"","","","","","single-stim-button","332","874518","0.0-3.0-31.1-1.1","6413691b3b7c36b2a341bae6","F1","batch6","","586","","","tol_toboard","","","","","","","","","tol_peg_3","586","586","0","[[1,0,0],[2,0],[3]]","2","[[1,2,0],[3,0],[0]]","7","0","","","","","","4","",""
"","","","","","single-stim-button","333","874937","0.0-3.0-31.2-0.2","6413691b3b7c36b2a341bae6","F1","batch6","","419","","","tol_tohand","","","","","","","","","tol_peg_2","419","419","0","[[1,0,0],[0,0],[3]]","3","[[1,2,0],[3,0],[0]]","7","0","","","","","","4","",""
"","","","","","single-stim-button","334","875443","0.0-3.0-31.2-1.2","6413691b3b7c36b2a341bae6","F1","batch6","","506","","","tol_toboard","","","","","","","","","tol_peg_1","506","506","0","[[1,2,0],[0,0],[3]]","3","[[1,2,0],[3,0],[0]]","7","0","","","","","","4","",""
"","","","","","single-stim-button","335","876008","0.0-3.0-31.3-0.3","6413691b3b7c36b2a341bae6","F1","batch6","","565","","","tol_tohand","","","","","","","","","tol_peg_3","565","565","0","[[1,2,0],[0,0],[0]]","4","[[1,2,0],[3,0],[0]]","7","0","","","","","","4","",""
"","","","","","single-stim-button","336","876460","0.0-3.0-31.3-1.3","6413691b3b7c36b2a341bae6","F1","batch6","","452","","","tol_toboard","","","","","","","","","tol_peg_2","452","452","0","[[1,2,0],[3,0],[0]]","4","[[1,2,0],[3,0],[0]]","7","0","","","","","","4","",""
"","","","","","poldrack-single-stim","337","877464","0.0-3.0-32.0","6413691b3b7c36b2a341bae6","F1","batch6","","-1","","","tol_feedback","true","","","","","","","","","1000","1000","500","","","","","","-1","none","true","2777","4218","","",""
"","","","","","html-button-response","338","878143","0.0-3.0-33.0","6413691b3b7c36b2a341bae6","F1","batch6","","678.1000000089407","<div class = centerbox><p class = center-block-text>problem <strong>9</strong> out of 25 problems</p></div>","0","tol_trial_num","","","","","","","","","","","","","","","","","","","","","","","","",""
"","","","","","single-stim-button","339","879812","0.0-3.0-34.0-0.0","6413691b3b7c36b2a341bae6","F1","batch6","","1669","","","tol_tohand","","","","","","","","","tol_peg_1","1669","1669","0","[[3,0,0],[0,0],[1]]","1","[[2,1,0],[3,0],[0]]","8","0","","","","","","6","",""
"","","","","","single-stim-button","340","880432","0.0-3.0-34.0-1.0","6413691b3b7c36b2a341bae6","F1","batch6","","620","","","tol_toboard","","","","","","","","","tol_peg_2","620","620","0","[[3,0,0],[2,0],[1]]","1","[[2,1,0],[3,0],[0]]","8","0","","","","","","6","",""
"","","","","","single-stim-button","341","880989","0.0-3.0-34.1-0.1","6413691b3b7c36b2a341bae6","F1","batch6","","557","","","tol_tohand","","","","","","","","","tol_peg_1","557","557","0","[[0,0,0],[2,0],[1]]","2","[[2,1,0],[3,0],[0]]","8","0","","","","","","6","",""
"","","","","","single-stim-button","342","886666","0.0-3.0-34.1-1.1","6413691b3b7c36b2a341bae6","F1","batch6","","5677","","","tol_toboard","","","","","","","","","tol_peg_1","5677","5677","0","[[3,0,0],[2,0],[1]]","2","[[2,1,0],[3,0],[0]]","8","0","","","","","","6","",""
"","","","","","single-stim-button","343","888224","0.0-3.0-34.2-0.2","6413691b3b7c36b2a341bae6","F1","batch6","","1558","","","tol_tohand","","","","","","","","","tol_peg_3","1558","1558","0","[[3,0,0],[2,0],[0]]","3","[[2,1,0],[3,0],[0]]","8","0","","","","","","6","",""
"","","","","","single-stim-button","344","888753","0.0-3.0-34.2-1.2","6413691b3b7c36b2a341bae6","F1","batch6","","529","","","tol_toboard","","","","","","","","","tol_peg_2","529","529","0","[[3,0,0],[2,1],[0]]","3","[[2,1,0],[3,0],[0]]","8","0","","","","","","6","",""
"","","","","","single-stim-button","345","889226","0.0-3.0-34.3-0.3","6413691b3b7c36b2a341bae6","F1","batch6","","473","","","tol_tohand","","","","","","","","","tol_peg_1","473","473","0","[[0,0,0],[2,1],[0]]","4","[[2,1,0],[3,0],[0]]","8","0","","","","","","6","",""
"","","","","","single-stim-button","346","889730","0.0-3.0-34.3-1.3","6413691b3b7c36b2a341bae6","F1","batch6","","504","","","tol_toboard","","","","","","","","","tol_peg_3","504","504","0","[[0,0,0],[2,1],[3]]","4","[[2,1,0],[3,0],[0]]","8","0","","","","","","6","",""
"","","","","","single-stim-button","347","890266","0.0-3.0-34.4-0.4","6413691b3b7c36b2a341bae6","F1","batch6","","536","","","tol_tohand","","","","","","","","","tol_peg_2","536","536","0","[[0,0,0],[2,0],[3]]","5","[[2,1,0],[3,0],[0]]","8","0","","","","","","6","",""
"","","","","","single-stim-button","348","890878","0.0-3.0-34.4-1.4","6413691b3b7c36b2a341bae6","F1","batch6","","612","","","tol_toboard","","","","","","","","","tol_peg_1","612","612","0","[[1,0,0],[2,0],[3]]","5","[[2,1,0],[3,0],[0]]","8","0","","","","","","6","",""
