"success","timeout","failed_images","failed_audio","failed_video","trial_type","trial_index","time_elapsed","internal_node_id","subject_id","study_id","session_id","view_history","rt","stimulus","response","task","correct","answer","item","fiar_detect_rt","fiar_detect_correct","total_correct_fiar_detect","post_trial_gap","choices","mouse_click","stim_duration","block_duration","timing_post_trial","current_position","tol_num_moves_made","tol_target","tol_problem_id","tol_rt","key_press","possible_responses","tol_correct","preplanning","tol_rt_per_trial","tol_min_moves","spm_correct","spm_rt"
"true","false","[]","[]","[]","preload","0","4782","0.0-0.0","6435f2188202776934eacb5d","B2","batch2","","","","","","","","","","","","","","","","","","","","","","","","","","","","","",""
"true","","","","","fullscreen","1","23242","0.0-1.0-0.0","6435f2188202776934eacb5d","B2","batch2","","","","","","","","","","","","","","","","","","","","","","","","","","","","","",""
"true","","","","","fullscreen","2","29828","0.0-2.0-0.0","6435f2188202776934eacb5d","B2","batch2","","","","","","","","","","","","","","","","","","","","","","","","","","","","","",""
"","","","","","instructions","3","55685","0.0-2.0-1.0-0.0","6435f2188202776934eacb5d","B2","batch2","[{""page_index"":0,""viewing_time"":16931.90000000596},{""page_index"":1,""viewing_time"":8924}]","25856.10000000894","","","","","","","","","","","","","","","","","","","","","","","","","","","",""
"","","","","","html-button-response","4","57367","0.0-2.0-1.0-1.0-0.0","6435f2188202776934eacb5d","B2","batch2","","1680.5999999940395","<p class=block-text> Let's answer a few questions <br>","0","pattern_enter_quiz","","","","","","","","","","","","","","","","","","","","","","","","",""
"","","","","","html-button-response","5","60698","0.0-2.0-1.0-1.0-1.0","6435f2188202776934eacb5d","B2","batch2","","3329.6000000089407","<p class = block-text>True or False: You will have as much time as you want to make each choice. <br></p>","1","pattern_quiz","true","","","","","","","","","","","","","","","","","","","","","","","",""
"","","","","","html-button-response","6","63359","0.0-2.0-1.0-1.0-2.0","6435f2188202776934eacb5d","B2","batch2","","2659.300000011921","<p class = block-text>Correct! You should make your choice <strong> as fast as you can</strong>.</p>","0","pattern_quiz_feedback","","","","","","","","","","","","","","","","","","","","","","","","",""
"","","","","","html-button-response","7","70265","0.0-2.0-1.0-1.0-3.0","6435f2188202776934eacb5d","B2","batch2","","6904.70000000298","<p class = block-text>True or False: You will look for 4 pieces in black or white color connected in a row either horizontally, vertically or diagonally. <br></p>","0","pattern_quiz","true","","","","","","","","","","","","","","","","","","","","","","","",""
"","","","","","html-button-response","8","71291","0.0-2.0-1.0-1.0-4.0","6435f2188202776934eacb5d","B2","batch2","","1025.0999999940395","<p class = block-text>Correct! </p>","0","pattern_quiz_feedback","","","","","","","","","","","","","","","","","","","","","","","","",""
"","","","","","html-button-response","9","73095","0.0-2.0-2.0","6435f2188202776934eacb5d","B2","batch2","","1801.9000000059605","<p class=block-text> Now that you've understood the game, let's do a few practice trials before we start!<br> <br>","0","pattern_enter_practice","","","","","","","","","","","","","","","","","","","","","","","","",""
"","","","","","image-keyboard-response","10","77031","0.0-2.0-3.0-0.0","6435f2188202776934eacb5d","B2","batch2","","3933.5","stim/prac_yes_20_dia_b1.png","f","pattern_practice","true","f","","","","","","","","","","","","","","","","","","","","","","",""
"","","","","","html-keyboard-response","11","78046","0.0-2.0-3.0-1.0","6435f2188202776934eacb5d","B2","batch2","","null","<p style=""font-size:30px;color:green;"">Correct!</p>","null","pattern_feedback","","","","","","","","","","","","","","","","","","","","","","","","",""
"","","","","","image-keyboard-response","12","81104","0.0-2.0-3.0-0.1","6435f2188202776934eacb5d","B2","batch2","","3057.1000000089407","stim/prac_yes_18_hor_w1.png","f","pattern_practice","true","f","","","","","","","","","","","","","","","","","","","","","","",""
"","","","","","html-keyboard-response","13","82129","0.0-2.0-3.0-1.1","6435f2188202776934eacb5d","B2","batch2","","null","<p style=""font-size:30px;color:green;"">Correct!</p>","null","pattern_feedback","","","","","","","","","","","","","","","","","","","","","","","","",""
"","","","","","image-keyboard-response","14","83630","0.0-2.0-3.0-0.2","6435f2188202776934eacb5d","B2","batch2","","1497.9000000059605","stim/prac_yes_16_ver_w1.png","f","pattern_practice","true","f","","","","","","","","","","","","","","","","","","","","","","",""
"","","","","","html-keyboard-response","15","84644","0.0-2.0-3.0-1.2","6435f2188202776934eacb5d","B2","batch2","","null","<p style=""font-size:30px;color:green;"">Correct!</p>","null","pattern_feedback","","","","","","","","","","","","","","","","","","","","","","","","",""
"","","","","","image-keyboard-response","16","85737","0.0-2.0-3.0-0.3","6435f2188202776934eacb5d","B2","batch2","","1090.1000000089407","stim/prac_no_16_1.png","f","pattern_practice","false","j","","","","","","","","","","","","","","","","","","","","","","",""
"","","","","","html-keyboard-response","17","86759","0.0-2.0-3.0-1.3","6435f2188202776934eacb5d","B2","batch2","","null","<p style=""font-size:30px;color:red;"">Wrong.</p>","null","pattern_feedback","","","","","","","","","","","","","","","","","","","","","","","","",""
"","","","","","image-keyboard-response","18","91344","0.0-2.0-3.0-0.4","6435f2188202776934eacb5d","B2","batch2","","4583.0999999940395","stim/prac_no_18_1.png","j","pattern_practice","true","j","","","","","","","","","","","","","","","","","","","","","","",""
"","","","","","html-keyboard-response","19","92367","0.0-2.0-3.0-1.4","6435f2188202776934eacb5d","B2","batch2","","null","<p style=""font-size:30px;color:green;"">Correct!</p>","null","pattern_feedback","","","","","","","","","","","","","","","","","","","","","","","","",""
"","","","","","html-button-response","20","98558","0.0-2.0-4.0","6435f2188202776934eacb5d","B2","batch2","","6188.5999999940395","<p class=block-text> Good job! You are done with practice trials!<br>
        You responded correctly on 80% of the trials.<br>
        Press the button below to start official trials. Now you won't see any feedback about your response</p>","0","pattern_enter_official_trials","","","","","","","","","","","","","","","","","","","","","","","","",""
"","","","","","html-keyboard-response","21","99361","0.0-2.0-5.0-0.0","6435f2188202776934eacb5d","B2","batch2","","null","<p class=block-text>Trial 1 out of 78</p>","null","pattern_show_trial_num","","","","","","","","","","","","","","","","","","","","","","","","",""
"","","","","","image-keyboard-response","22","103853","0.0-2.0-5.0-1.0","6435f2188202776934eacb5d","B2","batch2","","4489.5","stim/yes_70_ver_b1.png","f","pattern_response","true","f","pattern_80","4489.5","true","1","","","","","","","","","","","","","","","","","","",""
"","","","","","html-keyboard-response","23","105167","0.0-2.0-5.0-0.1","6435f2188202776934eacb5d","B2","batch2","","null","<p class=block-text>Trial 2 out of 78</p>","null","pattern_show_trial_num","","","","","","","","","","","","","","","","","","","","","","","","",""
"","","","","","image-keyboard-response","24","106956","0.0-2.0-5.0-1.1","6435f2188202776934eacb5d","B2","batch2","","1787.5999999940395","stim/no_45_1_w.png","f","pattern_response","false","j","pattern_25","1787.5999999940395","false","1","","","","","","","","","","","","","","","","","","",""
"","","","","","html-keyboard-response","25","108276","0.0-2.0-5.0-0.2","6435f2188202776934eacb5d","B2","batch2","","null","<p class=block-text>Trial 3 out of 78</p>","null","pattern_show_trial_num","","","","","","","","","","","","","","","","","","","","","","","","",""
"","","","","","image-keyboard-response","26","110494","0.0-2.0-5.0-1.2","6435f2188202776934eacb5d","B2","batch2","","2216.0999999940395","stim/yes_49_hor_w1_b.png","f","pattern_response","true","f","pattern_70","2216.0999999940395","true","2","","","","","","","","","","","","","","","","","","",""
"","","","","","html-keyboard-response","27","111803","0.0-2.0-5.0-0.3","6435f2188202776934eacb5d","B2","batch2","","null","<p class=block-text>Trial 4 out of 78</p>","null","pattern_show_trial_num","","","","","","","","","","","","","","","","","","","","","","","","",""
"","","","","","image-keyboard-response","28","112714","0.0-2.0-5.0-1.3","6435f2188202776934eacb5d","B2","batch2","","909","stim/yes_39_hor_w1_w.png","f","pattern_response","true","f","pattern_62","909","true","3","","","","","","","","","","","","","","","","","","",""
"","","","","","html-keyboard-response","29","114036","0.0-2.0-5.0-0.4","6435f2188202776934eacb5d","B2","batch2","","null","<p class=block-text>Trial 5 out of 78</p>","null","pattern_show_trial_num","","","","","","","","","","","","","","","","","","","","","","","","",""
"","","","","","image-keyboard-response","30","118619","0.0-2.0-5.0-1.4","6435f2188202776934eacb5d","B2","batch2","","4581.20000000298","stim/no_22_1_b.png","j","pattern_response","true","j","pattern_07","4581.20000000298","true","4","","","","","","","","","","","","","","","","","","",""
"","","","","","html-keyboard-response","31","119934","0.0-2.0-5.0-0.5","6435f2188202776934eacb5d","B2","batch2","","null","<p class=block-text>Trial 6 out of 78</p>","null","pattern_show_trial_num","","","","","","","","","","","","","","","","","","","","","","","","",""
"","","","","","image-keyboard-response","32","121679","0.0-2.0-5.0-1.5","6435f2188202776934eacb5d","B2","batch2","","1743.199999988079","stim/no_47_1_b.png","f","pattern_response","false","j","pattern_27","1743.199999988079","false","4","","","","","","","","","","","","","","","","","","",""
"","","","","","html-keyboard-response","33","122983","0.0-2.0-5.0-0.6","6435f2188202776934eacb5d","B2","batch2","","null","<p class=block-text>Trial 7 out of 78</p>","null","pattern_show_trial_num","","","","","","","","","","","","","","","","","","","","","","","","",""
"","","","","","image-keyboard-response","34","124383","0.0-2.0-5.0-1.6","6435f2188202776934eacb5d","B2","batch2","","1397.9000000059605","stim/yes_37_hor_w1_w.png","f","pattern_response","true","f","pattern_60","1397.9000000059605","true","5","","","","","","","","","","","","","","","","","","",""
"","","","","","html-keyboard-response","35","125700","0.0-2.0-5.0-0.7","6435f2188202776934eacb5d","B2","batch2","","null","<p class=block-text>Trial 8 out of 78</p>","null","pattern_show_trial_num","","","","","","","","","","","","","","","","","","","","","","","","",""
"","","","","","image-keyboard-response","36","129917","0.0-2.0-5.0-1.7","6435f2188202776934eacb5d","B2","batch2","","4214.79999999702","stim/no_36_1_b.png","j","pattern_response","true","j","pattern_17","4214.79999999702","true","6","","","","","","","","","","","","","","","","","","",""
"","","","","","html-keyboard-response","37","131229","0.0-2.0-5.0-0.8","6435f2188202776934eacb5d","B2","batch2","","null","<p class=block-text>Trial 9 out of 78</p>","null","pattern_show_trial_num","","","","","","","","","","","","","","","","","","","","","","","","",""
"","","","","","image-keyboard-response","38","132443","0.0-2.0-5.0-1.8","6435f2188202776934eacb5d","B2","batch2","","1211.7000000029802","stim/yes_29_hor_b1_b.png","f","pattern_response","true","f","pattern_52","1211.7000000029802","true","7","","","","","","","","","","","","","","","","","","",""
"","","","","","html-keyboard-response","39","133761","0.0-2.0-5.0-0.9","6435f2188202776934eacb5d","B2","batch2","","null","<p class=block-text>Trial 10 out of 78</p>","null","pattern_show_trial_num","","","","","","","","","","","","","","","","","","","","","","","","",""
"","","","","","image-keyboard-response","40","137682","0.0-2.0-5.0-1.9","6435f2188202776934eacb5d","B2","batch2","","3919.7999999970198","stim/no_51_1.png","f","pattern_response","false","j","pattern_31","3919.7999999970198","false","7","","","","","","","","","","","","","","","","","","",""
"","","","","","html-keyboard-response","41","139000","0.0-2.0-5.0-0.10","6435f2188202776934eacb5d","B2","batch2","","null","<p class=block-text>Trial 11 out of 78</p>","null","pattern_show_trial_num","","","","","","","","","","","","","","","","","","","","","","","","",""
"","","","","","image-keyboard-response","42","140549","0.0-2.0-5.0-1.10","6435f2188202776934eacb5d","B2","batch2","","1547.0999999940395","stim/yes_15_dia_b1u_b.png","f","pattern_response","true","f","pattern_44","1547.0999999940395","true","8","","","","","","","","","","","","","","","","","","",""
"","","","","","html-keyboard-response","43","141861","0.0-2.0-5.0-0.11","6435f2188202776934eacb5d","B2","batch2","","null","<p class=block-text>Trial 12 out of 78</p>","null","pattern_show_trial_num","","","","","","","","","","","","","","","","","","","","","","","","",""
"","","","","","image-keyboard-response","44","145703","0.0-2.0-5.0-1.11","6435f2188202776934eacb5d","B2","batch2","","3841.2000000029802","stim/yes_63_dia_b1.png","f","pattern_response","true","f","pattern_78","3841.2000000029802","true","9","","","","","","","","","","","","","","","","","","",""
"","","","","","html-keyboard-response","45","147014","0.0-2.0-5.0-0.12","6435f2188202776934eacb5d","B2","batch2","","null","<p class=block-text>Trial 13 out of 78</p>","null","pattern_show_trial_num","","","","","","","","","","","","","","","","","","","","","","","","",""
"","","","","","image-keyboard-response","46","149032","0.0-2.0-5.0-1.12","6435f2188202776934eacb5d","B2","batch2","","2015.7000000029802","stim/no_43_2_b.png","f","pattern_response","false","j","pattern_23","2015.7000000029802","false","9","","","","","","","","","","","","","","","","","","",""
"","","","","","html-keyboard-response","47","150340","0.0-2.0-5.0-0.13","6435f2188202776934eacb5d","B2","batch2","","null","<p class=block-text>Trial 14 out of 78</p>","null","pattern_show_trial_num","","","","","","","","","","","","","","","","","","","","","","","","",""
"","","","","","image-keyboard-response","48","152421","0.0-2.0-5.0-1.13","6435f2188202776934eacb5d","B2","batch2","","2078.5","stim/no_58_1_w.png","f","pattern_response","false","j","pattern_35","2078.5","false","9","","","","","","","","","","","","","","","","","","",""
"","","","","","html-keyboard-response","49","153736","0.0-2.0-5.0-0.14","6435f2188202776934eacb5d","B2","batch2","","null","<p class=block-text>Trial 15 out of 78</p>","null","pattern_show_trial_num","","","","","","","","","","","","","","","","","","","","","","","","",""
"","","","","","image-keyboard-response","50","154964","0.0-2.0-5.0-1.14","6435f2188202776934eacb5d","B2","batch2","","1225.199999988079","stim/no_25_1_b.png","f","pattern_response","false","j","pattern_09","1225.199999988079","false","9","","","","","","","","","","","","","","","","","","",""
"","","","","","html-keyboard-response","51","156275","0.0-2.0-5.0-0.15","6435f2188202776934eacb5d","B2","batch2","","null","<p class=block-text>Trial 16 out of 78</p>","null","pattern_show_trial_num","","","","","","","","","","","","","","","","","","","","","","","","",""
"","","","","","image-keyboard-response","52","160553","0.0-2.0-5.0-1.15","6435f2188202776934eacb5d","B2","batch2","","4276.4000000059605","stim/no_30_1_b.png","j","pattern_response","true","j","pattern_13","4276.4000000059605","true","10","","","","","","","","","","","","","","","","","","",""
"","","","","","html-keyboard-response","53","161872","0.0-2.0-5.0-0.16","6435f2188202776934eacb5d","B2","batch2","","null","<p class=block-text>Trial 17 out of 78</p>","null","pattern_show_trial_num","","","","","","","","","","","","","","","","","","","","","","","","",""
"","","","","","image-keyboard-response","54","163429","0.0-2.0-5.0-1.16","6435f2188202776934eacb5d","B2","batch2","","1555.1000000089407","stim/yes_26_dia_w2_w.png","f","pattern_response","true","f","pattern_50","1555.1000000089407","true","11","","","","","","","","","","","","","","","","","","",""
"","","","","","html-keyboard-response","55","164744","0.0-2.0-5.0-0.17","6435f2188202776934eacb5d","B2","batch2","","null","<p class=block-text>Trial 18 out of 78</p>","null","pattern_show_trial_num","","","","","","","","","","","","","","","","","","","","","","","","",""
"","","","","","image-keyboard-response","56","166834","0.0-2.0-5.0-1.17","6435f2188202776934eacb5d","B2","batch2","","2088.1000000089407","stim/yes_46_ver_b1_b.png","f","pattern_response","true","f","pattern_68","2088.1000000089407","true","12","","","","","","","","","","","","","","","","","","",""
"","","","","","html-keyboard-response","57","168144","0.0-2.0-5.0-0.18","6435f2188202776934eacb5d","B2","batch2","","null","<p class=block-text>Trial 19 out of 78</p>","null","pattern_show_trial_num","","","","","","","","","","","","","","","","","","","","","","","","",""
"","","","","","image-keyboard-response","58","172031","0.0-2.0-5.0-1.18","6435f2188202776934eacb5d","B2","batch2","","3885","stim/yes_51_dia_b1.png","f","pattern_response","true","f","pattern_72","3885","true","13","","","","","","","","","","","","","","","","","","",""
"","","","","","html-keyboard-response","59","173345","0.0-2.0-5.0-0.19","6435f2188202776934eacb5d","B2","batch2","","null","<p class=block-text>Trial 20 out of 78</p>","null","pattern_show_trial_num","","","","","","","","","","","","","","","","","","","","","","","","",""
"","","","","","image-keyboard-response","60","175395","0.0-2.0-5.0-1.19","6435f2188202776934eacb5d","B2","batch2","","2048.699999988079","stim/yes_58_dia_w1_w.png","f","pattern_response","true","f","pattern_76","2048.699999988079","true","14","","","","","","","","","","","","","","","","","","",""
"","","","","","html-keyboard-response","61","176704","0.0-2.0-5.0-0.20","6435f2188202776934eacb5d","B2","batch2","","null","<p class=block-text>Trial 21 out of 78</p>","null","pattern_show_trial_num","","","","","","","","","","","","","","","","","","","","","","","","",""
"","","","","","image-keyboard-response","62","179707","0.0-2.0-5.0-1.20","6435f2188202776934eacb5d","B2","batch2","","3001.5999999940395","stim/yes_30_ver_b1_b.png","f","pattern_response","true","f","pattern_54","3001.5999999940395","true","15","","","","","","","","","","","","","","","","","","",""
"","","","","","html-keyboard-response","63","181024","0.0-2.0-5.0-0.21","6435f2188202776934eacb5d","B2","batch2","","null","<p class=block-text>Trial 22 out of 78</p>","null","pattern_show_trial_num","","","","","","","","","","","","","","","","","","","","","","","","",""
"","","","","","image-keyboard-response","64","182181","0.0-2.0-5.0-1.21","6435f2188202776934eacb5d","B2","batch2","","1155.2000000029802","stim/no_33_1_b.png","f","pattern_response","false","j","pattern_15","1155.2000000029802","false","15","","","","","","","","","","","","","","","","","","",""
"","","","","","html-keyboard-response","65","183498","0.0-2.0-5.0-0.22","6435f2188202776934eacb5d","B2","batch2","","null","<p class=block-text>Trial 23 out of 78</p>","null","pattern_show_trial_num","","","","","","","","","","","","","","","","","","","","","","","","",""
"","","","","","image-keyboard-response","66","184355","0.0-2.0-5.0-1.22","6435f2188202776934eacb5d","B2","batch2","","854.7000000029802","stim/yes_44_ver_w1_w.png","f","pattern_response","true","f","pattern_66","854.7000000029802","true","16","","","","","","","","","","","","","","","","","","",""
"","","","","","html-keyboard-response","67","185674","0.0-2.0-5.0-0.23","6435f2188202776934eacb5d","B2","batch2","","null","<p class=block-text>Trial 24 out of 78</p>","null","pattern_show_trial_num","","","","","","","","","","","","","","","","","","","","","","","","",""
"","","","","","image-keyboard-response","68","188418","0.0-2.0-5.0-1.23","6435f2188202776934eacb5d","B2","batch2","","2742.4000000059605","stim/no_15_1_w.png","j","pattern_response","true","j","pattern_03","2742.4000000059605","true","17","","","","","","","","","","","","","","","","","","",""
"","","","","","html-keyboard-response","69","189733","0.0-2.0-5.0-0.24","6435f2188202776934eacb5d","B2","batch2","","null","<p class=block-text>Trial 25 out of 78</p>","null","pattern_show_trial_num","","","","","","","","","","","","","","","","","","","","","","","","",""
"","","","","","image-keyboard-response","70","190794","0.0-2.0-5.0-1.24","6435f2188202776934eacb5d","B2","batch2","","1059.7000000029802","stim/yes_33_dia_w1_w.png","f","pattern_response","true","f","pattern_56","1059.7000000029802","true","18","","","","","","","","","","","","","","","","","","",""
"","","","","","html-keyboard-response","71","192106","0.0-2.0-5.0-0.25","6435f2188202776934eacb5d","B2","batch2","","null","<p class=block-text>Trial 26 out of 78</p>","null","pattern_show_trial_num","","","","","","","","","","","","","","","","","","","","","","","","",""
"","","","","","image-keyboard-response","72","193444","0.0-2.0-5.0-1.25","6435f2188202776934eacb5d","B2","batch2","","1335.800000011921","stim/yes_17_ver_b1_b.png","f","pattern_response","true","f","pattern_46","1335.800000011921","true","19","","","","","","","","","","","","","","","","","","",""
"","","","","","html-keyboard-response","73","194753","0.0-2.0-5.0-0.26","6435f2188202776934eacb5d","B2","batch2","","null","<p class=block-text>Trial 27 out of 78</p>","null","pattern_show_trial_num","","","","","","","","","","","","","","","","","","","","","","","","",""
"","","","","","image-keyboard-response","74","195435","0.0-2.0-5.0-1.26","6435f2188202776934eacb5d","B2","batch2","","679.8000000119209","stim/yes_12_hor_w1_w.png","f","pattern_response","true","f","pattern_42","679.8000000119209","true","20","","","","","","","","","","","","","","","","","","",""
"","","","","","html-keyboard-response","75","196759","0.0-2.0-5.0-0.27","6435f2188202776934eacb5d","B2","batch2","","null","<p class=block-text>Trial 28 out of 78</p>","null","pattern_show_trial_num","","","","","","","","","","","","","","","","","","","","","","","","",""
"","","","","","image-keyboard-response","76","198655","0.0-2.0-5.0-1.27","6435f2188202776934eacb5d","B2","batch2","","1894.7999999970198","stim/no_67_1.png","f","pattern_response","false","j","pattern_39","1894.7999999970198","false","20","","","","","","","","","","","","","","","","","","",""
"","","","","","html-keyboard-response","77","199979","0.0-2.0-5.0-0.28","6435f2188202776934eacb5d","B2","batch2","","null","<p class=block-text>Trial 29 out of 78</p>","null","pattern_show_trial_num","","","","","","","","","","","","","","","","","","","","","","","","",""
"","","","","","image-keyboard-response","78","201178","0.0-2.0-5.0-1.28","6435f2188202776934eacb5d","B2","batch2","","1197.0999999940395","stim/no_18_1_b.png","f","pattern_response","false","j","pattern_05","1197.0999999940395","false","20","","","","","","","","","","","","","","","","","","",""
"","","","","","html-keyboard-response","79","202495","0.0-2.0-5.0-0.29","6435f2188202776934eacb5d","B2","batch2","","null","<p class=block-text>Trial 30 out of 78</p>","null","pattern_show_trial_num","","","","","","","","","","","","","","","","","","","","","","","","",""
"","","","","","image-keyboard-response","80","203622","0.0-2.0-5.0-1.29","6435f2188202776934eacb5d","B2","batch2","","1124.5","stim/yes_23_ver_b1.png","f","pattern_response","true","f","pattern_48","1124.5","true","21","","","","","","","","","","","","","","","","","","",""
"","","","","","html-keyboard-response","81","204930","0.0-2.0-5.0-0.30","6435f2188202776934eacb5d","B2","batch2","","null","<p class=block-text>Trial 31 out of 78</p>","null","pattern_show_trial_num","","","","","","","","","","","","","","","","","","","","","","","","",""
"","","","","","image-keyboard-response","82","208293","0.0-2.0-5.0-1.30","6435f2188202776934eacb5d","B2","batch2","","3360.8999999910593","stim/no_53_1_b.png","f","pattern_response","false","j","pattern_33","3360.8999999910593","false","21","","","","","","","","","","","","","","","","","","",""
"","","","","","html-keyboard-response","83","209617","0.0-2.0-5.0-0.31","6435f2188202776934eacb5d","B2","batch2","","null","<p class=block-text>Trial 32 out of 78</p>","null","pattern_show_trial_num","","","","","","","","","","","","","","","","","","","","","","","","",""
"","","","","","image-keyboard-response","84","210711","0.0-2.0-5.0-1.31","6435f2188202776934eacb5d","B2","batch2","","1092","stim/no_28_2.png","f","pattern_response","false","j","pattern_11","1092","false","21","","","","","","","","","","","","","","","","","","",""
"","","","","","html-keyboard-response","85","212024","0.0-2.0-5.0-0.32","6435f2188202776934eacb5d","B2","batch2","","null","<p class=block-text>Trial 33 out of 78</p>","null","pattern_show_trial_num","","","","","","","","","","","","","","","","","","","","","","","","",""
"","","","","","image-keyboard-response","86","213791","0.0-2.0-5.0-1.32","6435f2188202776934eacb5d","B2","batch2","","1766.2000000029802","stim/no_39_1_w.png","f","pattern_response","false","j","pattern_21","1766.2000000029802","false","21","","","","","","","","","","","","","","","","","","",""
"","","","","","html-keyboard-response","87","215109","0.0-2.0-5.0-0.33","6435f2188202776934eacb5d","B2","batch2","","null","<p class=block-text>Trial 34 out of 78</p>","null","pattern_show_trial_num","","","","","","","","","","","","","","","","","","","","","","","","",""
"","","","","","image-keyboard-response","88","216737","0.0-2.0-5.0-1.33","6435f2188202776934eacb5d","B2","batch2","","1626.1000000089407","stim/no_12_1.png","j","pattern_response","true","j","pattern_01","1626.1000000089407","true","22","","","","","","","","","","","","","","","","","","",""
"","","","","","html-keyboard-response","89","218059","0.0-2.0-5.0-0.34","6435f2188202776934eacb5d","B2","batch2","","null","<p class=block-text>Trial 35 out of 78</p>","null","pattern_show_trial_num","","","","","","","","","","","","","","","","","","","","","","","","",""
"","","","","","image-keyboard-response","90","218930","0.0-2.0-5.0-1.34","6435f2188202776934eacb5d","B2","batch2","","869.0999999940395","stim/yes_36_ver_w1_w.png","f","pattern_response","true","f","pattern_58","869.0999999940395","true","23","","","","","","","","","","","","","","","","","","",""
"","","","","","html-keyboard-response","91","220247","0.0-2.0-5.0-0.35","6435f2188202776934eacb5d","B2","batch2","","null","<p class=block-text>Trial 36 out of 78</p>","null","pattern_show_trial_num","","","","","","","","","","","","","","","","","","","","","","","","",""
"","","","","","image-keyboard-response","92","221241","0.0-2.0-5.0-1.35","6435f2188202776934eacb5d","B2","batch2","","992.5999999940395","stim/yes_42_dia_w1_w.png","f","pattern_response","true","f","pattern_64","992.5999999940395","true","24","","","","","","","","","","","","","","","","","","",""
"","","","","","html-keyboard-response","93","222552","0.0-2.0-5.0-0.36","6435f2188202776934eacb5d","B2","batch2","","null","<p class=block-text>Trial 37 out of 78</p>","null","pattern_show_trial_num","","","","","","","","","","","","","","","","","","","","","","","","",""
"","","","","","image-keyboard-response","94","226095","0.0-2.0-5.0-1.36","6435f2188202776934eacb5d","B2","batch2","","3541.7999999970198","stim/no_37_2_w.png","f","pattern_response","false","j","pattern_19","3541.7999999970198","false","24","","","","","","","","","","","","","","","","","","",""
"","","","","","html-keyboard-response","95","227405","0.0-2.0-5.0-0.37","6435f2188202776934eacb5d","B2","batch2","","null","<p class=block-text>Trial 38 out of 78</p>","null","pattern_show_trial_num","","","","","","","","","","","","","","","","","","","","","","","","",""
"","","","","","image-keyboard-response","96","228670","0.0-2.0-5.0-1.37","6435f2188202776934eacb5d","B2","batch2","","1262","stim/no_49_2_b.png","f","pattern_response","false","j","pattern_29","1262","false","24","","","","","","","","","","","","","","","","","","",""
"","","","","","html-keyboard-response","97","229991","0.0-2.0-5.0-0.38","6435f2188202776934eacb5d","B2","batch2","","null","<p class=block-text>Trial 39 out of 78</p>","null","pattern_show_trial_num","","","","","","","","","","","","","","","","","","","","","","","","",""
"","","","","","image-keyboard-response","98","231106","0.0-2.0-5.0-1.38","6435f2188202776934eacb5d","B2","batch2","","1113.2999999970198","stim/yes_53_ver_b1_b.png","f","pattern_response","true","f","pattern_74","1113.2999999970198","true","25","","","","","","","","","","","","","","","","","","",""
"","","","","","image-keyboard-response","99","237512","0.0-2.0-6.0","6435f2188202776934eacb5d","B2","batch2","","5902.20000000298","stim/empty_board.png","j","attention_check","true","j","","","","","500","[""f"",""j""]","","","","","","","","","","","","","","","","",""
"","","","","","html-keyboard-response","100","238322","0.0-2.0-7.0-0.0","6435f2188202776934eacb5d","B2","batch2","","null","<p class=block-text>Trial 40 out of 78</p>","null","pattern_show_trial_num","","","","","","","","","","","","","","","","","","","","","","","","",""
"","","","","","image-keyboard-response","101","239895","0.0-2.0-7.0-1.0","6435f2188202776934eacb5d","B2","batch2","","1571","stim/yes_17_dia_w1.png","f","pattern_response","true","f","pattern_45","1571","true","26","","","","","","","","","","","","","","","","","","",""
"","","","","","html-keyboard-response","102","241210","0.0-2.0-7.0-0.1","6435f2188202776934eacb5d","B2","batch2","","null","<p class=block-text>Trial 41 out of 78</p>","null","pattern_show_trial_num","","","","","","","","","","","","","","","","","","","","","","","","",""
"","","","","","image-keyboard-response","103","243109","0.0-2.0-7.0-1.1","6435f2188202776934eacb5d","B2","batch2","","1898.300000011921","stim/no_62_1_w.png","f","pattern_response","false","j","pattern_36","1898.300000011921","false","26","","","","","","","","","","","","","","","","","","",""
"","","","","","html-keyboard-response","104","244417","0.0-2.0-7.0-0.2","6435f2188202776934eacb5d","B2","batch2","","null","<p class=block-text>Trial 42 out of 78</p>","null","pattern_show_trial_num","","","","","","","","","","","","","","","","","","","","","","","","",""
"","","","","","image-keyboard-response","105","251524","0.0-2.0-7.0-1.2","6435f2188202776934eacb5d","B2","batch2","","7104.79999999702","stim/yes_40_dia_b1_b.png","f","pattern_response","true","f","pattern_63","7104.79999999702","true","27","","","","","","","","","","","","","","","","","","",""
"","","","","","html-keyboard-response","106","252844","0.0-2.0-7.0-0.3","6435f2188202776934eacb5d","B2","batch2","","null","<p class=block-text>Trial 43 out of 78</p>","null","pattern_show_trial_num","","","","","","","","","","","","","","","","","","","","","","","","",""
"","","","","","image-keyboard-response","107","254749","0.0-2.0-7.0-1.3","6435f2188202776934eacb5d","B2","batch2","","1902.2999999970198","stim/yes_28_ver_b1.png","f","pattern_response","true","f","pattern_51","1902.2999999970198","true","28","","","","","","","","","","","","","","","","","","",""
"","","","","","html-keyboard-response","108","256065","0.0-2.0-7.0-0.4","6435f2188202776934eacb5d","B2","batch2","","null","<p class=block-text>Trial 44 out of 78</p>","null","pattern_show_trial_num","","","","","","","","","","","","","","","","","","","","","","","","",""
"","","","","","image-keyboard-response","109","262229","0.0-2.0-7.0-1.4","6435f2188202776934eacb5d","B2","batch2","","6162.0999999940395","stim/no_26_1_w.png","j","pattern_response","true","j","pattern_10","6162.0999999940395","true","29","","","","","","","","","","","","","","","","","","",""
"","","","","","html-keyboard-response","110","263539","0.0-2.0-7.0-0.5","6435f2188202776934eacb5d","B2","batch2","","null","<p class=block-text>Trial 45 out of 78</p>","null","pattern_show_trial_num","","","","","","","","","","","","","","","","","","","","","","","","",""
"","","","","","image-keyboard-response","111","265125","0.0-2.0-7.0-1.5","6435f2188202776934eacb5d","B2","batch2","","1584","stim/yes_55_hor_w1_w.png","f","pattern_response","true","f","pattern_75","1584","true","30","","","","","","","","","","","","","","","","","","",""
"","","","","","html-keyboard-response","112","266441","0.0-2.0-7.0-0.6","6435f2188202776934eacb5d","B2","batch2","","null","<p class=block-text>Trial 46 out of 78</p>","null","pattern_show_trial_num","","","","","","","","","","","","","","","","","","","","","","","","",""
"","","","","","image-keyboard-response","113","267881","0.0-2.0-7.0-1.6","6435f2188202776934eacb5d","B2","batch2","","1438.0999999940395","stim/yes_14_hor_b1_w.png","f","pattern_response","true","f","pattern_43","1438.0999999940395","true","31","","","","","","","","","","","","","","","","","","",""
"","","","","","html-keyboard-response","114","269186","0.0-2.0-7.0-0.7","6435f2188202776934eacb5d","B2","batch2","","null","<p class=block-text>Trial 47 out of 78</p>","null","pattern_show_trial_num","","","","","","","","","","","","","","","","","","","","","","","","",""
"","","","","","image-keyboard-response","115","270494","0.0-2.0-7.0-1.7","6435f2188202776934eacb5d","B2","batch2","","1305.300000011921","stim/yes_50_dia_w1.png","f","pattern_response","true","f","pattern_71","1305.300000011921","true","32","","","","","","","","","","","","","","","","","","",""
"","","","","","html-keyboard-response","116","271809","0.0-2.0-7.0-0.8","6435f2188202776934eacb5d","B2","batch2","","null","<p class=block-text>Trial 48 out of 78</p>","null","pattern_show_trial_num","","","","","","","","","","","","","","","","","","","","","","","","",""
"","","","","","image-keyboard-response","117","274054","0.0-2.0-7.0-1.8","6435f2188202776934eacb5d","B2","batch2","","2243.4000000059605","stim/yes_38_hor_b1_b.png","f","pattern_response","true","f","pattern_61","2243.4000000059605","true","33","","","","","","","","","","","","","","","","","","",""
"","","","","","html-keyboard-response","118","275366","0.0-2.0-7.0-0.9","6435f2188202776934eacb5d","B2","batch2","","null","<p class=block-text>Trial 49 out of 78</p>","null","pattern_show_trial_num","","","","","","","","","","","","","","","","","","","","","","","","",""
"","","","","","image-keyboard-response","119","276699","0.0-2.0-7.0-1.9","6435f2188202776934eacb5d","B2","batch2","","1331.1000000089407","stim/yes_25_hor_b1_b.png","f","pattern_response","true","f","pattern_49","1331.1000000089407","true","34","","","","","","","","","","","","","","","","","","",""
"","","","","","html-keyboard-response","120","278024","0.0-2.0-7.0-0.10","6435f2188202776934eacb5d","B2","batch2","","null","<p class=block-text>Trial 50 out of 78</p>","null","pattern_show_trial_num","","","","","","","","","","","","","","","","","","","","","","","","",""
"","","","","","image-keyboard-response","121","281741","0.0-2.0-7.0-1.10","6435f2188202776934eacb5d","B2","batch2","","3714.8999999910593","stim/no_23_1.png","j","pattern_response","true","j","pattern_08","3714.8999999910593","true","35","","","","","","","","","","","","","","","","","","",""
"","","","","","html-keyboard-response","122","283047","0.0-2.0-7.0-0.11","6435f2188202776934eacb5d","B2","batch2","","null","<p class=block-text>Trial 51 out of 78</p>","null","pattern_show_trial_num","","","","","","","","","","","","","","","","","","","","","","","","",""
"","","","","","image-keyboard-response","123","289952","0.0-2.0-7.0-1.11","6435f2188202776934eacb5d","B2","batch2","","6902.0999999940395","stim/no_48_1_w.png","f","pattern_response","false","j","pattern_28","6902.0999999940395","false","35","","","","","","","","","","","","","","","","","","",""
"","","","","","html-keyboard-response","124","291272","0.0-2.0-7.0-0.12","6435f2188202776934eacb5d","B2","batch2","","null","<p class=block-text>Trial 52 out of 78</p>","null","pattern_show_trial_num","","","","","","","","","","","","","","","","","","","","","","","","",""
"","","","","","image-keyboard-response","125","294296","0.0-2.0-7.0-1.12","6435f2188202776934eacb5d","B2","batch2","","3022.0999999940395","stim/no_13_2_b.png","j","pattern_response","true","j","pattern_02","3022.0999999940395","true","36","","","","","","","","","","","","","","","","","","",""
"","","","","","html-keyboard-response","126","295612","0.0-2.0-7.0-0.13","6435f2188202776934eacb5d","B2","batch2","","null","<p class=block-text>Trial 53 out of 78</p>","null","pattern_show_trial_num","","","","","","","","","","","","","","","","","","","","","","","","",""
"","","","","","image-keyboard-response","127","298941","0.0-2.0-7.0-1.13","6435f2188202776934eacb5d","B2","batch2","","3327.5999999940395","stim/no_50_1.png","f","pattern_response","false","j","pattern_30","3327.5999999940395","false","36","","","","","","","","","","","","","","","","","","",""
"","","","","","html-keyboard-response","128","300257","0.0-2.0-7.0-0.14","6435f2188202776934eacb5d","B2","batch2","","null","<p class=block-text>Trial 54 out of 78</p>","null","pattern_show_trial_num","","","","","","","","","","","","","","","","","","","","","","","","",""
"","","","","","image-keyboard-response","129","304267","0.0-2.0-7.0-1.14","6435f2188202776934eacb5d","B2","batch2","","4008.1000000089407","stim/no_32_1_w.png","f","pattern_response","false","j","pattern_14","4008.1000000089407","false","36","","","","","","","","","","","","","","","","","","",""
"","","","","","html-keyboard-response","130","305579","0.0-2.0-7.0-0.15","6435f2188202776934eacb5d","B2","batch2","","null","<p class=block-text>Trial 55 out of 78</p>","null","pattern_show_trial_num","","","","","","","","","","","","","","","","","","","","","","","","",""
"","","","","","image-keyboard-response","131","312105","0.0-2.0-7.0-1.15","6435f2188202776934eacb5d","B2","batch2","","6524.20000000298","stim/yes_67_hor_b1.png","f","pattern_response","true","f","pattern_79","6524.20000000298","true","37","","","","","","","","","","","","","","","","","","",""
"","","","","","html-keyboard-response","132","313415","0.0-2.0-7.0-0.16","6435f2188202776934eacb5d","B2","batch2","","null","<p class=block-text>Trial 56 out of 78</p>","null","pattern_show_trial_num","","","","","","","","","","","","","","","","","","","","","","","","",""
"","","","","","image-keyboard-response","133","317534","0.0-2.0-7.0-1.16","6435f2188202776934eacb5d","B2","batch2","","4116.9000000059605","stim/no_17_1_w.png","j","pattern_response","true","j","pattern_04","4116.9000000059605","true","38","","","","","","","","","","","","","","","","","","",""
"","","","","","html-keyboard-response","134","318842","0.0-2.0-7.0-0.17","6435f2188202776934eacb5d","B2","batch2","","null","<p class=block-text>Trial 57 out of 78</p>","null","pattern_show_trial_num","","","","","","","","","","","","","","","","","","","","","","","","",""
"","","","","","image-keyboard-response","135","320494","0.0-2.0-7.0-1.17","6435f2188202776934eacb5d","B2","batch2","","1650","stim/yes_48_dia_w1_w.png","f","pattern_response","true","f","pattern_69","1650","true","39","","","","","","","","","","","","","","","","","","",""
"","","","","","html-keyboard-response","136","321805","0.0-2.0-7.0-0.18","6435f2188202776934eacb5d","B2","batch2","","null","<p class=block-text>Trial 58 out of 78</p>","null","pattern_show_trial_num","","","","","","","","","","","","","","","","","","","","","","","","",""
"","","","","","image-keyboard-response","137","323362","0.0-2.0-7.0-1.18","6435f2188202776934eacb5d","B2","batch2","","1555","stim/yes_43_ver_w1_w.png","f","pattern_response","true","f","pattern_65","1555","true","40","","","","","","","","","","","","","","","","","","",""
"","","","","","html-keyboard-response","138","324671","0.0-2.0-7.0-0.19","6435f2188202776934eacb5d","B2","batch2","","null","<p class=block-text>Trial 59 out of 78</p>","null","pattern_show_trial_num","","","","","","","","","","","","","","","","","","","","","","","","",""
"","","","","","image-keyboard-response","139","326221","0.0-2.0-7.0-1.19","6435f2188202776934eacb5d","B2","batch2","","1548","stim/no_38_1_b.png","f","pattern_response","false","j","pattern_20","1548","false","40","","","","","","","","","","","","","","","","","","",""
"","","","","","html-keyboard-response","140","327532","0.0-2.0-7.0-0.20","6435f2188202776934eacb5d","B2","batch2","","null","<p class=block-text>Trial 60 out of 78</p>","null","pattern_show_trial_num","","","","","","","","","","","","","","","","","","","","","","","","",""
"","","","","","image-keyboard-response","141","331424","0.0-2.0-7.0-1.20","6435f2188202776934eacb5d","B2","batch2","","3890.800000011921","stim/no_29_1_b.png","j","pattern_response","true","j","pattern_12","3890.800000011921","true","41","","","","","","","","","","","","","","","","","","",""
"","","","","","html-keyboard-response","142","332743","0.0-2.0-7.0-0.21","6435f2188202776934eacb5d","B2","batch2","","null","<p class=block-text>Trial 61 out of 78</p>","null","pattern_show_trial_num","","","","","","","","","","","","","","","","","","","","","","","","",""
"","","","","","image-keyboard-response","143","335651","0.0-2.0-7.0-1.21","6435f2188202776934eacb5d","B2","batch2","","2906.1000000089407","stim/yes_35_dia_b1.png","f","pattern_response","true","f","pattern_57","2906.1000000089407","true","42","","","","","","","","","","","","","","","","","","",""
"","","","","","html-keyboard-response","144","336963","0.0-2.0-7.0-0.22","6435f2188202776934eacb5d","B2","batch2","","null","<p class=block-text>Trial 62 out of 78</p>","null","pattern_show_trial_num","","","","","","","","","","","","","","","","","","","","","","","","",""
"","","","","","image-keyboard-response","145","344711","0.0-2.0-7.0-1.22","6435f2188202776934eacb5d","B2","batch2","","7746","stim/no_36_2_w.png","f","pattern_response","false","j","pattern_18","7746","false","42","","","","","","","","","","","","","","","","","","",""
"","","","","","html-keyboard-response","146","346022","0.0-2.0-7.0-0.23","6435f2188202776934eacb5d","B2","batch2","","null","<p class=block-text>Trial 63 out of 78</p>","null","pattern_show_trial_num","","","","","","","","","","","","","","","","","","","","","","","","",""
"","","","","","image-keyboard-response","147","347709","0.0-2.0-7.0-1.23","6435f2188202776934eacb5d","B2","batch2","","1684.5999999940395","stim/yes_60_ver_b1_b.png","f","pattern_response","true","f","pattern_77","1684.5999999940395","true","43","","","","","","","","","","","","","","","","","","",""
"","","","","","html-keyboard-response","148","349024","0.0-2.0-7.0-0.24","6435f2188202776934eacb5d","B2","batch2","","null","<p class=block-text>Trial 64 out of 78</p>","null","pattern_show_trial_num","","","","","","","","","","","","","","","","","","","","","","","","",""
"","","","","","image-keyboard-response","149","351626","0.0-2.0-7.0-1.24","6435f2188202776934eacb5d","B2","batch2","","2600.300000011921","stim/no_20_1_w.png","j","pattern_response","true","j","pattern_06","2600.300000011921","true","44","","","","","","","","","","","","","","","","","","",""
"","","","","","html-keyboard-response","150","352930","0.0-2.0-7.0-0.25","6435f2188202776934eacb5d","B2","batch2","","null","<p class=block-text>Trial 65 out of 78</p>","null","pattern_show_trial_num","","","","","","","","","","","","","","","","","","","","","","","","",""
"","","","","","image-keyboard-response","151","354978","0.0-2.0-7.0-1.25","6435f2188202776934eacb5d","B2","batch2","","2045.7999999970198","stim/no_70_2.png","f","pattern_response","false","j","pattern_40","2045.7999999970198","false","44","","","","","","","","","","","","","","","","","","",""
"","","","","","html-keyboard-response","152","356291","0.0-2.0-7.0-0.26","6435f2188202776934eacb5d","B2","batch2","","null","<p class=block-text>Trial 66 out of 78</p>","null","pattern_show_trial_num","","","","","","","","","","","","","","","","","","","","","","","","",""
"","","","","","image-keyboard-response","153","357998","0.0-2.0-7.0-1.26","6435f2188202776934eacb5d","B2","batch2","","1704.5","stim/yes_22_ver_w1.png","f","pattern_response","true","f","pattern_47","1704.5","true","45","","","","","","","","","","","","","","","","","","",""
"","","","","","html-keyboard-response","154","359307","0.0-2.0-7.0-0.27","6435f2188202776934eacb5d","B2","batch2","","null","<p class=block-text>Trial 67 out of 78</p>","null","pattern_show_trial_num","","","","","","","","","","","","","","","","","","","","","","","","",""
"","","","","","image-keyboard-response","155","362071","0.0-2.0-7.0-1.27","6435f2188202776934eacb5d","B2","batch2","","2761.5999999940395","stim/no_65_1_b.png","f","pattern_response","false","j","pattern_38","2761.5999999940395","false","45","","","","","","","","","","","","","","","","","","",""
"","","","","","html-keyboard-response","156","363378","0.0-2.0-7.0-0.28","6435f2188202776934eacb5d","B2","batch2","","null","<p class=block-text>Trial 68 out of 78</p>","null","pattern_show_trial_num","","","","","","","","","","","","","","","","","","","","","","","","",""
"","","","","","image-keyboard-response","157","365840","0.0-2.0-7.0-1.28","6435f2188202776934eacb5d","B2","batch2","","2459.7000000029802","stim/no_34_1_b.png","f","pattern_response","false","j","pattern_16","2459.7000000029802","false","45","","","","","","","","","","","","","","","","","","",""
"","","","","","html-keyboard-response","158","367153","0.0-2.0-7.0-0.29","6435f2188202776934eacb5d","B2","batch2","","null","<p class=block-text>Trial 69 out of 78</p>","null","pattern_show_trial_num","","","","","","","","","","","","","","","","","","","","","","","","",""
"","","","","","image-keyboard-response","159","368261","0.0-2.0-7.0-1.29","6435f2188202776934eacb5d","B2","batch2","","1107","stim/yes_29_ver_w1.png","f","pattern_response","true","f","pattern_53","1107","true","46","","","","","","","","","","","","","","","","","","",""
"","","","","","html-keyboard-response","160","369585","0.0-2.0-7.0-0.30","6435f2188202776934eacb5d","B2","batch2","","null","<p class=block-text>Trial 70 out of 78</p>","null","pattern_show_trial_num","","","","","","","","","","","","","","","","","","","","","","","","",""
"","","","","","image-keyboard-response","161","371418","0.0-2.0-7.0-1.30","6435f2188202776934eacb5d","B2","batch2","","1831.5999999940395","stim/yes_37_dia_w1.png","f","pattern_response","true","f","pattern_59","1831.5999999940395","true","47","","","","","","","","","","","","","","","","","","",""
"","","","","","html-keyboard-response","162","372725","0.0-2.0-7.0-0.31","6435f2188202776934eacb5d","B2","batch2","","null","<p class=block-text>Trial 71 out of 78</p>","null","pattern_show_trial_num","","","","","","","","","","","","","","","","","","","","","","","","",""
"","","","","","image-keyboard-response","163","376900","0.0-2.0-7.0-1.31","6435f2188202776934eacb5d","B2","batch2","","4173.29999999702","stim/yes_45_hor_b2_b.png","f","pattern_response","true","f","pattern_67","4173.29999999702","true","48","","","","","","","","","","","","","","","","","","",""
"","","","","","html-keyboard-response","164","378217","0.0-2.0-7.0-0.32","6435f2188202776934eacb5d","B2","batch2","","null","<p class=block-text>Trial 72 out of 78</p>","null","pattern_show_trial_num","","","","","","","","","","","","","","","","","","","","","","","","",""
"","","","","","image-keyboard-response","165","379331","0.0-2.0-7.0-1.32","6435f2188202776934eacb5d","B2","batch2","","1111.4000000059605","stim/no_46_1_b.png","f","pattern_response","false","j","pattern_26","1111.4000000059605","false","48","","","","","","","","","","","","","","","","","","",""
"","","","","","html-keyboard-response","166","380652","0.0-2.0-7.0-0.33","6435f2188202776934eacb5d","B2","batch2","","null","<p class=block-text>Trial 73 out of 78</p>","null","pattern_show_trial_num","","","","","","","","","","","","","","","","","","","","","","","","",""
"","","","","","image-keyboard-response","167","381953","0.0-2.0-7.0-1.33","6435f2188202776934eacb5d","B2","batch2","","1299.5","stim/no_44_1.png","f","pattern_response","false","j","pattern_24","1299.5","false","48","","","","","","","","","","","","","","","","","","",""
"","","","","","html-keyboard-response","168","383273","0.0-2.0-7.0-0.34","6435f2188202776934eacb5d","B2","batch2","","null","<p class=block-text>Trial 74 out of 78</p>","null","pattern_show_trial_num","","","","","","","","","","","","","","","","","","","","","","","","",""
"","","","","","image-keyboard-response","169","384671","0.0-2.0-7.0-1.34","6435f2188202776934eacb5d","B2","batch2","","1395.9000000059605","stim/no_42_1_w.png","f","pattern_response","false","j","pattern_22","1395.9000000059605","false","48","","","","","","","","","","","","","","","","","","",""
"","","","","","html-keyboard-response","170","385990","0.0-2.0-7.0-0.35","6435f2188202776934eacb5d","B2","batch2","","null","<p class=block-text>Trial 75 out of 78</p>","null","pattern_show_trial_num","","","","","","","","","","","","","","","","","","","","","","","","",""
"","","","","","image-keyboard-response","171","387479","0.0-2.0-7.0-1.35","6435f2188202776934eacb5d","B2","batch2","","1487.0999999940395","stim/yes_52_ver_w1.png","f","pattern_response","true","f","pattern_73","1487.0999999940395","true","49","","","","","","","","","","","","","","","","","","",""
"","","","","","html-keyboard-response","172","388785","0.0-2.0-7.0-0.36","6435f2188202776934eacb5d","B2","batch2","","null","<p class=block-text>Trial 76 out of 78</p>","null","pattern_show_trial_num","","","","","","","","","","","","","","","","","","","","","","","","",""
"","","","","","image-keyboard-response","173","394925","0.0-2.0-7.0-1.36","6435f2188202776934eacb5d","B2","batch2","","6138.70000000298","stim/no_55_1_w.png","f","pattern_response","false","j","pattern_34","6138.70000000298","false","49","","","","","","","","","","","","","","","","","","",""
"","","","","","html-keyboard-response","174","396249","0.0-2.0-7.0-0.37","6435f2188202776934eacb5d","B2","batch2","","null","<p class=block-text>Trial 77 out of 78</p>","null","pattern_show_trial_num","","","","","","","","","","","","","","","","","","","","","","","","",""
"","","","","","image-keyboard-response","175","398870","0.0-2.0-7.0-1.37","6435f2188202776934eacb5d","B2","batch2","","2618.5","stim/yes_31_hor_b1.png","f","pattern_response","true","f","pattern_55","2618.5","true","50","","","","","","","","","","","","","","","","","","",""
"","","","","","html-keyboard-response","176","400184","0.0-2.0-7.0-0.38","6435f2188202776934eacb5d","B2","batch2","","null","<p class=block-text>Trial 78 out of 78</p>","null","pattern_show_trial_num","","","","","","","","","","","","","","","","","","","","","","","","",""
"","","","","","image-keyboard-response","177","406000","0.0-2.0-7.0-1.38","6435f2188202776934eacb5d","B2","batch2","","5813.300000011921","stim/no_52_1.png","f","pattern_response","false","j","pattern_32","5813.300000011921","false","50","","","","","","","","","","","","","","","","","","",""
"","","","","","html-button-response","178","419573","0.0-2.0-8.0","6435f2188202776934eacb5d","B2","batch2","","13063.59999999404","<p class = block-text>This concludes the 4-in-a-row detection game.Thank you for your responses!<br>
            You responded correctly on 64% of the trials.<br>
            When you are ready, press ""Continue"" button to continue </p>","0","","","","","","","","","","","","","","","","","","","","","","","","","",""
"true","","","","","fullscreen","179","422766","0.0-3.0-0.0","6435f2188202776934eacb5d","B2","batch2","","","","","","","","","","","","","","","","","","","","","","","","","","","","","",""
"","","","","","instructions","180","522813","0.0-3.0-1.0-0.0-0.0","6435f2188202776934eacb5d","B2","batch2","[{""page_index"":0,""viewing_time"":22745.29999999702},{""page_index"":1,""viewing_time"":9067.10000000894},{""page_index"":2,""viewing_time"":13964.89999999106},{""page_index"":3,""viewing_time"":16912.20000000298},{""page_index"":4,""viewing_time"":15568.90000000596},{""page_index"":5,""viewing_time"":18208.89999999106},{""page_index"":6,""viewing_time"":3579.300000011921}]","100046.90000000596","","","tol-instructions","","","","","","","","","","","","","","","","","","","","","","","","",""
"","","","","","html-button-response","181","524214","0.0-3.0-1.0-1.0-0.0","6435f2188202776934eacb5d","B2","batch2","","1400","<p class=block-text> Let's answer a few questions <br>","0","tol_enter_quiz","","","","","","","","","","","","","","","","","","","","","","","","",""
"","","","","","html-button-response","182","530210","0.0-3.0-1.0-1.0-1.0","6435f2188202776934eacb5d","B2","batch2","","5995.5999999940395","<p class = block-text>True or False: You can only move the ball on top of a peg. <br></p>","0","tol_quiz","true","","","","","","","","","","","","","","","","","","","","","","","",""
"","","","","","html-button-response","183","532536","0.0-3.0-1.0-1.0-2.0","6435f2188202776934eacb5d","B2","batch2","","2323.7999999970198","<p class = block-text>Correct! You can only move the ball on top of a peg.</p>","0","tol_quiz_feedback","","","","","","","","","","","","","","","","","","","","","","","","",""
"","","","","","html-button-response","184","536442","0.0-3.0-1.0-1.0-3.0","6435f2188202776934eacb5d","B2","batch2","","3905.4000000059605","<p class = block-text>True or False: You should try to match your board with the target board with fewest moves possible. <br></p>","0","tol_quiz","true","","","","","","","","","","","","","","","","","","","","","","","",""
"","","","","","html-button-response","185","537599","0.0-3.0-1.0-1.0-4.0","6435f2188202776934eacb5d","B2","batch2","","1156.2000000029802","<p class = block-text>Correct! </p>","0","tol_quiz_feedback","","","","","","","","","","","","","","","","","","","","","","","","",""
"","","","","","html-button-response","186","539504","0.0-3.0-2.0","6435f2188202776934eacb5d","B2","batch2","","1903.2999999970198","<p class=block-text> Now that you've understood the game, let's practice a few easier examples before we start!<br> <br>","0","","","","","","","","","","","","","","","","","","","","","","","","","",""
"","","","","","single-stim-button","187","545592","0.0-3.0-3.0-0.0","6435f2188202776934eacb5d","B2","batch2","","6086","","","tol_practice","","","","","","","","","tol_peg_2","6086","6086","0","[[1,2,0],[0,0],[0]]","1","[[1,2,0],[0,0],[3]]","practice","6086","","","","","","","",""
"","","","","","single-stim-button","188","547546","0.0-3.0-3.0-1.0","6435f2188202776934eacb5d","B2","batch2","","1953","","","tol_practice","","","","","","","","","tol_peg_3","1953","1953","0","[[1,2,0],[0,0],[3]]","1","[[1,2,0],[0,0],[3]]","practice","1953","","","","","","","",""
"","","","","","poldrack-single-stim","189","548550","0.0-3.0-4.0","6435f2188202776934eacb5d","B2","batch2","","-1","","","tol_feedback","true","","","","","","","","","1000","1000","500","","","","","","-1","none","true","","0","","",""
"","","","","","single-stim-button","190","557668","0.0-3.0-5.0-0.0","6435f2188202776934eacb5d","B2","batch2","","9117","","","tol_practice","","","","","","","","","tol_peg_1","9117","9117","0","[[1,0,0],[3,0],[0]]","2","[[0,0,0],[3,1],[2]]","practice","9117","","","","","","","",""
"","","","","","single-stim-button","191","560340","0.0-3.0-5.0-1.0","6435f2188202776934eacb5d","B2","batch2","","2671","","","tol_practice","","","","","","","","","tol_peg_3","2671","2671","0","[[1,0,0],[3,0],[2]]","2","[[0,0,0],[3,1],[2]]","practice","2671","","","","","","","",""
"","","","","","single-stim-button","192","561860","0.0-3.0-5.1-0.1","6435f2188202776934eacb5d","B2","batch2","","1519","","","tol_practice","","","","","","","","","tol_peg_1","1519","1519","0","[[0,0,0],[3,0],[2]]","3","[[0,0,0],[3,1],[2]]","practice","1519","","","","","","","",""
"","","","","","single-stim-button","193","562899","0.0-3.0-5.1-1.1","6435f2188202776934eacb5d","B2","batch2","","1038","","","tol_practice","","","","","","","","","tol_peg_2","1038","1038","0","[[0,0,0],[3,1],[2]]","3","[[0,0,0],[3,1],[2]]","practice","1038","","","","","","","",""
"","","","","","poldrack-single-stim","194","563901","0.0-3.0-6.0","6435f2188202776934eacb5d","B2","batch2","","-1","","","tol_feedback","true","","","","","","","","","1000","1000","500","","","","","","-1","none","true","","0","","",""
"","","","","","single-stim-button","195","567432","0.0-3.0-7.0-0.0","6435f2188202776934eacb5d","B2","batch2","","3530","","","tol_practice","","","","","","","","","tol_peg_2","3530","3530","0","[[1,2,0],[0,0],[0]]","4","[[1,0,0],[2,0],[3]]","practice","3530","","","","","","","",""
"","","","","","single-stim-button","196","568840","0.0-3.0-7.0-1.0","6435f2188202776934eacb5d","B2","batch2","","1407","","","tol_practice","","","","","","","","","tol_peg_3","1407","1407","0","[[1,2,0],[0,0],[3]]","4","[[1,0,0],[2,0],[3]]","practice","1407","","","","","","","",""
"","","","","","single-stim-button","197","570128","0.0-3.0-7.1-0.1","6435f2188202776934eacb5d","B2","batch2","","1287","","","tol_practice","","","","","","","","","tol_peg_1","1287","1287","0","[[1,0,0],[0,0],[3]]","5","[[1,0,0],[2,0],[3]]","practice","1287","","","","","","","",""
"","","","","","single-stim-button","198","571102","0.0-3.0-7.1-1.1","6435f2188202776934eacb5d","B2","batch2","","973","","","tol_practice","","","","","","","","","tol_peg_2","973","973","0","[[1,0,0],[2,0],[3]]","5","[[1,0,0],[2,0],[3]]","practice","973","","","","","","","",""
"","","","","","poldrack-single-stim","199","572104","0.0-3.0-8.0","6435f2188202776934eacb5d","B2","batch2","","-1","","","tol_feedback","true","","","","","","","","","1000","1000","500","","","","","","-1","none","true","","0","","",""
"","","","","","html-button-response","200","576224","0.0-3.0-9.0","6435f2188202776934eacb5d","B2","batch2","","4119","<div class = centerbox><p class = center-block-text>Great job! You are done with practice trials<br>You are about to start official trials.<br> <br> Problem <strong>1</strong> out of 25 problems</p></div>","0","tol_instruction","","","","","","","","","","","","","","","","","","","","","","","","",""
"","","","","","single-stim-button","201","584256","0.0-3.0-10.0-0.0","6435f2188202776934eacb5d","B2","batch2","","7029","","","tol_tohand","","","","","","","","","tol_peg_1","7029","7029","0","[[1,0,0],[3,0],[0]]","1","[[1,3,0],[2,0],[0]]","0","0","","","","","","3","",""
"","","","","","single-stim-button","202","585629","0.0-3.0-10.0-1.0","6435f2188202776934eacb5d","B2","batch2","","1372","","","tol_toboard","","","","","","","","","tol_peg_3","1372","1372","0","[[1,0,0],[3,0],[2]]","1","[[1,3,0],[2,0],[0]]","0","0","","","","","","3","",""
"","","","","","single-stim-button","203","587055","0.0-3.0-10.1-0.1","6435f2188202776934eacb5d","B2","batch2","","1425","","","tol_tohand","","","","","","","","","tol_peg_2","1425","1425","0","[[1,0,0],[0,0],[2]]","2","[[1,3,0],[2,0],[0]]","0","0","","","","","","3","",""
"","","","","","single-stim-button","204","588308","0.0-3.0-10.1-1.1","6435f2188202776934eacb5d","B2","batch2","","1252","","","tol_toboard","","","","","","","","","tol_peg_1","1252","1252","0","[[1,3,0],[0,0],[2]]","2","[[1,3,0],[2,0],[0]]","0","0","","","","","","3","",""
"","","","","","single-stim-button","205","589500","0.0-3.0-10.2-0.2","6435f2188202776934eacb5d","B2","batch2","","1191","","","tol_tohand","","","","","","","","","tol_peg_3","1191","1191","0","[[1,3,0],[0,0],[0]]","3","[[1,3,0],[2,0],[0]]","0","0","","","","","","3","",""
"","","","","","single-stim-button","206","590383","0.0-3.0-10.2-1.2","6435f2188202776934eacb5d","B2","batch2","","881","","","tol_toboard","","","","","","","","","tol_peg_2","881","881","0","[[1,3,0],[2,0],[0]]","3","[[1,3,0],[2,0],[0]]","0","0","","","","","","3","",""
"","","","","","poldrack-single-stim","207","591385","0.0-3.0-11.0","6435f2188202776934eacb5d","B2","batch2","","-1","","","tol_feedback","true","","","","","","","","","1000","1000","500","","","","","","-1","none","true","7029","9645","","",""
"","","","","","html-button-response","208","593137","0.0-3.0-12.0","6435f2188202776934eacb5d","B2","batch2","","1750.4000000059605","<div class = centerbox><p class = center-block-text>problem <strong>2</strong> out of 25 problems</p></div>","0","tol_trial_num","","","","","","","","","","","","","","","","","","","","","","","","",""
"","","","","","single-stim-button","209","604741","0.0-3.0-13.0-0.0","6435f2188202776934eacb5d","B2","batch2","","11603","","","tol_tohand","","","","","","","","","tol_peg_1","11603","11603","0","[[1,0,0],[3,0],[0]]","1","[[2,1,3],[0,0],[0]]","1","0","","","","","","5","",""
"","","","","","single-stim-button","210","606050","0.0-3.0-13.0-1.0","6435f2188202776934eacb5d","B2","batch2","","1307","","","tol_toboard","","","","","","","","","tol_peg_3","1307","1307","0","[[1,0,0],[3,0],[2]]","1","[[2,1,3],[0,0],[0]]","1","0","","","","","","5","",""
"","","","","","single-stim-button","211","620722","0.0-3.0-13.1-0.1","6435f2188202776934eacb5d","B2","batch2","","14671","","","tol_tohand","","","","","","","","","tol_peg_3","14671","14671","0","[[1,0,0],[3,0],[0]]","2","[[2,1,3],[0,0],[0]]","1","0","","","","","","5","",""
"","","","","","single-stim-button","212","622076","0.0-3.0-13.1-1.1","6435f2188202776934eacb5d","B2","batch2","","1353","","","tol_toboard","","","","","","","","","tol_peg_1","1353","1353","0","[[1,2,0],[3,0],[0]]","2","[[2,1,3],[0,0],[0]]","1","0","","","","","","5","",""
"","","","","","single-stim-button","213","623048","0.0-3.0-13.2-0.2","6435f2188202776934eacb5d","B2","batch2","","971","","","tol_tohand","","","","","","","","","tol_peg_2","971","971","0","[[1,2,0],[0,0],[0]]","3","[[2,1,3],[0,0],[0]]","1","0","","","","","","5","",""
"","","","","","single-stim-button","214","624610","0.0-3.0-13.2-1.2","6435f2188202776934eacb5d","B2","batch2","","1561","","","tol_toboard","","","","","","","","","tol_peg_1","1561","1561","0","[[1,2,3],[0,0],[0]]","3","[[2,1,3],[0,0],[0]]","1","0","","","","","","5","",""
"","","","","","single-stim-button","215","626654","0.0-3.0-13.3-0.3","6435f2188202776934eacb5d","B2","batch2","","2042","","","tol_tohand","","","","","","","","","tol_peg_1","2042","2042","0","[[1,2,0],[0,0],[0]]","4","[[2,1,3],[0,0],[0]]","1","0","","","","","","5","",""
"","","","","","single-stim-button","216","636396","0.0-3.0-13.3-1.3","6435f2188202776934eacb5d","B2","batch2","","9740","","","tol_toboard","","","","","","","","","tol_peg_1","9740","9740","0","[[1,2,3],[0,0],[0]]","4","[[2,1,3],[0,0],[0]]","1","0","","","","","","5","",""
"","","","","","single-stim-button","217","637734","0.0-3.0-13.4-0.4","6435f2188202776934eacb5d","B2","batch2","","1337","","","tol_tohand","","","","","","","","","tol_peg_1","1337","1337","0","[[1,2,0],[0,0],[0]]","5","[[2,1,3],[0,0],[0]]","1","0","","","","","","5","",""
"","","","","","single-stim-button","218","639702","0.0-3.0-13.4-1.4","6435f2188202776934eacb5d","B2","batch2","","1967","","","tol_toboard","","","","","","","","","tol_peg_3","1967","1967","0","[[1,2,0],[0,0],[3]]","5","[[2,1,3],[0,0],[0]]","1","0","","","","","","5","",""
"","","","","","single-stim-button","219","646556","0.0-3.0-13.5-0.5","6435f2188202776934eacb5d","B2","batch2","","6853","","","tol_tohand","","","","","","","","","tol_peg_3","6853","6853","0","[[1,2,0],[0,0],[0]]","6","[[2,1,3],[0,0],[0]]","1","0","","","","","","5","",""
"","","","","","single-stim-button","220","647636","0.0-3.0-13.5-1.5","6435f2188202776934eacb5d","B2","batch2","","1079","","","tol_toboard","","","","","","","","","tol_peg_2","1079","1079","0","[[1,2,0],[3,0],[0]]","6","[[2,1,3],[0,0],[0]]","1","0","","","","","","5","",""
"","","","","","single-stim-button","221","648763","0.0-3.0-13.6-0.6","6435f2188202776934eacb5d","B2","batch2","","1126","","","tol_tohand","","","","","","","","","tol_peg_1","1126","1126","0","[[1,0,0],[3,0],[0]]","7","[[2,1,3],[0,0],[0]]","1","0","","","","","","5","",""
"","","","","","single-stim-button","222","650072","0.0-3.0-13.6-1.6","6435f2188202776934eacb5d","B2","batch2","","1307","","","tol_toboard","","","","","","","","","tol_peg_3","1307","1307","0","[[1,0,0],[3,0],[2]]","7","[[2,1,3],[0,0],[0]]","1","0","","","","","","5","",""
"","","","","","single-stim-button","223","651071","0.0-3.0-13.7-0.7","6435f2188202776934eacb5d","B2","batch2","","997","","","tol_tohand","","","","","","","","","tol_peg_1","997","997","0","[[0,0,0],[3,0],[2]]","8","[[2,1,3],[0,0],[0]]","1","0","","","","","","5","",""
"","","","","","single-stim-button","224","652135","0.0-3.0-13.7-1.7","6435f2188202776934eacb5d","B2","batch2","","1062","","","tol_toboard","","","","","","","","","tol_peg_2","1062","1062","0","[[0,0,0],[3,1],[2]]","8","[[2,1,3],[0,0],[0]]","1","0","","","","","","5","",""
"","","","","","single-stim-button","225","653096","0.0-3.0-13.8-0.8","6435f2188202776934eacb5d","B2","batch2","","959","","","tol_tohand","","","","","","","","","tol_peg_3","959","959","0","[[0,0,0],[3,1],[0]]","9","[[2,1,3],[0,0],[0]]","1","0","","","","","","5","",""
"","","","","","single-stim-button","226","654314","0.0-3.0-13.8-1.8","6435f2188202776934eacb5d","B2","batch2","","1216","","","tol_toboard","","","","","","","","","tol_peg_1","1216","1216","0","[[2,0,0],[3,1],[0]]","9","[[2,1,3],[0,0],[0]]","1","0","","","","","","5","",""
"","","","","","single-stim-button","227","655170","0.0-3.0-13.9-0.9","6435f2188202776934eacb5d","B2","batch2","","854","","","tol_tohand","","","","","","","","","tol_peg_2","854","854","0","[[2,0,0],[3,0],[0]]","10","[[2,1,3],[0,0],[0]]","1","0","","","","","","5","",""
"","","","","","single-stim-button","228","656160","0.0-3.0-13.9-1.9","6435f2188202776934eacb5d","B2","batch2","","989","","","tol_toboard","","","","","","","","","tol_peg_1","989","989","0","[[2,1,0],[3,0],[0]]","10","[[2,1,3],[0,0],[0]]","1","0","","","","","","5","",""
"","","","","","single-stim-button","229","657159","0.0-3.0-13.10-0.10","6435f2188202776934eacb5d","B2","batch2","","998","","","tol_tohand","","","","","","","","","tol_peg_2","998","998","0","[[2,1,0],[0,0],[0]]","11","[[2,1,3],[0,0],[0]]","1","0","","","","","","5","",""
"","","","","","single-stim-button","230","658278","0.0-3.0-13.10-1.10","6435f2188202776934eacb5d","B2","batch2","","1118","","","tol_toboard","","","","","","","","","tol_peg_1","1118","1118","0","[[2,1,3],[0,0],[0]]","11","[[2,1,3],[0,0],[0]]","1","0","","","","","","5","",""
"","","","","","poldrack-single-stim","231","659279","0.0-3.0-14.0","6435f2188202776934eacb5d","B2","batch2","","-1","","","tol_feedback","true","","","","","","","","","1000","1000","500","","","","","","-1","none","true","11603","42411","","",""
"","","","","","html-button-response","232","660962","0.0-3.0-15.0","6435f2188202776934eacb5d","B2","batch2","","1681.4000000059605","<div class = centerbox><p class = center-block-text>problem <strong>3</strong> out of 25 problems</p></div>","0","tol_trial_num","","","","","","","","","","","","","","","","","","","","","","","","",""
"","","","","","single-stim-button","233","667960","0.0-3.0-16.0-0.0","6435f2188202776934eacb5d","B2","batch2","","6997","","","tol_tohand","","","","","","","","","tol_peg_1","6997","6997","0","[[2,0,0],[0,0],[1]]","1","[[1,2,0],[3,0],[0]]","2","0","","","","","","4","",""
"","","","","","single-stim-button","234","669102","0.0-3.0-16.0-1.0","6435f2188202776934eacb5d","B2","batch2","","1140","","","tol_toboard","","","","","","","","","tol_peg_2","1140","1140","0","[[2,0,0],[3,0],[1]]","1","[[1,2,0],[3,0],[0]]","2","0","","","","","","4","",""
"","","","","","single-stim-button","235","673967","0.0-3.0-16.1-0.1","6435f2188202776934eacb5d","B2","batch2","","4863","","","tol_tohand","","","","","","","","","tol_peg_1","4863","4863","0","[[0,0,0],[3,0],[1]]","2","[[1,2,0],[3,0],[0]]","2","0","","","","","","4","",""
"","","","","","single-stim-button","236","676053","0.0-3.0-16.1-1.1","6435f2188202776934eacb5d","B2","batch2","","2084","","","tol_toboard","","","","","","","","","tol_peg_2","2084","2084","0","[[0,0,0],[3,2],[1]]","2","[[1,2,0],[3,0],[0]]","2","0","","","","","","4","",""
"","","","","","single-stim-button","237","676814","0.0-3.0-16.2-0.2","6435f2188202776934eacb5d","B2","batch2","","761","","","tol_tohand","","","","","","","","","tol_peg_3","761","761","0","[[0,0,0],[3,2],[0]]","3","[[1,2,0],[3,0],[0]]","2","0","","","","","","4","",""
"","","","","","single-stim-button","238","677564","0.0-3.0-16.2-1.2","6435f2188202776934eacb5d","B2","batch2","","750","","","tol_toboard","","","","","","","","","tol_peg_1","750","750","0","[[1,0,0],[3,2],[0]]","3","[[1,2,0],[3,0],[0]]","2","0","","","","","","4","",""
"","","","","","single-stim-button","239","678616","0.0-3.0-16.3-0.3","6435f2188202776934eacb5d","B2","batch2","","1051","","","tol_tohand","","","","","","","","","tol_peg_2","1051","1051","0","[[1,0,0],[3,0],[0]]","4","[[1,2,0],[3,0],[0]]","2","0","","","","","","4","",""
"","","","","","single-stim-button","240","680047","0.0-3.0-16.3-1.3","6435f2188202776934eacb5d","B2","batch2","","1430","","","tol_toboard","","","","","","","","","tol_peg_1","1430","1430","0","[[1,2,0],[3,0],[0]]","4","[[1,2,0],[3,0],[0]]","2","0","","","","","","4","",""
"","","","","","poldrack-single-stim","241","681050","0.0-3.0-17.0","6435f2188202776934eacb5d","B2","batch2","","-1","","","tol_feedback","true","","","","","","","","","1000","1000","500","","","","","","-1","none","true","6997","13672","","",""
"","","","","","html-button-response","242","682245","0.0-3.0-18.0","6435f2188202776934eacb5d","B2","batch2","","1193.5","<div class = centerbox><p class = center-block-text>problem <strong>4</strong> out of 25 problems</p></div>","0","tol_trial_num","","","","","","","","","","","","","","","","","","","","","","","","",""
"","","","","","single-stim-button","243","688136","0.0-3.0-19.0-0.0","6435f2188202776934eacb5d","B2","batch2","","5890","","","tol_tohand","","","","","","","","","tol_peg_2","5890","5890","0","[[3,0,0],[2,0],[0]]","1","[[3,0,0],[1,0],[2]]","3","0","","","","","","3","",""
"","","","","","single-stim-button","244","689194","0.0-3.0-19.0-1.0","6435f2188202776934eacb5d","B2","batch2","","1056","","","tol_toboard","","","","","","","","","tol_peg_1","1056","1056","0","[[3,1,0],[2,0],[0]]","1","[[3,0,0],[1,0],[2]]","3","0","","","","","","3","",""
"","","","","","single-stim-button","245","690246","0.0-3.0-19.1-0.1","6435f2188202776934eacb5d","B2","batch2","","1052","","","tol_tohand","","","","","","","","","tol_peg_2","1052","1052","0","[[3,1,0],[0,0],[0]]","2","[[3,0,0],[1,0],[2]]","3","0","","","","","","3","",""
"","","","","","single-stim-button","246","691593","0.0-3.0-19.1-1.1","6435f2188202776934eacb5d","B2","batch2","","1345","","","tol_toboard","","","","","","","","","tol_peg_3","1345","1345","0","[[3,1,0],[0,0],[2]]","2","[[3,0,0],[1,0],[2]]","3","0","","","","","","3","",""
"","","","","","single-stim-button","247","692637","0.0-3.0-19.2-0.2","6435f2188202776934eacb5d","B2","batch2","","1043","","","tol_tohand","","","","","","","","","tol_peg_1","1043","1043","0","[[3,0,0],[0,0],[2]]","3","[[3,0,0],[1,0],[2]]","3","0","","","","","","3","",""
"","","","","","single-stim-button","248","693766","0.0-3.0-19.2-1.2","6435f2188202776934eacb5d","B2","batch2","","1128","","","tol_toboard","","","","","","","","","tol_peg_2","1128","1128","0","[[3,0,0],[1,0],[2]]","3","[[3,0,0],[1,0],[2]]","3","0","","","","","","3","",""
"","","","","","poldrack-single-stim","249","694769","0.0-3.0-20.0","6435f2188202776934eacb5d","B2","batch2","","-1","","","tol_feedback","true","","","","","","","","","1000","1000","500","","","","","","-1","none","true","5890","7985","","",""
"","","","","","html-button-response","250","696334","0.0-3.0-21.0","6435f2188202776934eacb5d","B2","batch2","","1563.7999999970198","<div class = centerbox><p class = center-block-text>problem <strong>5</strong> out of 25 problems</p></div>","0","tol_trial_num","","","","","","","","","","","","","","","","","","","","","","","","",""
"","","","","","single-stim-button","251","704873","0.0-3.0-22.0-0.0","6435f2188202776934eacb5d","B2","batch2","","8537","","","tol_tohand","","","","","","","","","tol_peg_3","8537","8537","0","[[1,0,0],[2,0],[0]]","1","[[0,0,0],[1,2],[3]]","4","0","","","","","","7","",""
"","","","","","single-stim-button","252","706181","0.0-3.0-22.0-1.0","6435f2188202776934eacb5d","B2","batch2","","1306","","","tol_toboard","","","","","","","","","tol_peg_1","1306","1306","0","[[1,3,0],[2,0],[0]]","1","[[0,0,0],[1,2],[3]]","4","0","","","","","","7","",""
"","","","","","single-stim-button","253","707098","0.0-3.0-22.1-0.1","6435f2188202776934eacb5d","B2","batch2","","916","","","tol_tohand","","","","","","","","","tol_peg_2","916","916","0","[[1,3,0],[0,0],[0]]","2","[[0,0,0],[1,2],[3]]","4","0","","","","","","7","",""
"","","","","","single-stim-button","254","708663","0.0-3.0-22.1-1.1","6435f2188202776934eacb5d","B2","batch2","","1563","","","tol_toboard","","","","","","","","","tol_peg_3","1563","1563","0","[[1,3,0],[0,0],[2]]","2","[[0,0,0],[1,2],[3]]","4","0","","","","","","7","",""
"","","","","","single-stim-button","255","712377","0.0-3.0-22.2-0.2","6435f2188202776934eacb5d","B2","batch2","","3713","","","tol_tohand","","","","","","","","","tol_peg_1","3713","3713","0","[[1,0,0],[0,0],[2]]","3","[[0,0,0],[1,2],[3]]","4","0","","","","","","7","",""
"","","","","","single-stim-button","256","713406","0.0-3.0-22.2-1.2","6435f2188202776934eacb5d","B2","batch2","","1028","","","tol_toboard","","","","","","","","","tol_peg_2","1028","1028","0","[[1,0,0],[3,0],[2]]","3","[[0,0,0],[1,2],[3]]","4","0","","","","","","7","",""
"","","","","","single-stim-button","257","721274","0.0-3.0-22.3-0.3","6435f2188202776934eacb5d","B2","batch2","","7867","","","tol_tohand","","","","","","","","","tol_peg_3","7867","7867","0","[[1,0,0],[3,0],[0]]","4","[[0,0,0],[1,2],[3]]","4","0","","","","","","7","",""
"","","","","","single-stim-button","258","722363","0.0-3.0-22.3-1.3","6435f2188202776934eacb5d","B2","batch2","","1088","","","tol_toboard","","","","","","","","","tol_peg_2","1088","1088","0","[[1,0,0],[3,2],[0]]","4","[[0,0,0],[1,2],[3]]","4","0","","","","","","7","",""
"","","","","","single-stim-button","259","723149","0.0-3.0-22.4-0.4","6435f2188202776934eacb5d","B2","batch2","","785","","","tol_tohand","","","","","","","","","tol_peg_1","785","785","0","[[0,0,0],[3,2],[0]]","5","[[0,0,0],[1,2],[3]]","4","0","","","","","","7","",""
"","","","","","single-stim-button","260","724204","0.0-3.0-22.4-1.4","6435f2188202776934eacb5d","B2","batch2","","1054","","","tol_toboard","","","","","","","","","tol_peg_3","1054","1054","0","[[0,0,0],[3,2],[1]]","5","[[0,0,0],[1,2],[3]]","4","0","","","","","","7","",""
"","","","","","single-stim-button","261","725488","0.0-3.0-22.5-0.5","6435f2188202776934eacb5d","B2","batch2","","1283","","","tol_tohand","","","","","","","","","tol_peg_2","1283","1283","0","[[0,0,0],[3,0],[1]]","6","[[0,0,0],[1,2],[3]]","4","0","","","","","","7","",""
"","","","","","single-stim-button","262","726929","0.0-3.0-22.5-1.5","6435f2188202776934eacb5d","B2","batch2","","1440","","","tol_toboard","","","","","","","","","tol_peg_1","1440","1440","0","[[2,0,0],[3,0],[1]]","6","[[0,0,0],[1,2],[3]]","4","0","","","","","","7","",""
"","","","","","single-stim-button","263","728960","0.0-3.0-22.6-0.6","6435f2188202776934eacb5d","B2","batch2","","2030","","","tol_tohand","","","","","","","","","tol_peg_2","2030","2030","0","[[2,0,0],[0,0],[1]]","7","[[0,0,0],[1,2],[3]]","4","0","","","","","","7","",""
"","","","","","single-stim-button","264","730142","0.0-3.0-22.6-1.6","6435f2188202776934eacb5d","B2","batch2","","1181","","","tol_toboard","","","","","","","","","tol_peg_1","1181","1181","0","[[2,3,0],[0,0],[1]]","7","[[0,0,0],[1,2],[3]]","4","0","","","","","","7","",""
"","","","","","single-stim-button","265","731562","0.0-3.0-22.7-0.7","6435f2188202776934eacb5d","B2","batch2","","1418","","","tol_tohand","","","","","","","","","tol_peg_3","1418","1418","0","[[2,3,0],[0,0],[0]]","8","[[0,0,0],[1,2],[3]]","4","0","","","","","","7","",""
"","","","","","single-stim-button","266","732576","0.0-3.0-22.7-1.7","6435f2188202776934eacb5d","B2","batch2","","1014","","","tol_toboard","","","","","","","","","tol_peg_2","1014","1014","0","[[2,3,0],[1,0],[0]]","8","[[0,0,0],[1,2],[3]]","4","0","","","","","","7","",""
"","","","","","single-stim-button","267","733902","0.0-3.0-22.8-0.8","6435f2188202776934eacb5d","B2","batch2","","1324","","","tol_tohand","","","","","","","","","tol_peg_1","1324","1324","0","[[2,0,0],[1,0],[0]]","9","[[0,0,0],[1,2],[3]]","4","0","","","","","","7","",""
"","","","","","single-stim-button","268","734906","0.0-3.0-22.8-1.8","6435f2188202776934eacb5d","B2","batch2","","1003","","","tol_toboard","","","","","","","","","tol_peg_3","1003","1003","0","[[2,0,0],[1,0],[3]]","9","[[0,0,0],[1,2],[3]]","4","0","","","","","","7","",""
"","","","","","single-stim-button","269","735824","0.0-3.0-22.9-0.9","6435f2188202776934eacb5d","B2","batch2","","916","","","tol_tohand","","","","","","","","","tol_peg_1","916","916","0","[[0,0,0],[1,0],[3]]","10","[[0,0,0],[1,2],[3]]","4","0","","","","","","7","",""
"","","","","","single-stim-button","270","737100","0.0-3.0-22.9-1.9","6435f2188202776934eacb5d","B2","batch2","","1275","","","tol_toboard","","","","","","","","","tol_peg_2","1275","1275","0","[[0,0,0],[1,2],[3]]","10","[[0,0,0],[1,2],[3]]","4","0","","","","","","7","",""
"","","","","","poldrack-single-stim","271","738103","0.0-3.0-23.0","6435f2188202776934eacb5d","B2","batch2","","-1","","","tol_feedback","true","","","","","","","","","1000","1000","500","","","","","","-1","none","true","8537","28789","","",""
"","","","","","html-button-response","272","739507","0.0-3.0-24.0","6435f2188202776934eacb5d","B2","batch2","","1403.199999988079","<div class = centerbox><p class = center-block-text>problem <strong>6</strong> out of 25 problems</p></div>","0","tol_trial_num","","","","","","","","","","","","","","","","","","","","","","","","",""
"","","","","","single-stim-button","273","748499","0.0-3.0-25.0-0.0","6435f2188202776934eacb5d","B2","batch2","","8990","","","tol_tohand","","","","","","","","","tol_peg_2","8990","8990","0","[[0,0,0],[1,0],[3]]","1","[[1,0,0],[2,3],[0]]","5","0","","","","","","6","",""
"","","","","","single-stim-button","274","749922","0.0-3.0-25.0-1.0","6435f2188202776934eacb5d","B2","batch2","","1422","","","tol_toboard","","","","","","","","","tol_peg_1","1422","1422","0","[[2,0,0],[1,0],[3]]","1","[[1,0,0],[2,3],[0]]","5","0","","","","","","6","",""
"","","","","","single-stim-button","275","751002","0.0-3.0-25.1-0.1","6435f2188202776934eacb5d","B2","batch2","","1079","","","tol_tohand","","","","","","","","","tol_peg_3","1079","1079","0","[[2,0,0],[1,0],[0]]","2","[[1,0,0],[2,3],[0]]","5","0","","","","","","6","",""
"","","","","","single-stim-button","276","751984","0.0-3.0-25.1-1.1","6435f2188202776934eacb5d","B2","batch2","","981","","","tol_toboard","","","","","","","","","tol_peg_1","981","981","0","[[2,3,0],[1,0],[0]]","2","[[1,0,0],[2,3],[0]]","5","0","","","","","","6","",""
"","","","","","single-stim-button","277","753343","0.0-3.0-25.2-0.2","6435f2188202776934eacb5d","B2","batch2","","1357","","","tol_tohand","","","","","","","","","tol_peg_2","1357","1357","0","[[2,3,0],[0,0],[0]]","3","[[1,0,0],[2,3],[0]]","5","0","","","","","","6","",""
"","","","","","single-stim-button","278","754380","0.0-3.0-25.2-1.2","6435f2188202776934eacb5d","B2","batch2","","1037","","","tol_toboard","","","","","","","","","tol_peg_3","1037","1037","0","[[2,3,0],[0,0],[1]]","3","[[1,0,0],[2,3],[0]]","5","0","","","","","","6","",""
"","","","","","single-stim-button","279","757577","0.0-3.0-25.3-0.3","6435f2188202776934eacb5d","B2","batch2","","3195","","","tol_tohand","","","","","","","","","tol_peg_1","3195","3195","0","[[2,0,0],[0,0],[1]]","4","[[1,0,0],[2,3],[0]]","5","0","","","","","","6","",""
"","","","","","single-stim-button","280","761412","0.0-3.0-25.3-1.3","6435f2188202776934eacb5d","B2","batch2","","3834","","","tol_toboard","","","","","","","","","tol_peg_2","3834","3834","0","[[2,0,0],[3,0],[1]]","4","[[1,0,0],[2,3],[0]]","5","0","","","","","","6","",""
"","","","","","single-stim-button","281","762246","0.0-3.0-25.4-0.4","6435f2188202776934eacb5d","B2","batch2","","833","","","tol_tohand","","","","","","","","","tol_peg_1","833","833","0","[[0,0,0],[3,0],[1]]","5","[[1,0,0],[2,3],[0]]","5","0","","","","","","6","",""
"","","","","","single-stim-button","282","763132","0.0-3.0-25.4-1.4","6435f2188202776934eacb5d","B2","batch2","","885","","","tol_toboard","","","","","","","","","tol_peg_2","885","885","0","[[0,0,0],[3,2],[1]]","5","[[1,0,0],[2,3],[0]]","5","0","","","","","","6","",""
"","","","","","single-stim-button","283","764204","0.0-3.0-25.5-0.5","6435f2188202776934eacb5d","B2","batch2","","1071","","","tol_tohand","","","","","","","","","tol_peg_3","1071","1071","0","[[0,0,0],[3,2],[0]]","6","[[1,0,0],[2,3],[0]]","5","0","","","","","","6","",""
"","","","","","single-stim-button","284","765264","0.0-3.0-25.5-1.5","6435f2188202776934eacb5d","B2","batch2","","1059","","","tol_toboard","","","","","","","","","tol_peg_1","1059","1059","0","[[1,0,0],[3,2],[0]]","6","[[1,0,0],[2,3],[0]]","5","0","","","","","","6","",""
"","","","","","single-stim-button","285","766535","0.0-3.0-25.6-0.6","6435f2188202776934eacb5d","B2","batch2","","1270","","","tol_tohand","","","","","","","","","tol_peg_2","1270","1270","0","[[1,0,0],[3,0],[0]]","7","[[1,0,0],[2,3],[0]]","5","0","","","","","","6","",""
"","","","","","single-stim-button","286","768630","0.0-3.0-25.6-1.6","6435f2188202776934eacb5d","B2","batch2","","2094","","","tol_toboard","","","","","","","","","tol_peg_3","2094","2094","0","[[1,0,0],[3,0],[2]]","7","[[1,0,0],[2,3],[0]]","5","0","","","","","","6","",""
"","","","","","single-stim-button","287","769391","0.0-3.0-25.7-0.7","6435f2188202776934eacb5d","B2","batch2","","760","","","tol_tohand","","","","","","","","","tol_peg_2","760","760","0","[[1,0,0],[0,0],[2]]","8","[[1,0,0],[2,3],[0]]","5","0","","","","","","6","",""
"","","","","","single-stim-button","288","770764","0.0-3.0-25.7-1.7","6435f2188202776934eacb5d","B2","batch2","","1372","","","tol_toboard","","","","","","","","","tol_peg_1","1372","1372","0","[[1,3,0],[0,0],[2]]","8","[[1,0,0],[2,3],[0]]","5","0","","","","","","6","",""
"","","","","","single-stim-button","289","772540","0.0-3.0-25.8-0.8","6435f2188202776934eacb5d","B2","batch2","","1775","","","tol_tohand","","","","","","","","","tol_peg_3","1775","1775","0","[[1,3,0],[0,0],[0]]","9","[[1,0,0],[2,3],[0]]","5","0","","","","","","6","",""
"","","","","","single-stim-button","290","773274","0.0-3.0-25.8-1.8","6435f2188202776934eacb5d","B2","batch2","","733","","","tol_toboard","","","","","","","","","tol_peg_2","733","733","0","[[1,3,0],[2,0],[0]]","9","[[1,0,0],[2,3],[0]]","5","0","","","","","","6","",""
"","","","","","single-stim-button","291","774222","0.0-3.0-25.9-0.9","6435f2188202776934eacb5d","B2","batch2","","947","","","tol_tohand","","","","","","","","","tol_peg_1","947","947","0","[[1,0,0],[2,0],[0]]","10","[[1,0,0],[2,3],[0]]","5","0","","","","","","6","",""
"","","","","","single-stim-button","292","775378","0.0-3.0-25.9-1.9","6435f2188202776934eacb5d","B2","batch2","","1155","","","tol_toboard","","","","","","","","","tol_peg_2","1155","1155","0","[[1,0,0],[2,3],[0]]","10","[[1,0,0],[2,3],[0]]","5","0","","","","","","6","",""
"","","","","","poldrack-single-stim","293","776381","0.0-3.0-26.0","6435f2188202776934eacb5d","B2","batch2","","-1","","","tol_feedback","true","","","","","","","","","1000","1000","500","","","","","","-1","none","true","8990","21277","","",""
"","","","","","html-button-response","294","777646","0.0-3.0-27.0","6435f2188202776934eacb5d","B2","batch2","","1264.2999999970198","<div class = centerbox><p class = center-block-text>problem <strong>7</strong> out of 25 problems</p></div>","0","tol_trial_num","","","","","","","","","","","","","","","","","","","","","","","","",""
"","","","","","single-stim-button","295","787338","0.0-3.0-28.0-0.0","6435f2188202776934eacb5d","B2","batch2","","9691","","","tol_tohand","","","","","","","","","tol_peg_1","9691","9691","0","[[2,0,0],[0,0],[3]]","1","[[1,2,0],[3,0],[0]]","6","0","","","","","","5","",""
"","","","","","single-stim-button","296","789962","0.0-3.0-28.0-1.0","6435f2188202776934eacb5d","B2","batch2","","2623","","","tol_toboard","","","","","","","","","tol_peg_2","2623","2623","0","[[2,0,0],[1,0],[3]]","1","[[1,2,0],[3,0],[0]]","6","0","","","","","","5","",""
"","","","","","single-stim-button","297","792074","0.0-3.0-28.1-0.1","6435f2188202776934eacb5d","B2","batch2","","2111","","","tol_tohand","","","","","","","","","tol_peg_1","2111","2111","0","[[0,0,0],[1,0],[3]]","2","[[1,2,0],[3,0],[0]]","6","0","","","","","","5","",""
"","","","","","single-stim-button","298","793400","0.0-3.0-28.1-1.1","6435f2188202776934eacb5d","B2","batch2","","1325","","","tol_toboard","","","","","","","","","tol_peg_2","1325","1325","0","[[0,0,0],[1,2],[3]]","2","[[1,2,0],[3,0],[0]]","6","0","","","","","","5","",""
"","","","","","single-stim-button","299","794592","0.0-3.0-28.2-0.2","6435f2188202776934eacb5d","B2","batch2","","1191","","","tol_tohand","","","","","","","","","tol_peg_3","1191","1191","0","[[0,0,0],[1,2],[0]]","3","[[1,2,0],[3,0],[0]]","6","0","","","","","","5","",""
"","","","","","single-stim-button","300","796165","0.0-3.0-28.2-1.2","6435f2188202776934eacb5d","B2","batch2","","1571","","","tol_toboard","","","","","","","","","tol_peg_1","1571","1571","0","[[3,0,0],[1,2],[0]]","3","[[1,2,0],[3,0],[0]]","6","0","","","","","","5","",""
"","","","","","single-stim-button","301","798142","0.0-3.0-28.3-0.3","6435f2188202776934eacb5d","B2","batch2","","1976","","","tol_tohand","","","","","","","","","tol_peg_2","1976","1976","0","[[3,0,0],[1,0],[0]]","4","[[1,2,0],[3,0],[0]]","6","0","","","","","","5","",""
"","","","","","single-stim-button","302","800564","0.0-3.0-28.3-1.3","6435f2188202776934eacb5d","B2","batch2","","2421","","","tol_toboard","","","","","","","","","tol_peg_3","2421","2421","0","[[3,0,0],[1,0],[2]]","4","[[1,2,0],[3,0],[0]]","6","0","","","","","","5","",""
"","","","","","single-stim-button","303","804370","0.0-3.0-28.4-0.4","6435f2188202776934eacb5d","B2","batch2","","3805","","","tol_tohand","","","","","","","","","tol_peg_1","3805","3805","0","[[0,0,0],[1,0],[2]]","5","[[1,2,0],[3,0],[0]]","6","0","","","","","","5","",""
"","","","","","single-stim-button","304","806850","0.0-3.0-28.4-1.4","6435f2188202776934eacb5d","B2","batch2","","2479","","","tol_toboard","","","","","","","","","tol_peg_2","2479","2479","0","[[0,0,0],[1,3],[2]]","5","[[1,2,0],[3,0],[0]]","6","0","","","","","","5","",""
"","","","","","single-stim-button","305","808168","0.0-3.0-28.5-0.5","6435f2188202776934eacb5d","B2","batch2","","1317","","","tol_tohand","","","","","","","","","tol_peg_2","1317","1317","0","[[0,0,0],[1,0],[2]]","6","[[1,2,0],[3,0],[0]]","6","0","","","","","","5","",""
"","","","","","single-stim-button","306","814822","0.0-3.0-28.5-1.5","6435f2188202776934eacb5d","B2","batch2","","6653","","","tol_toboard","","","","","","","","","tol_peg_1","6653","6653","0","[[3,0,0],[1,0],[2]]","6","[[1,2,0],[3,0],[0]]","6","0","","","","","","5","",""
"","","","","","single-stim-button","307","815844","0.0-3.0-28.6-0.6","6435f2188202776934eacb5d","B2","batch2","","1021","","","tol_tohand","","","","","","","","","tol_peg_2","1021","1021","0","[[3,0,0],[0,0],[2]]","7","[[1,2,0],[3,0],[0]]","6","0","","","","","","5","",""
"","","","","","single-stim-button","308","816714","0.0-3.0-28.6-1.6","6435f2188202776934eacb5d","B2","batch2","","868","","","tol_toboard","","","","","","","","","tol_peg_1","868","868","0","[[3,1,0],[0,0],[2]]","7","[[1,2,0],[3,0],[0]]","6","0","","","","","","5","",""
"","","","","","single-stim-button","309","818250","0.0-3.0-28.7-0.7","6435f2188202776934eacb5d","B2","batch2","","1536","","","tol_tohand","","","","","","","","","tol_peg_3","1536","1536","0","[[3,1,0],[0,0],[0]]","8","[[1,2,0],[3,0],[0]]","6","0","","","","","","5","",""
"","","","","","single-stim-button","310","819309","0.0-3.0-28.7-1.7","6435f2188202776934eacb5d","B2","batch2","","1059","","","tol_toboard","","","","","","","","","tol_peg_2","1059","1059","0","[[3,1,0],[2,0],[0]]","8","[[1,2,0],[3,0],[0]]","6","0","","","","","","5","",""
"","","","","","single-stim-button","311","820544","0.0-3.0-28.8-0.8","6435f2188202776934eacb5d","B2","batch2","","1234","","","tol_tohand","","","","","","","","","tol_peg_1","1234","1234","0","[[3,0,0],[2,0],[0]]","9","[[1,2,0],[3,0],[0]]","6","0","","","","","","5","",""
"","","","","","single-stim-button","312","822074","0.0-3.0-28.8-1.8","6435f2188202776934eacb5d","B2","batch2","","1529","","","tol_toboard","","","","","","","","","tol_peg_3","1529","1529","0","[[3,0,0],[2,0],[1]]","9","[[1,2,0],[3,0],[0]]","6","0","","","","","","5","",""
"","","","","","single-stim-button","313","823239","0.0-3.0-28.9-0.9","6435f2188202776934eacb5d","B2","batch2","","1163","","","tol_tohand","","","","","","","","","tol_peg_1","1163","1163","0","[[0,0,0],[2,0],[1]]","10","[[1,2,0],[3,0],[0]]","6","0","","","","","","5","",""
"","","","","","single-stim-button","314","824410","0.0-3.0-28.9-1.9","6435f2188202776934eacb5d","B2","batch2","","1169","","","tol_toboard","","","","","","","","","tol_peg_2","1169","1169","0","[[0,0,0],[2,3],[1]]","10","[[1,2,0],[3,0],[0]]","6","0","","","","","","5","",""
"","","","","","single-stim-button","315","827116","0.0-3.0-28.10-0.10","6435f2188202776934eacb5d","B2","batch2","","2704","","","tol_tohand","","","","","","","","","tol_peg_3","2704","2704","0","[[0,0,0],[2,3],[0]]","11","[[1,2,0],[3,0],[0]]","6","0","","","","","","5","",""
"","","","","","single-stim-button","316","828624","0.0-3.0-28.10-1.10","6435f2188202776934eacb5d","B2","batch2","","1507","","","tol_toboard","","","","","","","","","tol_peg_1","1507","1507","0","[[1,0,0],[2,3],[0]]","11","[[1,2,0],[3,0],[0]]","6","0","","","","","","5","",""
"","","","","","single-stim-button","317","829588","0.0-3.0-28.11-0.11","6435f2188202776934eacb5d","B2","batch2","","962","","","tol_tohand","","","","","","","","","tol_peg_2","962","962","0","[[1,0,0],[2,0],[0]]","12","[[1,2,0],[3,0],[0]]","6","0","","","","","","5","",""
"","","","","","single-stim-button","318","830826","0.0-3.0-28.11-1.11","6435f2188202776934eacb5d","B2","batch2","","1236","","","tol_toboard","","","","","","","","","tol_peg_3","1236","1236","0","[[1,0,0],[2,0],[3]]","12","[[1,2,0],[3,0],[0]]","6","0","","","","","","5","",""
"","","","","","single-stim-button","319","834057","0.0-3.0-28.12-0.12","6435f2188202776934eacb5d","B2","batch2","","3230","","","tol_tohand","","","","","","","","","tol_peg_2","3230","3230","0","[[1,0,0],[0,0],[3]]","13","[[1,2,0],[3,0],[0]]","6","0","","","","","","5","",""
"","","","","","single-stim-button","320","835696","0.0-3.0-28.12-1.12","6435f2188202776934eacb5d","B2","batch2","","1638","","","tol_toboard","","","","","","","","","tol_peg_1","1638","1638","0","[[1,2,0],[0,0],[3]]","13","[[1,2,0],[3,0],[0]]","6","0","","","","","","5","",""
"","","","","","single-stim-button","321","837632","0.0-3.0-28.13-0.13","6435f2188202776934eacb5d","B2","batch2","","1935","","","tol_tohand","","","","","","","","","tol_peg_3","1935","1935","0","[[1,2,0],[0,0],[0]]","14","[[1,2,0],[3,0],[0]]","6","0","","","","","","5","",""
"","","","","","single-stim-button","322","838619","0.0-3.0-28.13-1.13","6435f2188202776934eacb5d","B2","batch2","","986","","","tol_toboard","","","","","","","","","tol_peg_2","986","986","0","[[1,2,0],[3,0],[0]]","14","[[1,2,0],[3,0],[0]]","6","0","","","","","","5","",""
"","","","","","poldrack-single-stim","323","839621","0.0-3.0-29.0","6435f2188202776934eacb5d","B2","batch2","","-1","","","tol_feedback","true","","","","","","","","","1000","1000","500","","","","","","-1","none","true","9691","33876","","",""
"","","","","","html-button-response","324","841488","0.0-3.0-30.0","6435f2188202776934eacb5d","B2","batch2","","1865.8999999910593","<div class = centerbox><p class = center-block-text>problem <strong>8</strong> out of 25 problems</p></div>","0","tol_trial_num","","","","","","","","","","","","","","","","","","","","","","","","",""
"","","","","","single-stim-button","325","848613","0.0-3.0-31.0-0.0","6435f2188202776934eacb5d","B2","batch2","","7124","","","tol_tohand","","","","","","","","","tol_peg_3","7124","7124","0","[[0,0,0],[2,3],[0]]","1","[[1,2,0],[3,0],[0]]","7","0","","","","","","4","",""
"","","","","","single-stim-button","326","850287","0.0-3.0-31.0-1.0","6435f2188202776934eacb5d","B2","batch2","","1672","","","tol_toboard","","","","","","","","","tol_peg_1","1672","1672","0","[[1,0,0],[2,3],[0]]","1","[[1,2,0],[3,0],[0]]","7","0","","","","","","4","",""
"","","","","","single-stim-button","327","851574","0.0-3.0-31.1-0.1","6435f2188202776934eacb5d","B2","batch2","","1286","","","tol_tohand","","","","","","","","","tol_peg_2","1286","1286","0","[[1,0,0],[2,0],[0]]","2","[[1,2,0],[3,0],[0]]","7","0","","","","","","4","",""
"","","","","","single-stim-button","328","852954","0.0-3.0-31.1-1.1","6435f2188202776934eacb5d","B2","batch2","","1379","","","tol_toboard","","","","","","","","","tol_peg_3","1379","1379","0","[[1,0,0],[2,0],[3]]","2","[[1,2,0],[3,0],[0]]","7","0","","","","","","4","",""
"","","","","","single-stim-button","329","854118","0.0-3.0-31.2-0.2","6435f2188202776934eacb5d","B2","batch2","","1163","","","tol_tohand","","","","","","","","","tol_peg_2","1163","1163","0","[[1,0,0],[0,0],[3]]","3","[[1,2,0],[3,0],[0]]","7","0","","","","","","4","",""
"","","","","","single-stim-button","330","855433","0.0-3.0-31.2-1.2","6435f2188202776934eacb5d","B2","batch2","","1314","","","tol_toboard","","","","","","","","","tol_peg_1","1314","1314","0","[[1,2,0],[0,0],[3]]","3","[[1,2,0],[3,0],[0]]","7","0","","","","","","4","",""
"","","","","","single-stim-button","331","856414","0.0-3.0-31.3-0.3","6435f2188202776934eacb5d","B2","batch2","","980","","","tol_tohand","","","","","","","","","tol_peg_3","980","980","0","[[1,2,0],[0,0],[0]]","4","[[1,2,0],[3,0],[0]]","7","0","","","","","","4","",""
"","","","","","single-stim-button","332","857816","0.0-3.0-31.3-1.3","6435f2188202776934eacb5d","B2","batch2","","1401","","","tol_toboard","","","","","","","","","tol_peg_2","1401","1401","0","[[1,2,0],[3,0],[0]]","4","[[1,2,0],[3,0],[0]]","7","0","","","","","","4","",""
"","","","","","poldrack-single-stim","333","858819","0.0-3.0-32.0","6435f2188202776934eacb5d","B2","batch2","","-1","","","tol_feedback","true","","","","","","","","","1000","1000","500","","","","","","-1","none","true","7124","10553","","",""
"","","","","","html-button-response","334","860400","0.0-3.0-33.0","6435f2188202776934eacb5d","B2","batch2","","1579.9000000059605","<div class = centerbox><p class = center-block-text>problem <strong>9</strong> out of 25 problems</p></div>","0","tol_trial_num","","","","","","","","","","","","","","","","","","","","","","","","",""
"","","","","","single-stim-button","335","874274","0.0-3.0-34.0-0.0","6435f2188202776934eacb5d","B2","batch2","","13873","","","tol_tohand","","","","","","","","","tol_peg_3","13873","13873","0","[[3,2,0],[0,0],[0]]","1","[[2,1,0],[3,0],[0]]","8","0","","","","","","6","",""
"","","","","","single-stim-button","336","875304","0.0-3.0-34.0-1.0","6435f2188202776934eacb5d","B2","batch2","","1028","","","tol_toboard","","","","","","","","","tol_peg_2","1028","1028","0","[[3,2,0],[1,0],[0]]","1","[[2,1,0],[3,0],[0]]","8","0","","","","","","6","",""
"","","","","","single-stim-button","337","876566","0.0-3.0-34.1-0.1","6435f2188202776934eacb5d","B2","batch2","","1261","","","tol_tohand","","","","","","","","","tol_peg_1","1261","1261","0","[[3,0,0],[1,0],[0]]","2","[[2,1,0],[3,0],[0]]","8","0","","","","","","6","",""
"","","","","","single-stim-button","338","878660","0.0-3.0-34.1-1.1","6435f2188202776934eacb5d","B2","batch2","","2092","","","tol_toboard","","","","","","","","","tol_peg_2","2092","2092","0","[[3,0,0],[1,2],[0]]","2","[[2,1,0],[3,0],[0]]","8","0","","","","","","6","",""
"","","","","","single-stim-button","339","879970","0.0-3.0-34.2-0.2","6435f2188202776934eacb5d","B2","batch2","","1309","","","tol_tohand","","","","","","","","","tol_peg_1","1309","1309","0","[[0,0,0],[1,2],[0]]","3","[[2,1,0],[3,0],[0]]","8","0","","","","","","6","",""
"","","","","","single-stim-button","340","881531","0.0-3.0-34.2-1.2","6435f2188202776934eacb5d","B2","batch2","","1560","","","tol_toboard","","","","","","","","","tol_peg_3","1560","1560","0","[[0,0,0],[1,2],[3]]","3","[[2,1,0],[3,0],[0]]","8","0","","","","","","6","",""
"","","","","","single-stim-button","341","882605","0.0-3.0-34.3-0.3","6435f2188202776934eacb5d","B2","batch2","","1073","","","tol_tohand","","","","","","","","","tol_peg_2","1073","1073","0","[[0,0,0],[1,0],[3]]","4","[[2,1,0],[3,0],[0]]","8","0","","","","","","6","",""
"","","","","","single-stim-button","342","883714","0.0-3.0-34.3-1.3","6435f2188202776934eacb5d","B2","batch2","","1107","","","tol_toboard","","","","","","","","","tol_peg_1","1107","1107","0","[[2,0,0],[1,0],[3]]","4","[[2,1,0],[3,0],[0]]","8","0","","","","","","6","",""
"","","","","","single-stim-button","343","884747","0.0-3.0-34.4-0.4","6435f2188202776934eacb5d","B2","batch2","","1031","","","tol_tohand","","","","","","","","","tol_peg_2","1031","1031","0","[[2,0,0],[0,0],[3]]","5","[[2,1,0],[3,0],[0]]","8","0","","","","","","6","",""
"","","","","","single-stim-button","344","885772","0.0-3.0-34.4-1.4","6435f2188202776934eacb5d","B2","batch2","","1023","","","tol_toboard","","","","","","","","","tol_peg_1","1023","1023","0","[[2,1,0],[0,0],[3]]","5","[[2,1,0],[3,0],[0]]","8","0","","","","","","6","",""
"","","","","","single-stim-button","345","887102","0.0-3.0-34.5-0.5","6435f2188202776934eacb5d","B2","batch2","","1328","","","tol_tohand","","","","","","","","","tol_peg_3","1328","1328","0","[[2,1,0],[0,0],[0]]","6","[[2,1,0],[3,0],[0]]","8","0","","","","","","6","",""
"","","","","","single-stim-button","346","888008","0.0-3.0-34.5-1.5","6435f2188202776934eacb5d","B2","batch2","","904","","","tol_toboard","","","","","","","","","tol_peg_2","904","904","0","[[2,1,0],[3,0],[0]]","6","[[2,1,0],[3,0],[0]]","8","0","","","","","","6","",""
"","","","","","poldrack-single-stim","347","889010","0.0-3.0-35.0","6435f2188202776934eacb5d","B2","batch2","","-1","","","tol_feedback","true","","","","","","","","","1000","1000","500","","","","","","-1","none","true","13873","19875","","",""
"","","","","","html-button-response","348","892821","0.0-3.0-36.0","6435f2188202776934eacb5d","B2","batch2","","3809.9000000059605","<div class = centerbox><p class = center-block-text>problem <strong>10</strong> out of 25 problems</p></div>","0","tol_trial_num","","","","","","","","","","","","","","","","","","","","","","","","",""
