"success","timeout","failed_images","failed_audio","failed_video","trial_type","trial_index","time_elapsed","internal_node_id","subject_id","study_id","session_id","task","rt","stimulus","response","item","answer","correct","spm_correct","spm_rt","view_history","fiar_detect_rt","fiar_detect_correct","total_correct_fiar_detect","post_trial_gap","choices","mouse_click","stim_duration","block_duration","timing_post_trial","current_position","tol_num_moves_made","tol_target","tol_problem_id","tol_rt","key_press","possible_responses","tol_correct","preplanning","tol_rt_per_trial","tol_min_moves"
"true","false","[]","[]","[]","preload","0","27722","0.0-0.0","643ab9200b81b8a5313adf17","D2","batch4","","","","","","","","","","","","","","","","","","","","","","","","","","","","","",""
"true","","","","","fullscreen","1","46521","0.0-1.0-0.0","643ab9200b81b8a5313adf17","D2","batch4","","","","","","","","","","","","","","","","","","","","","","","","","","","","","",""
"true","","","","","fullscreen","2","50113","0.0-2.0-0.0","643ab9200b81b8a5313adf17","D2","batch4","spm_fullscreen","","","","","","","","","","","","","","","","","","","","","","","","","","","","",""
"","","","","","html-button-response","3","70562","0.0-2.0-1.0","643ab9200b81b8a5313adf17","D2","batch4","","20446.399999999907","<p class = block-text><b>Instructions</b> <br>This is a widely used intelligence test in research. <br>In this test, a figure with a missing piece will be presented.<br>Below the figure are alternative pieces to complete the figure, only one of which is correct.<br> Different figures might involve different principles for obtaining the missing piece<br>Your job is to select the most logical piece to complete the figure.</p>","0","","","","","","","","","","","","","","","","","","","","","","","","","",""
"","","","","","html-keyboard-response","4","71377","0.0-2.0-2.0-0.0","643ab9200b81b8a5313adf17","D2","batch4","spm_show_trial_num","null","<p class=block-text>Trial 1 out of 60</p>","null","","","","","","","","","","","","","","","","","","","","","","","","","",""
"","","","","","image-button-response","5","77657","0.0-2.0-2.0-1.0","643ab9200b81b8a5313adf17","D2","batch4","spm_respsonse","6273.5","img/question_1_1.jpeg","3","mat_01","4","1","1","6273.5","","","","","","","","","","","","","","","","","","","","",""
"","","","","","html-keyboard-response","6","78726","0.0-2.0-2.0-0.1","643ab9200b81b8a5313adf17","D2","batch4","spm_show_trial_num","null","<p class=block-text>Trial 2 out of 60</p>","null","","","","","","","","","","","","","","","","","","","","","","","","","",""
"","","","","","image-button-response","7","81839","0.0-2.0-2.0-1.1","643ab9200b81b8a5313adf17","D2","batch4","spm_respsonse","3109.899999999907","img/question_1_2.jpeg","4","mat_02","5","1","1","3109.899999999907","","","","","","","","","","","","","","","","","","","","",""
"","","","","","html-keyboard-response","8","82901","0.0-2.0-2.0-0.2","643ab9200b81b8a5313adf17","D2","batch4","spm_show_trial_num","null","<p class=block-text>Trial 3 out of 60</p>","null","","","","","","","","","","","","","","","","","","","","","","","","","",""
"","","","","","image-button-response","9","86303","0.0-2.0-2.0-1.2","643ab9200b81b8a5313adf17","D2","batch4","spm_respsonse","3397.899999999907","img/question_1_3.jpeg","0","mat_03","1","1","1","3397.899999999907","","","","","","","","","","","","","","","","","","","","",""
"","","","","","html-keyboard-response","10","87366","0.0-2.0-2.0-0.3","643ab9200b81b8a5313adf17","D2","batch4","spm_show_trial_num","null","<p class=block-text>Trial 4 out of 60</p>","null","","","","","","","","","","","","","","","","","","","","","","","","","",""
"","","","","","image-button-response","11","91134","0.0-2.0-2.0-1.3","643ab9200b81b8a5313adf17","D2","batch4","spm_respsonse","3765.1999999997206","img/question_1_4.jpeg","1","mat_04","2","1","1","3765.1999999997206","","","","","","","","","","","","","","","","","","","","",""
"","","","","","html-keyboard-response","12","92200","0.0-2.0-2.0-0.4","643ab9200b81b8a5313adf17","D2","batch4","spm_show_trial_num","null","<p class=block-text>Trial 5 out of 60</p>","null","","","","","","","","","","","","","","","","","","","","","","","","","",""
"","","","","","image-button-response","13","96983","0.0-2.0-2.0-1.4","643ab9200b81b8a5313adf17","D2","batch4","spm_respsonse","4778.199999999721","img/question_1_5.jpeg","5","mat_05","6","1","1","4778.199999999721","","","","","","","","","","","","","","","","","","","","",""
"","","","","","html-keyboard-response","14","98047","0.0-2.0-2.0-0.5","643ab9200b81b8a5313adf17","D2","batch4","spm_show_trial_num","null","<p class=block-text>Trial 6 out of 60</p>","null","","","","","","","","","","","","","","","","","","","","","","","","","",""
"","","","","","image-button-response","15","102674","0.0-2.0-2.0-1.5","643ab9200b81b8a5313adf17","D2","batch4","spm_respsonse","4623.9000000003725","img/question_1_6.jpeg","2","mat_06","3","1","1","4623.9000000003725","","","","","","","","","","","","","","","","","","","","",""
"","","","","","html-keyboard-response","16","103744","0.0-2.0-2.0-0.6","643ab9200b81b8a5313adf17","D2","batch4","spm_show_trial_num","null","<p class=block-text>Trial 7 out of 60</p>","null","","","","","","","","","","","","","","","","","","","","","","","","","",""
"","","","","","image-button-response","17","112021","0.0-2.0-2.0-1.6","643ab9200b81b8a5313adf17","D2","batch4","spm_respsonse","8273.600000000093","img/question_1_7.jpeg","5","mat_07","6","1","1","8273.600000000093","","","","","","","","","","","","","","","","","","","","",""
"","","","","","html-keyboard-response","18","113084","0.0-2.0-2.0-0.7","643ab9200b81b8a5313adf17","D2","batch4","spm_show_trial_num","null","<p class=block-text>Trial 8 out of 60</p>","null","","","","","","","","","","","","","","","","","","","","","","","","","",""
"","","","","","image-button-response","19","124287","0.0-2.0-2.0-1.7","643ab9200b81b8a5313adf17","D2","batch4","spm_respsonse","11200.700000000186","img/question_1_8.jpeg","1","mat_08","2","1","1","11200.700000000186","","","","","","","","","","","","","","","","","","","","",""
"","","","","","html-keyboard-response","20","125348","0.0-2.0-2.0-0.8","643ab9200b81b8a5313adf17","D2","batch4","spm_show_trial_num","null","<p class=block-text>Trial 9 out of 60</p>","null","","","","","","","","","","","","","","","","","","","","","","","","","",""
"","","","","","image-button-response","21","176473","0.0-2.0-2.0-1.8","643ab9200b81b8a5313adf17","D2","batch4","spm_respsonse","51122","img/question_1_9.jpeg","0","mat_09","1","1","1","51122","","","","","","","","","","","","","","","","","","","","",""
"","","","","","html-keyboard-response","22","177538","0.0-2.0-2.0-0.9","643ab9200b81b8a5313adf17","D2","batch4","spm_show_trial_num","null","<p class=block-text>Trial 10 out of 60</p>","null","","","","","","","","","","","","","","","","","","","","","","","","","",""
"","","","","","image-button-response","23","188375","0.0-2.0-2.0-1.9","643ab9200b81b8a5313adf17","D2","batch4","spm_respsonse","10835.19999999972","img/question_1_10.jpeg","2","mat_10","3","1","1","10835.19999999972","","","","","","","","","","","","","","","","","","","","",""
"","","","","","html-keyboard-response","24","189442","0.0-2.0-2.0-0.10","643ab9200b81b8a5313adf17","D2","batch4","spm_show_trial_num","null","<p class=block-text>Trial 11 out of 60</p>","null","","","","","","","","","","","","","","","","","","","","","","","","","",""
"","","","","","image-button-response","25","202706","0.0-2.0-2.0-1.10","643ab9200b81b8a5313adf17","D2","batch4","spm_respsonse","13260.5","img/question_1_11.jpeg","4","mat_11","4","0","0","13260.5","","","","","","","","","","","","","","","","","","","","",""
"","","","","","html-keyboard-response","26","203774","0.0-2.0-2.0-0.11","643ab9200b81b8a5313adf17","D2","batch4","spm_show_trial_num","null","<p class=block-text>Trial 12 out of 60</p>","null","","","","","","","","","","","","","","","","","","","","","","","","","",""
"","","","","","image-button-response","27","215127","0.0-2.0-2.0-1.11","643ab9200b81b8a5313adf17","D2","batch4","spm_respsonse","11350.700000000186","img/question_1_12.jpeg","5","mat_12","5","0","0","11350.700000000186","","","","","","","","","","","","","","","","","","","","",""
"","","","","","html-keyboard-response","28","216195","0.0-2.0-2.0-0.12","643ab9200b81b8a5313adf17","D2","batch4","spm_show_trial_num","null","<p class=block-text>Trial 13 out of 60</p>","null","","","","","","","","","","","","","","","","","","","","","","","","","",""
"","","","","","image-button-response","29","219403","0.0-2.0-2.0-1.12","643ab9200b81b8a5313adf17","D2","batch4","spm_respsonse","3205.7999999998137","img/question_2_1.jpeg","1","mat_13","2","1","1","3205.7999999998137","","","","","","","","","","","","","","","","","","","","",""
"","","","","","html-keyboard-response","30","220469","0.0-2.0-2.0-0.13","643ab9200b81b8a5313adf17","D2","batch4","spm_show_trial_num","null","<p class=block-text>Trial 14 out of 60</p>","null","","","","","","","","","","","","","","","","","","","","","","","","","",""
"","","","","","image-button-response","31","226910","0.0-2.0-2.0-1.13","643ab9200b81b8a5313adf17","D2","batch4","spm_respsonse","6438.300000000279","img/question_2_2.jpeg","5","mat_14","6","1","1","6438.300000000279","","","","","","","","","","","","","","","","","","","","",""
"","","","","","html-keyboard-response","32","227976","0.0-2.0-2.0-0.14","643ab9200b81b8a5313adf17","D2","batch4","spm_show_trial_num","null","<p class=block-text>Trial 15 out of 60</p>","null","","","","","","","","","","","","","","","","","","","","","","","","","",""
"","","","","","image-button-response","33","231385","0.0-2.0-2.0-1.14","643ab9200b81b8a5313adf17","D2","batch4","spm_respsonse","3405.4000000003725","img/question_2_3.jpeg","0","mat_15","1","1","1","3405.4000000003725","","","","","","","","","","","","","","","","","","","","",""
"","","","","","html-keyboard-response","34","232453","0.0-2.0-2.0-0.15","643ab9200b81b8a5313adf17","D2","batch4","spm_show_trial_num","null","<p class=block-text>Trial 16 out of 60</p>","null","","","","","","","","","","","","","","","","","","","","","","","","","",""
"","","","","","image-button-response","35","238420","0.0-2.0-2.0-1.15","643ab9200b81b8a5313adf17","D2","batch4","spm_respsonse","5965.399999999907","img/question_2_4.jpeg","1","mat_16","2","1","1","5965.399999999907","","","","","","","","","","","","","","","","","","","","",""
"","","","","","html-keyboard-response","36","239477","0.0-2.0-2.0-0.16","643ab9200b81b8a5313adf17","D2","batch4","spm_show_trial_num","null","<p class=block-text>Trial 17 out of 60</p>","null","","","","","","","","","","","","","","","","","","","","","","","","","",""
"","","","","","image-button-response","37","244657","0.0-2.0-2.0-1.16","643ab9200b81b8a5313adf17","D2","batch4","spm_respsonse","5176.800000000279","img/question_2_5.jpeg","0","mat_17","1","1","1","5176.800000000279","","","","","","","","","","","","","","","","","","","","",""
"","","","","","html-keyboard-response","38","245725","0.0-2.0-2.0-0.17","643ab9200b81b8a5313adf17","D2","batch4","spm_show_trial_num","null","<p class=block-text>Trial 18 out of 60</p>","null","","","","","","","","","","","","","","","","","","","","","","","","","",""
"","","","","","image-button-response","39","249447","0.0-2.0-2.0-1.17","643ab9200b81b8a5313adf17","D2","batch4","spm_respsonse","3718.7999999998137","img/question_2_6.jpeg","2","mat_18","3","1","1","3718.7999999998137","","","","","","","","","","","","","","","","","","","","",""
"","","","","","html-keyboard-response","40","250517","0.0-2.0-2.0-0.18","643ab9200b81b8a5313adf17","D2","batch4","spm_show_trial_num","null","<p class=block-text>Trial 19 out of 60</p>","null","","","","","","","","","","","","","","","","","","","","","","","","","",""
"","","","","","image-button-response","41","257829","0.0-2.0-2.0-1.18","643ab9200b81b8a5313adf17","D2","batch4","spm_respsonse","7308.800000000279","img/question_2_7.jpeg","4","mat_19","5","1","1","7308.800000000279","","","","","","","","","","","","","","","","","","","","",""
"","","","","","html-keyboard-response","42","258892","0.0-2.0-2.0-0.19","643ab9200b81b8a5313adf17","D2","batch4","spm_show_trial_num","null","<p class=block-text>Trial 20 out of 60</p>","null","","","","","","","","","","","","","","","","","","","","","","","","","",""
"","","","","","image-button-response","43","270016","0.0-2.0-2.0-1.19","643ab9200b81b8a5313adf17","D2","batch4","spm_respsonse","11122.399999999907","img/question_2_8.jpeg","5","mat_20","6","1","1","11122.399999999907","","","","","","","","","","","","","","","","","","","","",""
"","","","","","html-keyboard-response","44","271080","0.0-2.0-2.0-0.20","643ab9200b81b8a5313adf17","D2","batch4","spm_show_trial_num","null","<p class=block-text>Trial 21 out of 60</p>","null","","","","","","","","","","","","","","","","","","","","","","","","","",""
"","","","","","image-button-response","45","275631","0.0-2.0-2.0-1.20","643ab9200b81b8a5313adf17","D2","batch4","spm_respsonse","4548.300000000279","img/question_2_9.jpeg","3","mat_21","4","1","1","4548.300000000279","","","","","","","","","","","","","","","","","","","","",""
"","","","","","html-keyboard-response","46","276696","0.0-2.0-2.0-0.21","643ab9200b81b8a5313adf17","D2","batch4","spm_show_trial_num","null","<p class=block-text>Trial 22 out of 60</p>","null","","","","","","","","","","","","","","","","","","","","","","","","","",""
"","","","","","image-button-response","47","283886","0.0-2.0-2.0-1.21","643ab9200b81b8a5313adf17","D2","batch4","spm_respsonse","7186.799999999814","img/question_2_10.jpeg","2","mat_22","3","1","1","7186.799999999814","","","","","","","","","","","","","","","","","","","","",""
"","","","","","html-keyboard-response","48","284956","0.0-2.0-2.0-0.22","643ab9200b81b8a5313adf17","D2","batch4","spm_show_trial_num","null","<p class=block-text>Trial 23 out of 60</p>","null","","","","","","","","","","","","","","","","","","","","","","","","","",""
"","","","","","image-button-response","49","289446","0.0-2.0-2.0-1.22","643ab9200b81b8a5313adf17","D2","batch4","spm_respsonse","4487.399999999907","img/question_2_11.jpeg","3","mat_23","4","1","1","4487.399999999907","","","","","","","","","","","","","","","","","","","","",""
"","","","","","html-keyboard-response","50","290514","0.0-2.0-2.0-0.23","643ab9200b81b8a5313adf17","D2","batch4","spm_show_trial_num","null","<p class=block-text>Trial 24 out of 60</p>","null","","","","","","","","","","","","","","","","","","","","","","","","","",""
"","","","","","image-button-response","51","410677","0.0-2.0-2.0-1.23","643ab9200b81b8a5313adf17","D2","batch4","spm_respsonse","120161.29999999981","img/question_2_12.jpeg","5","mat_24","5","0","0","120161.29999999981","","","","","","","","","","","","","","","","","","","","",""
"","","","","","html-button-response","52","413632","0.0-2.0-3.0","643ab9200b81b8a5313adf17","D2","batch4","attention_check","2696.5","<p class = block-text>Attention check: Please choose 1<br></p>","0","","","true","","","","","","","","","","","","","","","","","","","","","","",""
"","","","","","html-keyboard-response","53","414440","0.0-2.0-4.0-0.0","643ab9200b81b8a5313adf17","D2","batch4","spm_show_trial_num","null","<p class=block-text>Trial 25 out of 60</p>","null","","","","","","","","","","","","","","","","","","","","","","","","","",""
"","","","","","image-button-response","54","419835","0.0-2.0-4.0-1.0","643ab9200b81b8a5313adf17","D2","batch4","spm_respsonse","5390.899999999907","img/question_3_1.jpeg","7","mat_25","8","1","1","5390.899999999907","","","","","","","","","","","","","","","","","","","","",""
"","","","","","html-keyboard-response","55","420903","0.0-2.0-4.0-0.1","643ab9200b81b8a5313adf17","D2","batch4","spm_show_trial_num","null","<p class=block-text>Trial 26 out of 60</p>","null","","","","","","","","","","","","","","","","","","","","","","","","","",""
"","","","","","image-button-response","56","431508","0.0-2.0-4.0-1.1","643ab9200b81b8a5313adf17","D2","batch4","spm_respsonse","10602.19999999972","img/question_3_2.jpeg","1","mat_26","2","1","1","10602.19999999972","","","","","","","","","","","","","","","","","","","","",""
"","","","","","html-keyboard-response","57","432576","0.0-2.0-4.0-0.2","643ab9200b81b8a5313adf17","D2","batch4","spm_show_trial_num","null","<p class=block-text>Trial 27 out of 60</p>","null","","","","","","","","","","","","","","","","","","","","","","","","","",""
"","","","","","image-button-response","58","445244","0.0-2.0-4.0-1.2","643ab9200b81b8a5313adf17","D2","batch4","spm_respsonse","12665.700000000186","img/question_3_3.jpeg","2","mat_27","3","1","1","12665.700000000186","","","","","","","","","","","","","","","","","","","","",""
"","","","","","html-keyboard-response","59","446313","0.0-2.0-4.0-0.3","643ab9200b81b8a5313adf17","D2","batch4","spm_show_trial_num","null","<p class=block-text>Trial 28 out of 60</p>","null","","","","","","","","","","","","","","","","","","","","","","","","","",""
"","","","","","image-button-response","60","454883","0.0-2.0-4.0-1.3","643ab9200b81b8a5313adf17","D2","batch4","spm_respsonse","8567.600000000093","img/question_3_4.jpeg","7","mat_28","8","1","1","8567.600000000093","","","","","","","","","","","","","","","","","","","","",""
"","","","","","html-keyboard-response","61","455948","0.0-2.0-4.0-0.4","643ab9200b81b8a5313adf17","D2","batch4","spm_show_trial_num","null","<p class=block-text>Trial 29 out of 60</p>","null","","","","","","","","","","","","","","","","","","","","","","","","","",""
"","","","","","image-button-response","62","465272","0.0-2.0-4.0-1.4","643ab9200b81b8a5313adf17","D2","batch4","spm_respsonse","9320.399999999907","img/question_3_5.jpeg","6","mat_29","7","1","1","9320.399999999907","","","","","","","","","","","","","","","","","","","","",""
"","","","","","html-keyboard-response","63","466336","0.0-2.0-4.0-0.5","643ab9200b81b8a5313adf17","D2","batch4","spm_show_trial_num","null","<p class=block-text>Trial 30 out of 60</p>","null","","","","","","","","","","","","","","","","","","","","","","","","","",""
"","","","","","image-button-response","64","489342","0.0-2.0-4.0-1.5","643ab9200b81b8a5313adf17","D2","batch4","spm_respsonse","23002.399999999907","img/question_3_6.jpeg","2","mat_30","4","0","0","23002.399999999907","","","","","","","","","","","","","","","","","","","","",""
"","","","","","html-keyboard-response","65","490407","0.0-2.0-4.0-0.6","643ab9200b81b8a5313adf17","D2","batch4","spm_show_trial_num","null","<p class=block-text>Trial 31 out of 60</p>","null","","","","","","","","","","","","","","","","","","","","","","","","","",""
"","","","","","image-button-response","66","498248","0.0-2.0-4.0-1.6","643ab9200b81b8a5313adf17","D2","batch4","spm_respsonse","7839.100000000093","img/question_3_7.jpeg","4","mat_31","5","1","1","7839.100000000093","","","","","","","","","","","","","","","","","","","","",""
"","","","","","html-keyboard-response","67","499315","0.0-2.0-4.0-0.7","643ab9200b81b8a5313adf17","D2","batch4","spm_show_trial_num","null","<p class=block-text>Trial 32 out of 60</p>","null","","","","","","","","","","","","","","","","","","","","","","","","","",""
"","","","","","image-button-response","68","522698","0.0-2.0-4.0-1.7","643ab9200b81b8a5313adf17","D2","batch4","spm_respsonse","23380.200000000186","img/question_3_8.jpeg","0","mat_32","1","1","1","23380.200000000186","","","","","","","","","","","","","","","","","","","","",""
"","","","","","html-keyboard-response","69","523765","0.0-2.0-4.0-0.8","643ab9200b81b8a5313adf17","D2","batch4","spm_show_trial_num","null","<p class=block-text>Trial 33 out of 60</p>","null","","","","","","","","","","","","","","","","","","","","","","","","","",""
"","","","","","image-button-response","70","544883","0.0-2.0-4.0-1.8","643ab9200b81b8a5313adf17","D2","batch4","spm_respsonse","21115.899999999907","img/question_3_9.jpeg","6","mat_33","7","1","1","21115.899999999907","","","","","","","","","","","","","","","","","","","","",""
"","","","","","html-keyboard-response","71","545951","0.0-2.0-4.0-0.9","643ab9200b81b8a5313adf17","D2","batch4","spm_show_trial_num","null","<p class=block-text>Trial 34 out of 60</p>","null","","","","","","","","","","","","","","","","","","","","","","","","","",""
"","","","","","image-button-response","72","575259","0.0-2.0-4.0-1.9","643ab9200b81b8a5313adf17","D2","batch4","spm_respsonse","29305.19999999972","img/question_3_10.jpeg","7","mat_34","6","0","0","29305.19999999972","","","","","","","","","","","","","","","","","","","","",""
"","","","","","html-keyboard-response","73","576326","0.0-2.0-4.0-0.10","643ab9200b81b8a5313adf17","D2","batch4","spm_show_trial_num","null","<p class=block-text>Trial 35 out of 60</p>","null","","","","","","","","","","","","","","","","","","","","","","","","","",""
"","","","","","image-button-response","74","592733","0.0-2.0-4.0-1.10","643ab9200b81b8a5313adf17","D2","batch4","spm_respsonse","16405.899999999907","img/question_3_11.jpeg","3","mat_35","1","0","0","16405.899999999907","","","","","","","","","","","","","","","","","","","","",""
"","","","","","html-keyboard-response","75","593797","0.0-2.0-4.0-0.11","643ab9200b81b8a5313adf17","D2","batch4","spm_show_trial_num","null","<p class=block-text>Trial 36 out of 60</p>","null","","","","","","","","","","","","","","","","","","","","","","","","","",""
"","","","","","image-button-response","76","662341","0.0-2.0-4.0-1.11","643ab9200b81b8a5313adf17","D2","batch4","spm_respsonse","68543.6000000001","img/question_3_12.jpeg","2","mat_36","2","0","0","68543.6000000001","","","","","","","","","","","","","","","","","","","","",""
"","","","","","html-keyboard-response","77","663410","0.0-2.0-4.0-0.12","643ab9200b81b8a5313adf17","D2","batch4","spm_show_trial_num","null","<p class=block-text>Trial 37 out of 60</p>","null","","","","","","","","","","","","","","","","","","","","","","","","","",""
"","","","","","image-button-response","78","669419","0.0-2.0-4.0-1.12","643ab9200b81b8a5313adf17","D2","batch4","spm_respsonse","6005.5","img/question_4_1.jpeg","2","mat_37","3","1","1","6005.5","","","","","","","","","","","","","","","","","","","","",""
"","","","","","html-keyboard-response","79","670484","0.0-2.0-4.0-0.13","643ab9200b81b8a5313adf17","D2","batch4","spm_show_trial_num","null","<p class=block-text>Trial 38 out of 60</p>","null","","","","","","","","","","","","","","","","","","","","","","","","","",""
"","","","","","image-button-response","80","682688","0.0-2.0-4.0-1.13","643ab9200b81b8a5313adf17","D2","batch4","spm_respsonse","12200.80000000028","img/question_4_2.jpeg","3","mat_38","4","1","1","12200.80000000028","","","","","","","","","","","","","","","","","","","","",""
"","","","","","html-keyboard-response","81","683756","0.0-2.0-4.0-0.14","643ab9200b81b8a5313adf17","D2","batch4","spm_show_trial_num","null","<p class=block-text>Trial 39 out of 60</p>","null","","","","","","","","","","","","","","","","","","","","","","","","","",""
"","","","","","image-button-response","82","690231","0.0-2.0-4.0-1.14","643ab9200b81b8a5313adf17","D2","batch4","spm_respsonse","6471.600000000093","img/question_4_3.jpeg","2","mat_39","3","1","1","6471.600000000093","","","","","","","","","","","","","","","","","","","","",""
"","","","","","html-keyboard-response","83","691300","0.0-2.0-4.0-0.15","643ab9200b81b8a5313adf17","D2","batch4","spm_show_trial_num","null","<p class=block-text>Trial 40 out of 60</p>","null","","","","","","","","","","","","","","","","","","","","","","","","","",""
"","","","","","image-button-response","84","700298","0.0-2.0-4.0-1.15","643ab9200b81b8a5313adf17","D2","batch4","spm_respsonse","8994.899999999907","img/question_4_4.jpeg","6","mat_40","7","1","1","8994.899999999907","","","","","","","","","","","","","","","","","","","","",""
"","","","","","html-keyboard-response","85","701363","0.0-2.0-4.0-0.16","643ab9200b81b8a5313adf17","D2","batch4","spm_show_trial_num","null","<p class=block-text>Trial 41 out of 60</p>","null","","","","","","","","","","","","","","","","","","","","","","","","","",""
"","","","","","image-button-response","86","749312","0.0-2.0-4.0-1.16","643ab9200b81b8a5313adf17","D2","batch4","spm_respsonse","47947","img/question_4_5.jpeg","7","mat_41","8","1","1","47947","","","","","","","","","","","","","","","","","","","","",""
"","","","","","html-keyboard-response","87","750375","0.0-2.0-4.0-0.17","643ab9200b81b8a5313adf17","D2","batch4","spm_show_trial_num","null","<p class=block-text>Trial 42 out of 60</p>","null","","","","","","","","","","","","","","","","","","","","","","","","","",""
"","","","","","image-button-response","88","768136","0.0-2.0-4.0-1.17","643ab9200b81b8a5313adf17","D2","batch4","spm_respsonse","17757.600000000093","img/question_4_6.jpeg","5","mat_42","6","1","1","17757.600000000093","","","","","","","","","","","","","","","","","","","","",""
"","","","","","html-keyboard-response","89","769201","0.0-2.0-4.0-0.18","643ab9200b81b8a5313adf17","D2","batch4","spm_show_trial_num","null","<p class=block-text>Trial 43 out of 60</p>","null","","","","","","","","","","","","","","","","","","","","","","","","","",""
"","","","","","image-button-response","90","800946","0.0-2.0-4.0-1.18","643ab9200b81b8a5313adf17","D2","batch4","spm_respsonse","31741.799999999814","img/question_4_7.jpeg","4","mat_43","5","1","1","31741.799999999814","","","","","","","","","","","","","","","","","","","","",""
"","","","","","html-keyboard-response","91","802009","0.0-2.0-4.0-0.19","643ab9200b81b8a5313adf17","D2","batch4","spm_show_trial_num","null","<p class=block-text>Trial 44 out of 60</p>","null","","","","","","","","","","","","","","","","","","","","","","","","","",""
"","","","","","image-button-response","92","810529","0.0-2.0-4.0-1.19","643ab9200b81b8a5313adf17","D2","batch4","spm_respsonse","8517.099999999627","img/question_4_8.jpeg","3","mat_44","4","1","1","8517.099999999627","","","","","","","","","","","","","","","","","","","","",""
"","","","","","html-keyboard-response","93","811593","0.0-2.0-4.0-0.20","643ab9200b81b8a5313adf17","D2","batch4","spm_show_trial_num","null","<p class=block-text>Trial 45 out of 60</p>","null","","","","","","","","","","","","","","","","","","","","","","","","","",""
"","","","","","image-button-response","94","825559","0.0-2.0-4.0-1.20","643ab9200b81b8a5313adf17","D2","batch4","spm_respsonse","13963.099999999627","img/question_4_9.jpeg","0","mat_45","1","1","1","13963.099999999627","","","","","","","","","","","","","","","","","","","","",""
"","","","","","html-keyboard-response","95","826625","0.0-2.0-4.0-0.21","643ab9200b81b8a5313adf17","D2","batch4","spm_show_trial_num","null","<p class=block-text>Trial 46 out of 60</p>","null","","","","","","","","","","","","","","","","","","","","","","","","","",""
"","","","","","image-button-response","96","860279","0.0-2.0-4.0-1.21","643ab9200b81b8a5313adf17","D2","batch4","spm_respsonse","33652.59999999963","img/question_4_10.jpeg","1","mat_46","2","1","1","33652.59999999963","","","","","","","","","","","","","","","","","","","","",""
"","","","","","html-keyboard-response","97","861344","0.0-2.0-4.0-0.22","643ab9200b81b8a5313adf17","D2","batch4","spm_show_trial_num","null","<p class=block-text>Trial 47 out of 60</p>","null","","","","","","","","","","","","","","","","","","","","","","","","","",""
"","","","","","image-button-response","98","897702","0.0-2.0-4.0-1.22","643ab9200b81b8a5313adf17","D2","batch4","spm_respsonse","36355.90000000037","img/question_4_11.jpeg","6","mat_47","5","0","0","36355.90000000037","","","","","","","","","","","","","","","","","","","","",""
"","","","","","html-keyboard-response","99","898766","0.0-2.0-4.0-0.23","643ab9200b81b8a5313adf17","D2","batch4","spm_show_trial_num","null","<p class=block-text>Trial 48 out of 60</p>","null","","","","","","","","","","","","","","","","","","","","","","","","","",""
"","","","","","image-button-response","100","925834","0.0-2.0-4.0-1.23","643ab9200b81b8a5313adf17","D2","batch4","spm_respsonse","27065","img/question_4_12.jpeg","6","mat_48","6","0","0","27065","","","","","","","","","","","","","","","","","","","","",""
"","","","","","html-keyboard-response","101","926895","0.0-2.0-4.0-0.24","643ab9200b81b8a5313adf17","D2","batch4","spm_show_trial_num","null","<p class=block-text>Trial 49 out of 60</p>","null","","","","","","","","","","","","","","","","","","","","","","","","","",""
"","","","","","image-button-response","102","937354","0.0-2.0-4.0-1.24","643ab9200b81b8a5313adf17","D2","batch4","spm_respsonse","10456.400000000373","img/question_5_1.jpeg","6","mat_49","7","1","1","10456.400000000373","","","","","","","","","","","","","","","","","","","","",""
"","","","","","html-keyboard-response","103","938418","0.0-2.0-4.0-0.25","643ab9200b81b8a5313adf17","D2","batch4","spm_show_trial_num","null","<p class=block-text>Trial 50 out of 60</p>","null","","","","","","","","","","","","","","","","","","","","","","","","","",""
"","","","","","image-button-response","104","975959","0.0-2.0-4.0-1.25","643ab9200b81b8a5313adf17","D2","batch4","spm_respsonse","37538.60000000056","img/question_5_2.jpeg","2","mat_50","6","0","0","37538.60000000056","","","","","","","","","","","","","","","","","","","","",""
"","","","","","html-keyboard-response","105","977029","0.0-2.0-4.0-0.26","643ab9200b81b8a5313adf17","D2","batch4","spm_show_trial_num","null","<p class=block-text>Trial 51 out of 60</p>","null","","","","","","","","","","","","","","","","","","","","","","","","","",""
"","","","","","image-button-response","106","987343","0.0-2.0-4.0-1.26","643ab9200b81b8a5313adf17","D2","batch4","spm_respsonse","10311.799999999814","img/question_5_3.jpeg","7","mat_51","8","1","1","10311.799999999814","","","","","","","","","","","","","","","","","","","","",""
"","","","","","html-keyboard-response","107","988410","0.0-2.0-4.0-0.27","643ab9200b81b8a5313adf17","D2","batch4","spm_show_trial_num","null","<p class=block-text>Trial 52 out of 60</p>","null","","","","","","","","","","","","","","","","","","","","","","","","","",""
"","","","","","image-button-response","108","1047631","0.0-2.0-4.0-1.27","643ab9200b81b8a5313adf17","D2","batch4","spm_respsonse","59219.10000000056","img/question_5_4.jpeg","2","mat_52","2","0","0","59219.10000000056","","","","","","","","","","","","","","","","","","","","",""
"","","","","","html-keyboard-response","109","1048690","0.0-2.0-4.0-0.28","643ab9200b81b8a5313adf17","D2","batch4","spm_show_trial_num","null","<p class=block-text>Trial 53 out of 60</p>","null","","","","","","","","","","","","","","","","","","","","","","","","","",""
"","","","","","image-button-response","110","1059427","0.0-2.0-4.0-1.28","643ab9200b81b8a5313adf17","D2","batch4","spm_respsonse","10733.700000000186","img/question_5_5.jpeg","3","mat_53","1","0","0","10733.700000000186","","","","","","","","","","","","","","","","","","","","",""
"","","","","","html-keyboard-response","111","1060492","0.0-2.0-4.0-0.29","643ab9200b81b8a5313adf17","D2","batch4","spm_show_trial_num","null","<p class=block-text>Trial 54 out of 60</p>","null","","","","","","","","","","","","","","","","","","","","","","","","","",""
"","","","","","image-button-response","112","1076002","0.0-2.0-4.0-1.29","643ab9200b81b8a5313adf17","D2","batch4","spm_respsonse","15507","img/question_5_6.jpeg","6","mat_54","5","0","0","15507","","","","","","","","","","","","","","","","","","","","",""
"","","","","","html-keyboard-response","113","1077068","0.0-2.0-4.0-0.30","643ab9200b81b8a5313adf17","D2","batch4","spm_show_trial_num","null","<p class=block-text>Trial 55 out of 60</p>","null","","","","","","","","","","","","","","","","","","","","","","","","","",""
"","","","","","image-button-response","114","1151789","0.0-2.0-4.0-1.30","643ab9200b81b8a5313adf17","D2","batch4","spm_respsonse","74719.60000000056","img/question_5_7.jpeg","4","mat_55","1","0","0","74719.60000000056","","","","","","","","","","","","","","","","","","","","",""
"","","","","","html-keyboard-response","115","1152857","0.0-2.0-4.0-0.31","643ab9200b81b8a5313adf17","D2","batch4","spm_show_trial_num","null","<p class=block-text>Trial 56 out of 60</p>","null","","","","","","","","","","","","","","","","","","","","","","","","","",""
"","","","","","image-button-response","116","1158925","0.0-2.0-4.0-1.31","643ab9200b81b8a5313adf17","D2","batch4","spm_respsonse","6064.300000000745","img/question_5_8.jpeg","4","mat_56","6","0","0","6064.300000000745","","","","","","","","","","","","","","","","","","","","",""
"","","","","","html-keyboard-response","117","1159989","0.0-2.0-4.0-0.32","643ab9200b81b8a5313adf17","D2","batch4","spm_show_trial_num","null","<p class=block-text>Trial 57 out of 60</p>","null","","","","","","","","","","","","","","","","","","","","","","","","","",""
"","","","","","image-button-response","118","1175286","0.0-2.0-4.0-1.32","643ab9200b81b8a5313adf17","D2","batch4","spm_respsonse","15294.799999999814","img/question_5_9.jpeg","0","mat_57","3","0","0","15294.799999999814","","","","","","","","","","","","","","","","","","","","",""
"","","","","","html-keyboard-response","119","1176353","0.0-2.0-4.0-0.33","643ab9200b81b8a5313adf17","D2","batch4","spm_show_trial_num","null","<p class=block-text>Trial 58 out of 60</p>","null","","","","","","","","","","","","","","","","","","","","","","","","","",""
"","","","","","image-button-response","120","1188311","0.0-2.0-4.0-1.33","643ab9200b81b8a5313adf17","D2","batch4","spm_respsonse","11954.700000000186","img/question_5_10.jpeg","6","mat_58","2","0","0","11954.700000000186","","","","","","","","","","","","","","","","","","","","",""
"","","","","","html-keyboard-response","121","1189373","0.0-2.0-4.0-0.34","643ab9200b81b8a5313adf17","D2","batch4","spm_show_trial_num","null","<p class=block-text>Trial 59 out of 60</p>","null","","","","","","","","","","","","","","","","","","","","","","","","","",""
"","","","","","image-button-response","122","1198620","0.0-2.0-4.0-1.34","643ab9200b81b8a5313adf17","D2","batch4","spm_respsonse","9243.299999999814","img/question_5_11.jpeg","6","mat_59","4","0","0","9243.299999999814","","","","","","","","","","","","","","","","","","","","",""
"","","","","","html-keyboard-response","123","1199689","0.0-2.0-4.0-0.35","643ab9200b81b8a5313adf17","D2","batch4","spm_show_trial_num","null","<p class=block-text>Trial 60 out of 60</p>","null","","","","","","","","","","","","","","","","","","","","","","","","","",""
"","","","","","image-button-response","124","1221701","0.0-2.0-4.0-1.35","643ab9200b81b8a5313adf17","D2","batch4","spm_respsonse","22008.5","img/question_5_12.jpeg","2","mat_60","5","0","0","22008.5","","","","","","","","","","","","","","","","","","","","",""
"","","","","","html-button-response","125","1222971","0.0-2.0-5.0","643ab9200b81b8a5313adf17","D2","batch4","spm_goodbye","1012.0999999996275","<p class= block-text>This concludes the Standard Progressive Matrix game. Thank you for your responses!<br> When you are ready, click the button continue</p>","0","","","","","","","","","","","","","","","","","","","","","","","","","",""
"true","","","","","fullscreen","126","1225373","0.0-3.0-0.0","643ab9200b81b8a5313adf17","D2","batch4","","","","","","","","","","","","","","","","","","","","","","","","","","","","","",""
"","","","","","instructions","127","1269485","0.0-3.0-1.0-0.0","643ab9200b81b8a5313adf17","D2","batch4","","44111.299999999814","","","","","","","","[{""page_index"":0,""viewing_time"":32105.799999999814},{""page_index"":1,""viewing_time"":12005}]","","","","","","","","","","","","","","","","","","","",""
"","","","","","html-button-response","128","1271531","0.0-3.0-1.0-1.0-0.0","643ab9200b81b8a5313adf17","D2","batch4","pattern_enter_quiz","2044.4000000003725","<p class=block-text> Let's answer a few questions <br>","0","","","","","","","","","","","","","","","","","","","","","","","","","",""
"","","","","","html-button-response","129","1276683","0.0-3.0-1.0-1.0-1.0","643ab9200b81b8a5313adf17","D2","batch4","pattern_quiz","5151.299999999814","<p class = block-text>True or False: You will have as much time as you want to make each choice. <br></p>","1","","","true","","","","","","","","","","","","","","","","","","","","","","",""
"","","","","","html-button-response","130","1277648","0.0-3.0-1.0-1.0-2.0","643ab9200b81b8a5313adf17","D2","batch4","pattern_quiz_feedback","962.5","<p class = block-text>Correct! You should make your choice <strong> as fast as you can</strong>.</p>","0","","","","","","","","","","","","","","","","","","","","","","","","","",""
"","","","","","html-button-response","131","1282292","0.0-3.0-1.0-1.0-3.0","643ab9200b81b8a5313adf17","D2","batch4","pattern_quiz","4641.700000000186","<p class = block-text>True or False: You will look for 4 pieces in black or white color connected in a row either horizontally, vertically or diagonally. <br></p>","0","","","true","","","","","","","","","","","","","","","","","","","","","","",""
"","","","","","html-button-response","132","1284767","0.0-3.0-1.0-1.0-4.0","643ab9200b81b8a5313adf17","D2","batch4","pattern_quiz_feedback","2472.899999999441","<p class = block-text>Correct! </p>","0","","","","","","","","","","","","","","","","","","","","","","","","","",""
"","","","","","html-button-response","133","1286491","0.0-3.0-2.0","643ab9200b81b8a5313adf17","D2","batch4","pattern_enter_practice","1720.199999999255","<p class=block-text> Now that you've understood the game, let's do a few practice trials before we start!<br> <br>","0","","","","","","","","","","","","","","","","","","","","","","","","","",""
"","","","","","image-keyboard-response","134","1288321","0.0-3.0-3.0-0.0","643ab9200b81b8a5313adf17","D2","batch4","pattern_practice","1826.7999999998137","stim/prac_yes_18_hor_w1.png","f","","f","true","","","","","","","","","","","","","","","","","","","","","","",""
"","","","","","html-keyboard-response","135","1289341","0.0-3.0-3.0-1.0","643ab9200b81b8a5313adf17","D2","batch4","pattern_feedback","null","<p style=""font-size:30px;color:green;"">Correct!</p>","null","","","","","","","","","","","","","","","","","","","","","","","","","",""
"","","","","","image-keyboard-response","136","1291233","0.0-3.0-3.0-0.1","643ab9200b81b8a5313adf17","D2","batch4","pattern_practice","1889.7999999998137","stim/prac_no_18_1.png","j","","j","true","","","","","","","","","","","","","","","","","","","","","","",""
"","","","","","html-keyboard-response","137","1292253","0.0-3.0-3.0-1.1","643ab9200b81b8a5313adf17","D2","batch4","pattern_feedback","null","<p style=""font-size:30px;color:green;"">Correct!</p>","null","","","","","","","","","","","","","","","","","","","","","","","","","",""
"","","","","","image-keyboard-response","138","1293844","0.0-3.0-3.0-0.2","643ab9200b81b8a5313adf17","D2","batch4","pattern_practice","1587.7000000001863","stim/prac_no_16_1.png","j","","j","true","","","","","","","","","","","","","","","","","","","","","","",""
"","","","","","html-keyboard-response","139","1294855","0.0-3.0-3.0-1.2","643ab9200b81b8a5313adf17","D2","batch4","pattern_feedback","null","<p style=""font-size:30px;color:green;"">Correct!</p>","null","","","","","","","","","","","","","","","","","","","","","","","","","",""
"","","","","","image-keyboard-response","140","1296332","0.0-3.0-3.0-0.3","643ab9200b81b8a5313adf17","D2","batch4","pattern_practice","1474.9000000003725","stim/prac_yes_20_dia_b1.png","f","","f","true","","","","","","","","","","","","","","","","","","","","","","",""
"","","","","","html-keyboard-response","141","1297350","0.0-3.0-3.0-1.3","643ab9200b81b8a5313adf17","D2","batch4","pattern_feedback","null","<p style=""font-size:30px;color:green;"">Correct!</p>","null","","","","","","","","","","","","","","","","","","","","","","","","","",""
"","","","","","image-keyboard-response","142","1298554","0.0-3.0-3.0-0.4","643ab9200b81b8a5313adf17","D2","batch4","pattern_practice","1201.7000000001863","stim/prac_yes_16_ver_w1.png","f","","f","true","","","","","","","","","","","","","","","","","","","","","","",""
"","","","","","html-keyboard-response","143","1299566","0.0-3.0-3.0-1.4","643ab9200b81b8a5313adf17","D2","batch4","pattern_feedback","null","<p style=""font-size:30px;color:green;"">Correct!</p>","null","","","","","","","","","","","","","","","","","","","","","","","","","",""
"","","","","","html-button-response","144","1304810","0.0-3.0-4.0","643ab9200b81b8a5313adf17","D2","batch4","pattern_enter_official_trials","5241.899999999441","<p class=block-text> Good job! You are done with practice trials!<br>
        You responded correctly on 100% of the trials.<br>
        Press the button below to start official trials. Now you won't see any feedback about your response</p>","0","","","","","","","","","","","","","","","","","","","","","","","","","",""
"","","","","","html-keyboard-response","145","1305622","0.0-3.0-5.0-0.0","643ab9200b81b8a5313adf17","D2","batch4","pattern_show_trial_num","null","<p class=block-text>Trial 1 out of 78</p>","null","","","","","","","","","","","","","","","","","","","","","","","","","",""
"","","","","","image-keyboard-response","146","1310351","0.0-3.0-5.0-1.0","643ab9200b81b8a5313adf17","D2","batch4","pattern_response","4725.799999999814","stim/yes_51_dia_b1.png","f","pattern_72","f","true","","","","4725.799999999814","true","1","","","","","","","","","","","","","","","","",""
"","","","","","html-keyboard-response","147","1311670","0.0-3.0-5.0-0.1","643ab9200b81b8a5313adf17","D2","batch4","pattern_show_trial_num","null","<p class=block-text>Trial 2 out of 78</p>","null","","","","","","","","","","","","","","","","","","","","","","","","","",""
"","","","","","image-keyboard-response","148","1314227","0.0-3.0-5.0-1.1","643ab9200b81b8a5313adf17","D2","batch4","pattern_response","2553.4000000003725","stim/no_33_1_b.png","f","pattern_15","j","false","","","","2553.4000000003725","false","1","","","","","","","","","","","","","","","","",""
"","","","","","html-keyboard-response","149","1315540","0.0-3.0-5.0-0.2","643ab9200b81b8a5313adf17","D2","batch4","pattern_show_trial_num","null","<p class=block-text>Trial 3 out of 78</p>","null","","","","","","","","","","","","","","","","","","","","","","","","","",""
"","","","","","image-keyboard-response","150","1316784","0.0-3.0-5.0-1.2","643ab9200b81b8a5313adf17","D2","batch4","pattern_response","1240.2000000001863","stim/yes_17_ver_b1_b.png","f","pattern_46","f","true","","","","1240.2000000001863","true","2","","","","","","","","","","","","","","","","",""
"","","","","","html-keyboard-response","151","1318099","0.0-3.0-5.0-0.3","643ab9200b81b8a5313adf17","D2","batch4","pattern_show_trial_num","null","<p class=block-text>Trial 4 out of 78</p>","null","","","","","","","","","","","","","","","","","","","","","","","","","",""
"","","","","","image-keyboard-response","152","1318968","0.0-3.0-5.0-1.3","643ab9200b81b8a5313adf17","D2","batch4","pattern_response","866.9000000003725","stim/yes_12_hor_w1_w.png","f","pattern_42","f","true","","","","866.9000000003725","true","3","","","","","","","","","","","","","","","","",""
"","","","","","html-keyboard-response","153","1320283","0.0-3.0-5.0-0.4","643ab9200b81b8a5313adf17","D2","batch4","pattern_show_trial_num","null","<p class=block-text>Trial 5 out of 78</p>","null","","","","","","","","","","","","","","","","","","","","","","","","","",""
"","","","","","image-keyboard-response","154","1324351","0.0-3.0-5.0-1.4","643ab9200b81b8a5313adf17","D2","batch4","pattern_response","4065.5999999996275","stim/no_67_1.png","f","pattern_39","j","false","","","","4065.5999999996275","false","3","","","","","","","","","","","","","","","","",""
"","","","","","html-keyboard-response","155","1325667","0.0-3.0-5.0-0.5","643ab9200b81b8a5313adf17","D2","batch4","pattern_show_trial_num","null","<p class=block-text>Trial 6 out of 78</p>","null","","","","","","","","","","","","","","","","","","","","","","","","","",""
"","","","","","image-keyboard-response","156","1328978","0.0-3.0-5.0-1.5","643ab9200b81b8a5313adf17","D2","batch4","pattern_response","3307.399999999441","stim/no_47_1_b.png","f","pattern_27","j","false","","","","3307.399999999441","false","3","","","","","","","","","","","","","","","","",""
"","","","","","html-keyboard-response","157","1330294","0.0-3.0-5.0-0.6","643ab9200b81b8a5313adf17","D2","batch4","pattern_show_trial_num","null","<p class=block-text>Trial 7 out of 78</p>","null","","","","","","","","","","","","","","","","","","","","","","","","","",""
"","","","","","image-keyboard-response","158","1332708","0.0-3.0-5.0-1.6","643ab9200b81b8a5313adf17","D2","batch4","pattern_response","2410.699999999255","stim/no_58_1_w.png","f","pattern_35","j","false","","","","2410.699999999255","false","3","","","","","","","","","","","","","","","","",""
"","","","","","html-keyboard-response","159","1334022","0.0-3.0-5.0-0.7","643ab9200b81b8a5313adf17","D2","batch4","pattern_show_trial_num","null","<p class=block-text>Trial 8 out of 78</p>","null","","","","","","","","","","","","","","","","","","","","","","","","","",""
"","","","","","image-keyboard-response","160","1337044","0.0-3.0-5.0-1.7","643ab9200b81b8a5313adf17","D2","batch4","pattern_response","3019","stim/no_12_1.png","j","pattern_01","j","true","","","","3019","true","4","","","","","","","","","","","","","","","","",""
"","","","","","html-keyboard-response","161","1338358","0.0-3.0-5.0-0.8","643ab9200b81b8a5313adf17","D2","batch4","pattern_show_trial_num","null","<p class=block-text>Trial 9 out of 78</p>","null","","","","","","","","","","","","","","","","","","","","","","","","","",""
"","","","","","image-keyboard-response","162","1339400","0.0-3.0-5.0-1.8","643ab9200b81b8a5313adf17","D2","batch4","pattern_response","1038.2999999998137","stim/yes_58_dia_w1_w.png","f","pattern_76","f","true","","","","1038.2999999998137","true","5","","","","","","","","","","","","","","","","",""
"","","","","","html-keyboard-response","163","1340718","0.0-3.0-5.0-0.9","643ab9200b81b8a5313adf17","D2","batch4","pattern_show_trial_num","null","<p class=block-text>Trial 10 out of 78</p>","null","","","","","","","","","","","","","","","","","","","","","","","","","",""
"","","","","","image-keyboard-response","164","1344956","0.0-3.0-5.0-1.9","643ab9200b81b8a5313adf17","D2","batch4","pattern_response","4235.600000000559","stim/no_39_1_w.png","f","pattern_21","j","false","","","","4235.600000000559","false","5","","","","","","","","","","","","","","","","",""
"","","","","","html-keyboard-response","165","1346270","0.0-3.0-5.0-0.10","643ab9200b81b8a5313adf17","D2","batch4","pattern_show_trial_num","null","<p class=block-text>Trial 11 out of 78</p>","null","","","","","","","","","","","","","","","","","","","","","","","","","",""
"","","","","","image-keyboard-response","166","1351509","0.0-3.0-5.0-1.10","643ab9200b81b8a5313adf17","D2","batch4","pattern_response","5236","stim/no_45_1_w.png","f","pattern_25","j","false","","","","5236","false","5","","","","","","","","","","","","","","","","",""
"","","","","","html-keyboard-response","167","1352830","0.0-3.0-5.0-0.11","643ab9200b81b8a5313adf17","D2","batch4","pattern_show_trial_num","null","<p class=block-text>Trial 12 out of 78</p>","null","","","","","","","","","","","","","","","","","","","","","","","","","",""
"","","","","","image-keyboard-response","168","1354346","0.0-3.0-5.0-1.11","643ab9200b81b8a5313adf17","D2","batch4","pattern_response","1513.7999999998137","stim/yes_26_dia_w2_w.png","f","pattern_50","f","true","","","","1513.7999999998137","true","6","","","","","","","","","","","","","","","","",""
"","","","","","html-keyboard-response","169","1355662","0.0-3.0-5.0-0.12","643ab9200b81b8a5313adf17","D2","batch4","pattern_show_trial_num","null","<p class=block-text>Trial 13 out of 78</p>","null","","","","","","","","","","","","","","","","","","","","","","","","","",""
"","","","","","image-keyboard-response","170","1362607","0.0-3.0-5.0-1.12","643ab9200b81b8a5313adf17","D2","batch4","pattern_response","6943.199999999255","stim/no_30_1_b.png","j","pattern_13","j","true","","","","6943.199999999255","true","7","","","","","","","","","","","","","","","","",""
"","","","","","html-keyboard-response","171","1363923","0.0-3.0-5.0-0.13","643ab9200b81b8a5313adf17","D2","batch4","pattern_show_trial_num","null","<p class=block-text>Trial 14 out of 78</p>","null","","","","","","","","","","","","","","","","","","","","","","","","","",""
"","","","","","image-keyboard-response","172","1365745","0.0-3.0-5.0-1.13","643ab9200b81b8a5313adf17","D2","batch4","pattern_response","1820.2000000001863","stim/yes_36_ver_w1_w.png","f","pattern_58","f","true","","","","1820.2000000001863","true","8","","","","","","","","","","","","","","","","",""
"","","","","","html-keyboard-response","173","1367058","0.0-3.0-5.0-0.14","643ab9200b81b8a5313adf17","D2","batch4","pattern_show_trial_num","null","<p class=block-text>Trial 15 out of 78</p>","null","","","","","","","","","","","","","","","","","","","","","","","","","",""
"","","","","","image-keyboard-response","174","1369261","0.0-3.0-5.0-1.14","643ab9200b81b8a5313adf17","D2","batch4","pattern_response","2201.2000000001863","stim/no_43_2_b.png","f","pattern_23","j","false","","","","2201.2000000001863","false","8","","","","","","","","","","","","","","","","",""
"","","","","","html-keyboard-response","175","1370581","0.0-3.0-5.0-0.15","643ab9200b81b8a5313adf17","D2","batch4","pattern_show_trial_num","null","<p class=block-text>Trial 16 out of 78</p>","null","","","","","","","","","","","","","","","","","","","","","","","","","",""
"","","","","","image-keyboard-response","176","1372300","0.0-3.0-5.0-1.15","643ab9200b81b8a5313adf17","D2","batch4","pattern_response","1715.7999999998137","stim/yes_46_ver_b1_b.png","f","pattern_68","f","true","","","","1715.7999999998137","true","9","","","","","","","","","","","","","","","","",""
"","","","","","html-keyboard-response","177","1373621","0.0-3.0-5.0-0.16","643ab9200b81b8a5313adf17","D2","batch4","pattern_show_trial_num","null","<p class=block-text>Trial 17 out of 78</p>","null","","","","","","","","","","","","","","","","","","","","","","","","","",""
"","","","","","image-keyboard-response","178","1379837","0.0-3.0-5.0-1.16","643ab9200b81b8a5313adf17","D2","batch4","pattern_response","6214","stim/yes_44_ver_w1_w.png","j","pattern_66","f","false","","","","6214","false","9","","","","","","","","","","","","","","","","",""
"","","","","","html-keyboard-response","179","1381157","0.0-3.0-5.0-0.17","643ab9200b81b8a5313adf17","D2","batch4","pattern_show_trial_num","null","<p class=block-text>Trial 18 out of 78</p>","null","","","","","","","","","","","","","","","","","","","","","","","","","",""
"","","","","","image-keyboard-response","180","1386545","0.0-3.0-5.0-1.17","643ab9200b81b8a5313adf17","D2","batch4","pattern_response","5385.0999999996275","stim/no_22_1_b.png","f","pattern_07","j","false","","","","5385.0999999996275","false","9","","","","","","","","","","","","","","","","",""
"","","","","","html-keyboard-response","181","1387866","0.0-3.0-5.0-0.18","643ab9200b81b8a5313adf17","D2","batch4","pattern_show_trial_num","null","<p class=block-text>Trial 19 out of 78</p>","null","","","","","","","","","","","","","","","","","","","","","","","","","",""
"","","","","","image-keyboard-response","182","1391960","0.0-3.0-5.0-1.18","643ab9200b81b8a5313adf17","D2","batch4","pattern_response","4091.4000000003725","stim/no_18_1_b.png","f","pattern_05","j","false","","","","4091.4000000003725","false","9","","","","","","","","","","","","","","","","",""
"","","","","","html-keyboard-response","183","1393277","0.0-3.0-5.0-0.19","643ab9200b81b8a5313adf17","D2","batch4","pattern_show_trial_num","null","<p class=block-text>Trial 20 out of 78</p>","null","","","","","","","","","","","","","","","","","","","","","","","","","",""
"","","","","","image-keyboard-response","184","1399389","0.0-3.0-5.0-1.19","643ab9200b81b8a5313adf17","D2","batch4","pattern_response","6109","stim/yes_39_hor_w1_w.png","j","pattern_62","f","false","","","","6109","false","9","","","","","","","","","","","","","","","","",""
"","","","","","html-keyboard-response","185","1400708","0.0-3.0-5.0-0.20","643ab9200b81b8a5313adf17","D2","batch4","pattern_show_trial_num","null","<p class=block-text>Trial 21 out of 78</p>","null","","","","","","","","","","","","","","","","","","","","","","","","","",""
"","","","","","image-keyboard-response","186","1403260","0.0-3.0-5.0-1.20","643ab9200b81b8a5313adf17","D2","batch4","pattern_response","2549.5","stim/yes_23_ver_b1.png","f","pattern_48","f","true","","","","2549.5","true","10","","","","","","","","","","","","","","","","",""
"","","","","","html-keyboard-response","187","1404581","0.0-3.0-5.0-0.21","643ab9200b81b8a5313adf17","D2","batch4","pattern_show_trial_num","null","<p class=block-text>Trial 22 out of 78</p>","null","","","","","","","","","","","","","","","","","","","","","","","","","",""
"","","","","","image-keyboard-response","188","1410199","0.0-3.0-5.0-1.21","643ab9200b81b8a5313adf17","D2","batch4","pattern_response","5615.600000000559","stim/yes_70_ver_b1.png","j","pattern_80","f","false","","","","5615.600000000559","false","10","","","","","","","","","","","","","","","","",""
"","","","","","html-keyboard-response","189","1411517","0.0-3.0-5.0-0.22","643ab9200b81b8a5313adf17","D2","batch4","pattern_show_trial_num","null","<p class=block-text>Trial 23 out of 78</p>","null","","","","","","","","","","","","","","","","","","","","","","","","","",""
"","","","","","image-keyboard-response","190","1418136","0.0-3.0-5.0-1.22","643ab9200b81b8a5313adf17","D2","batch4","pattern_response","6617.0999999996275","stim/yes_53_ver_b1_b.png","f","pattern_74","f","true","","","","6617.0999999996275","true","11","","","","","","","","","","","","","","","","",""
"","","","","","html-keyboard-response","191","1419452","0.0-3.0-5.0-0.23","643ab9200b81b8a5313adf17","D2","batch4","pattern_show_trial_num","null","<p class=block-text>Trial 24 out of 78</p>","null","","","","","","","","","","","","","","","","","","","","","","","","","",""
"","","","","","image-keyboard-response","192","1420573","0.0-3.0-5.0-1.23","643ab9200b81b8a5313adf17","D2","batch4","pattern_response","1117.6000000005588","stim/yes_42_dia_w1_w.png","f","pattern_64","f","true","","","","1117.6000000005588","true","12","","","","","","","","","","","","","","","","",""
"","","","","","html-keyboard-response","193","1421888","0.0-3.0-5.0-0.24","643ab9200b81b8a5313adf17","D2","batch4","pattern_show_trial_num","null","<p class=block-text>Trial 25 out of 78</p>","null","","","","","","","","","","","","","","","","","","","","","","","","","",""
"","","","","","image-keyboard-response","194","1427388","0.0-3.0-5.0-1.24","643ab9200b81b8a5313adf17","D2","batch4","pattern_response","5497.600000000559","stim/yes_37_hor_w1_w.png","f","pattern_60","f","true","","","","5497.600000000559","true","13","","","","","","","","","","","","","","","","",""
"","","","","","html-keyboard-response","195","1428708","0.0-3.0-5.0-0.25","643ab9200b81b8a5313adf17","D2","batch4","pattern_show_trial_num","null","<p class=block-text>Trial 26 out of 78</p>","null","","","","","","","","","","","","","","","","","","","","","","","","","",""
"","","","","","image-keyboard-response","196","1436359","0.0-3.0-5.0-1.25","643ab9200b81b8a5313adf17","D2","batch4","pattern_response","7648.300000000745","stim/no_36_1_b.png","j","pattern_17","j","true","","","","7648.300000000745","true","14","","","","","","","","","","","","","","","","",""
"","","","","","html-keyboard-response","197","1437676","0.0-3.0-5.0-0.26","643ab9200b81b8a5313adf17","D2","batch4","pattern_show_trial_num","null","<p class=block-text>Trial 27 out of 78</p>","null","","","","","","","","","","","","","","","","","","","","","","","","","",""
"","","","","","image-keyboard-response","198","1444728","0.0-3.0-5.0-1.26","643ab9200b81b8a5313adf17","D2","batch4","pattern_response","7048.600000000559","stim/no_53_1_b.png","f","pattern_33","j","false","","","","7048.600000000559","false","14","","","","","","","","","","","","","","","","",""
"","","","","","html-keyboard-response","199","1446040","0.0-3.0-5.0-0.27","643ab9200b81b8a5313adf17","D2","batch4","pattern_show_trial_num","null","<p class=block-text>Trial 28 out of 78</p>","null","","","","","","","","","","","","","","","","","","","","","","","","","",""
"","","","","","image-keyboard-response","200","1450779","0.0-3.0-5.0-1.27","643ab9200b81b8a5313adf17","D2","batch4","pattern_response","4736.5","stim/yes_63_dia_b1.png","f","pattern_78","f","true","","","","4736.5","true","15","","","","","","","","","","","","","","","","",""
"","","","","","html-keyboard-response","201","1452098","0.0-3.0-5.0-0.28","643ab9200b81b8a5313adf17","D2","batch4","pattern_show_trial_num","null","<p class=block-text>Trial 29 out of 78</p>","null","","","","","","","","","","","","","","","","","","","","","","","","","",""
"","","","","","image-keyboard-response","202","1457779","0.0-3.0-5.0-1.28","643ab9200b81b8a5313adf17","D2","batch4","pattern_response","5679.0999999996275","stim/yes_33_dia_w1_w.png","j","pattern_56","f","false","","","","5679.0999999996275","false","15","","","","","","","","","","","","","","","","",""
"","","","","","html-keyboard-response","203","1459100","0.0-3.0-5.0-0.29","643ab9200b81b8a5313adf17","D2","batch4","pattern_show_trial_num","null","<p class=block-text>Trial 30 out of 78</p>","null","","","","","","","","","","","","","","","","","","","","","","","","","",""
"","","","","","image-keyboard-response","204","1465335","0.0-3.0-5.0-1.29","643ab9200b81b8a5313adf17","D2","batch4","pattern_response","6231.899999999441","stim/no_51_1.png","f","pattern_31","j","false","","","","6231.899999999441","false","15","","","","","","","","","","","","","","","","",""
"","","","","","html-keyboard-response","205","1466651","0.0-3.0-5.0-0.30","643ab9200b81b8a5313adf17","D2","batch4","pattern_show_trial_num","null","<p class=block-text>Trial 31 out of 78</p>","null","","","","","","","","","","","","","","","","","","","","","","","","","",""
"","","","","","image-keyboard-response","206","1471545","0.0-3.0-5.0-1.30","643ab9200b81b8a5313adf17","D2","batch4","pattern_response","4890.5","stim/no_28_2.png","f","pattern_11","j","false","","","","4890.5","false","15","","","","","","","","","","","","","","","","",""
"","","","","","html-keyboard-response","207","1472859","0.0-3.0-5.0-0.31","643ab9200b81b8a5313adf17","D2","batch4","pattern_show_trial_num","null","<p class=block-text>Trial 32 out of 78</p>","null","","","","","","","","","","","","","","","","","","","","","","","","","",""
"","","","","","image-keyboard-response","208","1479199","0.0-3.0-5.0-1.31","643ab9200b81b8a5313adf17","D2","batch4","pattern_response","6336.299999999814","stim/yes_49_hor_w1_b.png","j","pattern_70","f","false","","","","6336.299999999814","false","15","","","","","","","","","","","","","","","","",""
"","","","","","html-keyboard-response","209","1480515","0.0-3.0-5.0-0.32","643ab9200b81b8a5313adf17","D2","batch4","pattern_show_trial_num","null","<p class=block-text>Trial 33 out of 78</p>","null","","","","","","","","","","","","","","","","","","","","","","","","","",""
"","","","","","image-keyboard-response","210","1481676","0.0-3.0-5.0-1.32","643ab9200b81b8a5313adf17","D2","batch4","pattern_response","1156.9000000003725","stim/no_37_2_w.png","f","pattern_19","j","false","","","","1156.9000000003725","false","15","","","","","","","","","","","","","","","","",""
"","","","","","html-keyboard-response","211","1482995","0.0-3.0-5.0-0.33","643ab9200b81b8a5313adf17","D2","batch4","pattern_show_trial_num","null","<p class=block-text>Trial 34 out of 78</p>","null","","","","","","","","","","","","","","","","","","","","","","","","","",""
"","","","","","image-keyboard-response","212","1486784","0.0-3.0-5.0-1.33","643ab9200b81b8a5313adf17","D2","batch4","pattern_response","3786.899999999441","stim/no_15_1_w.png","j","pattern_03","j","true","","","","3786.899999999441","true","16","","","","","","","","","","","","","","","","",""
"","","","","","html-keyboard-response","213","1488099","0.0-3.0-5.0-0.34","643ab9200b81b8a5313adf17","D2","batch4","pattern_show_trial_num","null","<p class=block-text>Trial 35 out of 78</p>","null","","","","","","","","","","","","","","","","","","","","","","","","","",""
"","","","","","image-keyboard-response","214","1491652","0.0-3.0-5.0-1.34","643ab9200b81b8a5313adf17","D2","batch4","pattern_response","3550","stim/yes_30_ver_b1_b.png","f","pattern_54","f","true","","","","3550","true","17","","","","","","","","","","","","","","","","",""
"","","","","","html-keyboard-response","215","1492968","0.0-3.0-5.0-0.35","643ab9200b81b8a5313adf17","D2","batch4","pattern_show_trial_num","null","<p class=block-text>Trial 36 out of 78</p>","null","","","","","","","","","","","","","","","","","","","","","","","","","",""
"","","","","","image-keyboard-response","216","1493998","0.0-3.0-5.0-1.35","643ab9200b81b8a5313adf17","D2","batch4","pattern_response","1026.4000000003725","stim/yes_29_hor_b1_b.png","f","pattern_52","f","true","","","","1026.4000000003725","true","18","","","","","","","","","","","","","","","","",""
"","","","","","html-keyboard-response","217","1495313","0.0-3.0-5.0-0.36","643ab9200b81b8a5313adf17","D2","batch4","pattern_show_trial_num","null","<p class=block-text>Trial 37 out of 78</p>","null","","","","","","","","","","","","","","","","","","","","","","","","","",""
"","","","","","image-keyboard-response","218","1497006","0.0-3.0-5.0-1.36","643ab9200b81b8a5313adf17","D2","batch4","pattern_response","1691.4000000003725","stim/yes_15_dia_b1u_b.png","f","pattern_44","f","true","","","","1691.4000000003725","true","19","","","","","","","","","","","","","","","","",""
"","","","","","html-keyboard-response","219","1498319","0.0-3.0-5.0-0.37","643ab9200b81b8a5313adf17","D2","batch4","pattern_show_trial_num","null","<p class=block-text>Trial 38 out of 78</p>","null","","","","","","","","","","","","","","","","","","","","","","","","","",""
"","","","","","image-keyboard-response","220","1501172","0.0-3.0-5.0-1.37","643ab9200b81b8a5313adf17","D2","batch4","pattern_response","2850.899999999441","stim/no_49_2_b.png","f","pattern_29","j","false","","","","2850.899999999441","false","19","","","","","","","","","","","","","","","","",""
"","","","","","html-keyboard-response","221","1502488","0.0-3.0-5.0-0.38","643ab9200b81b8a5313adf17","D2","batch4","pattern_show_trial_num","null","<p class=block-text>Trial 39 out of 78</p>","null","","","","","","","","","","","","","","","","","","","","","","","","","",""
"","","","","","image-keyboard-response","222","1503807","0.0-3.0-5.0-1.38","643ab9200b81b8a5313adf17","D2","batch4","pattern_response","1317.2999999998137","stim/no_25_1_b.png","f","pattern_09","j","false","","","","1317.2999999998137","false","19","","","","","","","","","","","","","","","","",""
"","","","","","image-keyboard-response","223","1513361","0.0-3.0-6.0","643ab9200b81b8a5313adf17","D2","batch4","attention_check","9045.700000000186","stim/empty_board.png","j","","j","true","","","","","","","500","[""f"",""j""]","","","","","","","","","","","","","","",""
"","","","","","html-keyboard-response","224","1514166","0.0-3.0-7.0-0.0","643ab9200b81b8a5313adf17","D2","batch4","pattern_show_trial_num","null","<p class=block-text>Trial 40 out of 78</p>","null","","","","","","","","","","","","","","","","","","","","","","","","","",""
"","","","","","image-keyboard-response","225","1517534","0.0-3.0-7.0-1.0","643ab9200b81b8a5313adf17","D2","batch4","pattern_response","3357.899999999441","stim/no_36_2_w.png","f","pattern_18","j","false","","","","3357.899999999441","false","19","","","","","","","","","","","","","","","","",""
"","","","","","html-keyboard-response","226","1518850","0.0-3.0-7.0-0.1","643ab9200b81b8a5313adf17","D2","batch4","pattern_show_trial_num","null","<p class=block-text>Trial 41 out of 78</p>","null","","","","","","","","","","","","","","","","","","","","","","","","","",""
"","","","","","image-keyboard-response","227","1522941","0.0-3.0-7.0-1.1","643ab9200b81b8a5313adf17","D2","batch4","pattern_response","4087.699999999255","stim/yes_25_hor_b1_b.png","f","pattern_49","f","true","","","","4087.699999999255","true","20","","","","","","","","","","","","","","","","",""
"","","","","","html-keyboard-response","228","1524254","0.0-3.0-7.0-0.2","643ab9200b81b8a5313adf17","D2","batch4","pattern_show_trial_num","null","<p class=block-text>Trial 42 out of 78</p>","null","","","","","","","","","","","","","","","","","","","","","","","","","",""
"","","","","","image-keyboard-response","229","1528253","0.0-3.0-7.0-1.2","643ab9200b81b8a5313adf17","D2","batch4","pattern_response","3996.2999999998137","stim/no_32_1_w.png","j","pattern_14","j","true","","","","3996.2999999998137","true","21","","","","","","","","","","","","","","","","",""
"","","","","","html-keyboard-response","230","1529570","0.0-3.0-7.0-0.3","643ab9200b81b8a5313adf17","D2","batch4","pattern_show_trial_num","null","<p class=block-text>Trial 43 out of 78</p>","null","","","","","","","","","","","","","","","","","","","","","","","","","",""
"","","","","","image-keyboard-response","231","1535049","0.0-3.0-7.0-1.3","643ab9200b81b8a5313adf17","D2","batch4","pattern_response","5475.899999999441","stim/no_23_1.png","j","pattern_08","j","true","","","","5475.899999999441","true","22","","","","","","","","","","","","","","","","",""
"","","","","","html-keyboard-response","232","1536362","0.0-3.0-7.0-0.4","643ab9200b81b8a5313adf17","D2","batch4","pattern_show_trial_num","null","<p class=block-text>Trial 44 out of 78</p>","null","","","","","","","","","","","","","","","","","","","","","","","","","",""
"","","","","","image-keyboard-response","233","1537683","0.0-3.0-7.0-1.4","643ab9200b81b8a5313adf17","D2","batch4","pattern_response","1318","stim/no_50_1.png","f","pattern_30","j","false","","","","1318","false","22","","","","","","","","","","","","","","","","",""
"","","","","","html-keyboard-response","234","1538998","0.0-3.0-7.0-0.5","643ab9200b81b8a5313adf17","D2","batch4","pattern_show_trial_num","null","<p class=block-text>Trial 45 out of 78</p>","null","","","","","","","","","","","","","","","","","","","","","","","","","",""
"","","","","","image-keyboard-response","235","1540699","0.0-3.0-7.0-1.5","643ab9200b81b8a5313adf17","D2","batch4","pattern_response","1698.2999999998137","stim/yes_31_hor_b1.png","f","pattern_55","f","true","","","","1698.2999999998137","true","23","","","","","","","","","","","","","","","","",""
"","","","","","html-keyboard-response","236","1542018","0.0-3.0-7.0-0.6","643ab9200b81b8a5313adf17","D2","batch4","pattern_show_trial_num","null","<p class=block-text>Trial 46 out of 78</p>","null","","","","","","","","","","","","","","","","","","","","","","","","","",""
"","","","","","image-keyboard-response","237","1544207","0.0-3.0-7.0-1.6","643ab9200b81b8a5313adf17","D2","batch4","pattern_response","2187.7999999998137","stim/no_62_1_w.png","f","pattern_36","j","false","","","","2187.7999999998137","false","23","","","","","","","","","","","","","","","","",""
"","","","","","html-keyboard-response","238","1545522","0.0-3.0-7.0-0.7","643ab9200b81b8a5313adf17","D2","batch4","pattern_show_trial_num","null","<p class=block-text>Trial 47 out of 78</p>","null","","","","","","","","","","","","","","","","","","","","","","","","","",""
"","","","","","image-keyboard-response","239","1547625","0.0-3.0-7.0-1.7","643ab9200b81b8a5313adf17","D2","batch4","pattern_response","2100","stim/no_46_1_b.png","j","pattern_26","j","true","","","","2100","true","24","","","","","","","","","","","","","","","","",""
"","","","","","html-keyboard-response","240","1548936","0.0-3.0-7.0-0.8","643ab9200b81b8a5313adf17","D2","batch4","pattern_show_trial_num","null","<p class=block-text>Trial 48 out of 78</p>","null","","","","","","","","","","","","","","","","","","","","","","","","","",""
"","","","","","image-keyboard-response","241","1553755","0.0-3.0-7.0-1.8","643ab9200b81b8a5313adf17","D2","batch4","pattern_response","4816.5","stim/no_48_1_w.png","f","pattern_28","j","false","","","","4816.5","false","24","","","","","","","","","","","","","","","","",""
"","","","","","html-keyboard-response","242","1555071","0.0-3.0-7.0-0.9","643ab9200b81b8a5313adf17","D2","batch4","pattern_show_trial_num","null","<p class=block-text>Trial 49 out of 78</p>","null","","","","","","","","","","","","","","","","","","","","","","","","","",""
"","","","","","image-keyboard-response","243","1561614","0.0-3.0-7.0-1.9","643ab9200b81b8a5313adf17","D2","batch4","pattern_response","6539.4000000003725","stim/yes_52_ver_w1.png","j","pattern_73","f","false","","","","6539.4000000003725","false","24","","","","","","","","","","","","","","","","",""
"","","","","","html-keyboard-response","244","1562926","0.0-3.0-7.0-0.10","643ab9200b81b8a5313adf17","D2","batch4","pattern_show_trial_num","null","<p class=block-text>Trial 50 out of 78</p>","null","","","","","","","","","","","","","","","","","","","","","","","","","",""
"","","","","","image-keyboard-response","245","1568779","0.0-3.0-7.0-1.10","643ab9200b81b8a5313adf17","D2","batch4","pattern_response","5849.899999999441","stim/no_29_1_b.png","j","pattern_12","j","true","","","","5849.899999999441","true","25","","","","","","","","","","","","","","","","",""
"","","","","","html-keyboard-response","246","1570097","0.0-3.0-7.0-0.11","643ab9200b81b8a5313adf17","D2","batch4","pattern_show_trial_num","null","<p class=block-text>Trial 51 out of 78</p>","null","","","","","","","","","","","","","","","","","","","","","","","","","",""
"","","","","","image-keyboard-response","247","1573044","0.0-3.0-7.0-1.11","643ab9200b81b8a5313adf17","D2","batch4","pattern_response","2942.899999999441","stim/yes_37_dia_w1.png","f","pattern_59","f","true","","","","2942.899999999441","true","26","","","","","","","","","","","","","","","","",""
"","","","","","html-keyboard-response","248","1574357","0.0-3.0-7.0-0.12","643ab9200b81b8a5313adf17","D2","batch4","pattern_show_trial_num","null","<p class=block-text>Trial 52 out of 78</p>","null","","","","","","","","","","","","","","","","","","","","","","","","","",""
"","","","","","image-keyboard-response","249","1577014","0.0-3.0-7.0-1.12","643ab9200b81b8a5313adf17","D2","batch4","pattern_response","2653.4000000003725","stim/yes_38_hor_b1_b.png","f","pattern_61","f","true","","","","2653.4000000003725","true","27","","","","","","","","","","","","","","","","",""
"","","","","","html-keyboard-response","250","1578325","0.0-3.0-7.0-0.13","643ab9200b81b8a5313adf17","D2","batch4","pattern_show_trial_num","null","<p class=block-text>Trial 53 out of 78</p>","null","","","","","","","","","","","","","","","","","","","","","","","","","",""
"","","","","","image-keyboard-response","251","1579515","0.0-3.0-7.0-1.13","643ab9200b81b8a5313adf17","D2","batch4","pattern_response","1187.0999999996275","stim/no_55_1_w.png","f","pattern_34","j","false","","","","1187.0999999996275","false","27","","","","","","","","","","","","","","","","",""
"","","","","","html-keyboard-response","252","1580833","0.0-3.0-7.0-0.14","643ab9200b81b8a5313adf17","D2","batch4","pattern_show_trial_num","null","<p class=block-text>Trial 54 out of 78</p>","null","","","","","","","","","","","","","","","","","","","","","","","","","",""
"","","","","","image-keyboard-response","253","1581947","0.0-3.0-7.0-1.14","643ab9200b81b8a5313adf17","D2","batch4","pattern_response","1111.2999999998137","stim/yes_29_ver_w1.png","f","pattern_53","f","true","","","","1111.2999999998137","true","28","","","","","","","","","","","","","","","","",""
"","","","","","html-keyboard-response","254","1583265","0.0-3.0-7.0-0.15","643ab9200b81b8a5313adf17","D2","batch4","pattern_show_trial_num","null","<p class=block-text>Trial 55 out of 78</p>","null","","","","","","","","","","","","","","","","","","","","","","","","","",""
"","","","","","image-keyboard-response","255","1585101","0.0-3.0-7.0-1.15","643ab9200b81b8a5313adf17","D2","batch4","pattern_response","1834","stim/yes_35_dia_b1.png","f","pattern_57","f","true","","","","1834","true","29","","","","","","","","","","","","","","","","",""
"","","","","","html-keyboard-response","256","1586413","0.0-3.0-7.0-0.16","643ab9200b81b8a5313adf17","D2","batch4","pattern_show_trial_num","null","<p class=block-text>Trial 56 out of 78</p>","null","","","","","","","","","","","","","","","","","","","","","","","","","",""
"","","","","","image-keyboard-response","257","1588799","0.0-3.0-7.0-1.16","643ab9200b81b8a5313adf17","D2","batch4","pattern_response","2383.100000000559","stim/yes_48_dia_w1_w.png","f","pattern_69","f","true","","","","2383.100000000559","true","30","","","","","","","","","","","","","","","","",""
"","","","","","html-keyboard-response","258","1590113","0.0-3.0-7.0-0.17","643ab9200b81b8a5313adf17","D2","batch4","pattern_show_trial_num","null","<p class=block-text>Trial 57 out of 78</p>","null","","","","","","","","","","","","","","","","","","","","","","","","","",""
"","","","","","image-keyboard-response","259","1592908","0.0-3.0-7.0-1.17","643ab9200b81b8a5313adf17","D2","batch4","pattern_response","2793.2000000001863","stim/no_17_1_w.png","j","pattern_04","j","true","","","","2793.2000000001863","true","31","","","","","","","","","","","","","","","","",""
"","","","","","html-keyboard-response","260","1594225","0.0-3.0-7.0-0.18","643ab9200b81b8a5313adf17","D2","batch4","pattern_show_trial_num","null","<p class=block-text>Trial 58 out of 78</p>","null","","","","","","","","","","","","","","","","","","","","","","","","","",""
"","","","","","image-keyboard-response","261","1595351","0.0-3.0-7.0-1.18","643ab9200b81b8a5313adf17","D2","batch4","pattern_response","1123.3999999994412","stim/yes_28_ver_b1.png","f","pattern_51","f","true","","","","1123.3999999994412","true","32","","","","","","","","","","","","","","","","",""
"","","","","","html-keyboard-response","262","1596665","0.0-3.0-7.0-0.19","643ab9200b81b8a5313adf17","D2","batch4","pattern_show_trial_num","null","<p class=block-text>Trial 59 out of 78</p>","null","","","","","","","","","","","","","","","","","","","","","","","","","",""
"","","","","","image-keyboard-response","263","1599733","0.0-3.0-7.0-1.19","643ab9200b81b8a5313adf17","D2","batch4","pattern_response","3065.2000000001863","stim/no_70_2.png","f","pattern_40","j","false","","","","3065.2000000001863","false","32","","","","","","","","","","","","","","","","",""
"","","","","","html-keyboard-response","264","1601045","0.0-3.0-7.0-0.20","643ab9200b81b8a5313adf17","D2","batch4","pattern_show_trial_num","null","<p class=block-text>Trial 60 out of 78</p>","null","","","","","","","","","","","","","","","","","","","","","","","","","",""
"","","","","","image-keyboard-response","265","1606304","0.0-3.0-7.0-1.20","643ab9200b81b8a5313adf17","D2","batch4","pattern_response","5256","stim/no_42_1_w.png","j","pattern_22","j","true","","","","5256","true","33","","","","","","","","","","","","","","","","",""
"","","","","","html-keyboard-response","266","1607621","0.0-3.0-7.0-0.21","643ab9200b81b8a5313adf17","D2","batch4","pattern_show_trial_num","null","<p class=block-text>Trial 61 out of 78</p>","null","","","","","","","","","","","","","","","","","","","","","","","","","",""
"","","","","","image-keyboard-response","267","1609729","0.0-3.0-7.0-1.21","643ab9200b81b8a5313adf17","D2","batch4","pattern_response","2104.9000000003725","stim/no_44_1.png","f","pattern_24","j","false","","","","2104.9000000003725","false","33","","","","","","","","","","","","","","","","",""
"","","","","","html-keyboard-response","268","1611045","0.0-3.0-7.0-0.22","643ab9200b81b8a5313adf17","D2","batch4","pattern_show_trial_num","null","<p class=block-text>Trial 62 out of 78</p>","null","","","","","","","","","","","","","","","","","","","","","","","","","",""
"","","","","","image-keyboard-response","269","1615249","0.0-3.0-7.0-1.22","643ab9200b81b8a5313adf17","D2","batch4","pattern_response","4201.4000000003725","stim/no_34_1_b.png","f","pattern_16","j","false","","","","4201.4000000003725","false","33","","","","","","","","","","","","","","","","",""
"","","","","","html-keyboard-response","270","1616568","0.0-3.0-7.0-0.23","643ab9200b81b8a5313adf17","D2","batch4","pattern_show_trial_num","null","<p class=block-text>Trial 63 out of 78</p>","null","","","","","","","","","","","","","","","","","","","","","","","","","",""
"","","","","","image-keyboard-response","271","1617613","0.0-3.0-7.0-1.23","643ab9200b81b8a5313adf17","D2","batch4","pattern_response","1043.0999999996275","stim/no_65_1_b.png","f","pattern_38","j","false","","","","1043.0999999996275","false","33","","","","","","","","","","","","","","","","",""
"","","","","","html-keyboard-response","272","1618928","0.0-3.0-7.0-0.24","643ab9200b81b8a5313adf17","D2","batch4","pattern_show_trial_num","null","<p class=block-text>Trial 64 out of 78</p>","null","","","","","","","","","","","","","","","","","","","","","","","","","",""
"","","","","","image-keyboard-response","273","1620519","0.0-3.0-7.0-1.24","643ab9200b81b8a5313adf17","D2","batch4","pattern_response","1588.5","stim/no_20_1_w.png","j","pattern_06","j","true","","","","1588.5","true","34","","","","","","","","","","","","","","","","",""
"","","","","","html-keyboard-response","274","1621837","0.0-3.0-7.0-0.25","643ab9200b81b8a5313adf17","D2","batch4","pattern_show_trial_num","null","<p class=block-text>Trial 65 out of 78</p>","null","","","","","","","","","","","","","","","","","","","","","","","","","",""
"","","","","","image-keyboard-response","275","1626259","0.0-3.0-7.0-1.25","643ab9200b81b8a5313adf17","D2","batch4","pattern_response","4418.799999999814","stim/no_52_1.png","f","pattern_32","j","false","","","","4418.799999999814","false","34","","","","","","","","","","","","","","","","",""
"","","","","","html-keyboard-response","276","1627574","0.0-3.0-7.0-0.26","643ab9200b81b8a5313adf17","D2","batch4","pattern_show_trial_num","null","<p class=block-text>Trial 66 out of 78</p>","null","","","","","","","","","","","","","","","","","","","","","","","","","",""
"","","","","","image-keyboard-response","277","1629087","0.0-3.0-7.0-1.26","643ab9200b81b8a5313adf17","D2","batch4","pattern_response","1510.699999999255","stim/no_13_2_b.png","j","pattern_02","j","true","","","","1510.699999999255","true","35","","","","","","","","","","","","","","","","",""
"","","","","","html-keyboard-response","278","1630404","0.0-3.0-7.0-0.27","643ab9200b81b8a5313adf17","D2","batch4","pattern_show_trial_num","null","<p class=block-text>Trial 67 out of 78</p>","null","","","","","","","","","","","","","","","","","","","","","","","","","",""
"","","","","","image-keyboard-response","279","1632499","0.0-3.0-7.0-1.27","643ab9200b81b8a5313adf17","D2","batch4","pattern_response","2092.699999999255","stim/yes_17_dia_w1.png","j","pattern_45","f","false","","","","2092.699999999255","false","35","","","","","","","","","","","","","","","","",""
"","","","","","html-keyboard-response","280","1633812","0.0-3.0-7.0-0.28","643ab9200b81b8a5313adf17","D2","batch4","pattern_show_trial_num","null","<p class=block-text>Trial 68 out of 78</p>","null","","","","","","","","","","","","","","","","","","","","","","","","","",""
"","","","","","image-keyboard-response","281","1637607","0.0-3.0-7.0-1.28","643ab9200b81b8a5313adf17","D2","batch4","pattern_response","3792.5999999996275","stim/yes_50_dia_w1.png","f","pattern_71","f","true","","","","3792.5999999996275","true","36","","","","","","","","","","","","","","","","",""
"","","","","","html-keyboard-response","282","1638928","0.0-3.0-7.0-0.29","643ab9200b81b8a5313adf17","D2","batch4","pattern_show_trial_num","null","<p class=block-text>Trial 69 out of 78</p>","null","","","","","","","","","","","","","","","","","","","","","","","","","",""
"","","","","","image-keyboard-response","283","1641819","0.0-3.0-7.0-1.29","643ab9200b81b8a5313adf17","D2","batch4","pattern_response","2887.7000000001863","stim/yes_67_hor_b1.png","f","pattern_79","f","true","","","","2887.7000000001863","true","37","","","","","","","","","","","","","","","","",""
"","","","","","html-keyboard-response","284","1643136","0.0-3.0-7.0-0.30","643ab9200b81b8a5313adf17","D2","batch4","pattern_show_trial_num","null","<p class=block-text>Trial 70 out of 78</p>","null","","","","","","","","","","","","","","","","","","","","","","","","","",""
"","","","","","image-keyboard-response","285","1646072","0.0-3.0-7.0-1.30","643ab9200b81b8a5313adf17","D2","batch4","pattern_response","2932.600000000559","stim/yes_45_hor_b2_b.png","f","pattern_67","f","true","","","","2932.600000000559","true","38","","","","","","","","","","","","","","","","",""
"","","","","","html-keyboard-response","286","1647389","0.0-3.0-7.0-0.31","643ab9200b81b8a5313adf17","D2","batch4","pattern_show_trial_num","null","<p class=block-text>Trial 71 out of 78</p>","null","","","","","","","","","","","","","","","","","","","","","","","","","",""
"","","","","","image-keyboard-response","287","1649935","0.0-3.0-7.0-1.31","643ab9200b81b8a5313adf17","D2","batch4","pattern_response","2542.5","stim/yes_40_dia_b1_b.png","f","pattern_63","f","true","","","","2542.5","true","39","","","","","","","","","","","","","","","","",""
"","","","","","html-keyboard-response","288","1651254","0.0-3.0-7.0-0.32","643ab9200b81b8a5313adf17","D2","batch4","pattern_show_trial_num","null","<p class=block-text>Trial 72 out of 78</p>","null","","","","","","","","","","","","","","","","","","","","","","","","","",""
"","","","","","image-keyboard-response","289","1652980","0.0-3.0-7.0-1.32","643ab9200b81b8a5313adf17","D2","batch4","pattern_response","1722.7000000001863","stim/yes_14_hor_b1_w.png","f","pattern_43","f","true","","","","1722.7000000001863","true","40","","","","","","","","","","","","","","","","",""
"","","","","","html-keyboard-response","290","1654296","0.0-3.0-7.0-0.33","643ab9200b81b8a5313adf17","D2","batch4","pattern_show_trial_num","null","<p class=block-text>Trial 73 out of 78</p>","null","","","","","","","","","","","","","","","","","","","","","","","","","",""
"","","","","","image-keyboard-response","291","1657598","0.0-3.0-7.0-1.33","643ab9200b81b8a5313adf17","D2","batch4","pattern_response","3299.5999999996275","stim/no_26_1_w.png","j","pattern_10","j","true","","","","3299.5999999996275","true","41","","","","","","","","","","","","","","","","",""
"","","","","","html-keyboard-response","292","1658910","0.0-3.0-7.0-0.34","643ab9200b81b8a5313adf17","D2","batch4","pattern_show_trial_num","null","<p class=block-text>Trial 74 out of 78</p>","null","","","","","","","","","","","","","","","","","","","","","","","","","",""
"","","","","","image-keyboard-response","293","1662881","0.0-3.0-7.0-1.34","643ab9200b81b8a5313adf17","D2","batch4","pattern_response","3967.9000000003725","stim/yes_43_ver_w1_w.png","f","pattern_65","f","true","","","","3967.9000000003725","true","42","","","","","","","","","","","","","","","","",""
"","","","","","html-keyboard-response","294","1664195","0.0-3.0-7.0-0.35","643ab9200b81b8a5313adf17","D2","batch4","pattern_show_trial_num","null","<p class=block-text>Trial 75 out of 78</p>","null","","","","","","","","","","","","","","","","","","","","","","","","","",""
"","","","","","image-keyboard-response","295","1668052","0.0-3.0-7.0-1.35","643ab9200b81b8a5313adf17","D2","batch4","pattern_response","3854.4000000003725","stim/yes_55_hor_w1_w.png","f","pattern_75","f","true","","","","3854.4000000003725","true","43","","","","","","","","","","","","","","","","",""
"","","","","","html-keyboard-response","296","1669365","0.0-3.0-7.0-0.36","643ab9200b81b8a5313adf17","D2","batch4","pattern_show_trial_num","null","<p class=block-text>Trial 76 out of 78</p>","null","","","","","","","","","","","","","","","","","","","","","","","","","",""
"","","","","","image-keyboard-response","297","1672403","0.0-3.0-7.0-1.36","643ab9200b81b8a5313adf17","D2","batch4","pattern_response","3035.7000000001863","stim/yes_22_ver_w1.png","f","pattern_47","f","true","","","","3035.7000000001863","true","44","","","","","","","","","","","","","","","","",""
"","","","","","html-keyboard-response","298","1673719","0.0-3.0-7.0-0.37","643ab9200b81b8a5313adf17","D2","batch4","pattern_show_trial_num","null","<p class=block-text>Trial 77 out of 78</p>","null","","","","","","","","","","","","","","","","","","","","","","","","","",""
"","","","","","image-keyboard-response","299","1679203","0.0-3.0-7.0-1.37","643ab9200b81b8a5313adf17","D2","batch4","pattern_response","5481.299999999814","stim/no_38_1_b.png","j","pattern_20","j","true","","","","5481.299999999814","true","45","","","","","","","","","","","","","","","","",""
"","","","","","html-keyboard-response","300","1680519","0.0-3.0-7.0-0.38","643ab9200b81b8a5313adf17","D2","batch4","pattern_show_trial_num","null","<p class=block-text>Trial 78 out of 78</p>","null","","","","","","","","","","","","","","","","","","","","","","","","","",""
"","","","","","image-keyboard-response","301","1684833","0.0-3.0-7.0-1.38","643ab9200b81b8a5313adf17","D2","batch4","pattern_response","4310.799999999814","stim/yes_60_ver_b1_b.png","f","pattern_77","f","true","","","","4310.799999999814","true","46","","","","","","","","","","","","","","","","",""
"","","","","","html-button-response","302","1689282","0.0-3.0-8.0","643ab9200b81b8a5313adf17","D2","batch4","","3937.2999999998137","<p class = block-text>This concludes the 4-in-a-row detection game.Thank you for your responses!<br>
            You responded correctly on 59% of the trials.<br>
            When you are ready, press ""Continue"" button to continue </p>","0","","","","","","","","","","","","","","","","","","","","","","","","","",""
"true","","","","","fullscreen","303","1692694","0.0-4.0-0.0","643ab9200b81b8a5313adf17","D2","batch4","","","","","","","","","","","","","","","","","","","","","","","","","","","","","",""
"","","","","","instructions","304","1787938","0.0-4.0-1.0-0.0-0.0","643ab9200b81b8a5313adf17","D2","batch4","tol-instructions","95244.20000000019","","","","","","","","[{""page_index"":0,""viewing_time"":21497.400000000373},{""page_index"":1,""viewing_time"":13286.799999999814},{""page_index"":2,""viewing_time"":13296.799999999814},{""page_index"":3,""viewing_time"":24321.200000000186},{""page_index"":4,""viewing_time"":14599.100000000559},{""page_index"":5,""viewing_time"":7062},{""page_index"":6,""viewing_time"":1180.2999999998137}]","","","","","","","","","","","","","","","","","","","",""
"","","","","","html-button-response","305","1788786","0.0-4.0-1.0-1.0-0.0","643ab9200b81b8a5313adf17","D2","batch4","tol_enter_quiz","846.4000000003725","<p class=block-text> Let's answer a few questions <br>","0","","","","","","","","","","","","","","","","","","","","","","","","","",""
"","","","","","html-button-response","306","1791522","0.0-4.0-1.0-1.0-1.0","643ab9200b81b8a5313adf17","D2","batch4","tol_quiz","2733.4000000003725","<p class = block-text>True or False: You can only move the ball on top of a peg. <br></p>","0","","","true","","","","","","","","","","","","","","","","","","","","","","",""
"","","","","","html-button-response","307","1792371","0.0-4.0-1.0-1.0-2.0","643ab9200b81b8a5313adf17","D2","batch4","tol_quiz_feedback","846.7000000001863","<p class = block-text>Correct! You can only move the ball on top of a peg.</p>","0","","","","","","","","","","","","","","","","","","","","","","","","","",""
"","","","","","html-button-response","308","1795703","0.0-4.0-1.0-1.0-3.0","643ab9200b81b8a5313adf17","D2","batch4","tol_quiz","3330.4000000003725","<p class = block-text>True or False: You should try to match your board with the target board with fewest moves possible. <br></p>","0","","","true","","","","","","","","","","","","","","","","","","","","","","",""
"","","","","","html-button-response","309","1798785","0.0-4.0-1.0-1.0-4.0","643ab9200b81b8a5313adf17","D2","batch4","tol_quiz_feedback","3079.7999999998137","<p class = block-text>Correct! </p>","0","","","","","","","","","","","","","","","","","","","","","","","","","",""
"","","","","","html-button-response","310","1808497","0.0-4.0-2.0","643ab9200b81b8a5313adf17","D2","batch4","","9710.299999999814","<p class=block-text> Now that you've understood the game, let's practice a few easier examples before we start!<br> <br>","0","","","","","","","","","","","","","","","","","","","","","","","","","",""
"","","","","","single-stim-button","311","1815182","0.0-4.0-3.0-0.0","643ab9200b81b8a5313adf17","D2","batch4","tol_practice","6681","","","","","","","","","","","","","","tol_peg_2","6681","6681","0","[[1,2,0],[0,0],[0]]","1","[[1,2,0],[0,0],[3]]","practice","6681","","","","","",""
"","","","","","single-stim-button","312","1816737","0.0-4.0-3.0-1.0","643ab9200b81b8a5313adf17","D2","batch4","tol_practice","1554","","","","","","","","","","","","","","tol_peg_3","1554","1554","0","[[1,2,0],[0,0],[3]]","1","[[1,2,0],[0,0],[3]]","practice","1554","","","","","",""
"","","","","","poldrack-single-stim","313","1817748","0.0-4.0-4.0","643ab9200b81b8a5313adf17","D2","batch4","tol_feedback","-1","","","","","true","","","","","","","","","","1000","1000","500","","","","","","-1","none","true","","0",""
"","","","","","single-stim-button","314","1825476","0.0-4.0-5.0-0.0","643ab9200b81b8a5313adf17","D2","batch4","tol_practice","7726","","","","","","","","","","","","","","tol_peg_1","7726","7726","0","[[1,0,0],[3,0],[0]]","2","[[0,0,0],[3,1],[2]]","practice","7726","","","","","",""
"","","","","","single-stim-button","315","1828356","0.0-4.0-5.0-1.0","643ab9200b81b8a5313adf17","D2","batch4","tol_practice","2878","","","","","","","","","","","","","","tol_peg_3","2878","2878","0","[[1,0,0],[3,0],[2]]","2","[[0,0,0],[3,1],[2]]","practice","2878","","","","","",""
"","","","","","single-stim-button","316","1829861","0.0-4.0-5.1-0.1","643ab9200b81b8a5313adf17","D2","batch4","tol_practice","1504","","","","","","","","","","","","","","tol_peg_2","1504","1504","0","[[1,0,0],[0,0],[2]]","3","[[0,0,0],[3,1],[2]]","practice","1504","","","","","",""
"","","","","","single-stim-button","317","1831778","0.0-4.0-5.1-1.1","643ab9200b81b8a5313adf17","D2","batch4","tol_practice","1915","","","","","","","","","","","","","","tol_peg_1","1915","1915","0","[[1,3,0],[0,0],[2]]","3","[[0,0,0],[3,1],[2]]","practice","1915","","","","","",""
"","","","","","single-stim-button","318","1838961","0.0-4.0-5.2-0.2","643ab9200b81b8a5313adf17","D2","batch4","tol_practice","7182","","","","","","","","","","","","","","tol_peg_1","7182","7182","0","[[1,0,0],[0,0],[2]]","4","[[0,0,0],[3,1],[2]]","practice","7182","","","","","",""
"","","","","","single-stim-button","319","1840434","0.0-4.0-5.2-1.2","643ab9200b81b8a5313adf17","D2","batch4","tol_practice","1471","","","","","","","","","","","","","","tol_peg_1","1471","1471","0","[[1,3,0],[0,0],[2]]","4","[[0,0,0],[3,1],[2]]","practice","1471","","","","","",""
"","","","","","single-stim-button","320","1842941","0.0-4.0-5.3-0.3","643ab9200b81b8a5313adf17","D2","batch4","tol_practice","2506","","","","","","","","","","","","","","tol_peg_1","2506","2506","0","[[1,0,0],[0,0],[2]]","5","[[0,0,0],[3,1],[2]]","practice","2506","","","","","",""
"","","","","","single-stim-button","321","1844284","0.0-4.0-5.3-1.3","643ab9200b81b8a5313adf17","D2","batch4","tol_practice","1342","","","","","","","","","","","","","","tol_peg_2","1342","1342","0","[[1,0,0],[3,0],[2]]","5","[[0,0,0],[3,1],[2]]","practice","1342","","","","","",""
"","","","","","single-stim-button","322","1845328","0.0-4.0-5.4-0.4","643ab9200b81b8a5313adf17","D2","batch4","tol_practice","1042","","","","","","","","","","","","","","tol_peg_1","1042","1042","0","[[0,0,0],[3,0],[2]]","6","[[0,0,0],[3,1],[2]]","practice","1042","","","","","",""
"","","","","","single-stim-button","323","1856905","0.0-4.0-5.4-1.4","643ab9200b81b8a5313adf17","D2","batch4","tol_practice","11575","","","","","","","","","","","","","","tol_peg_1","11575","11575","0","[[1,0,0],[3,0],[2]]","6","[[0,0,0],[3,1],[2]]","practice","11575","","","","","",""
"","","","","","single-stim-button","324","1858361","0.0-4.0-5.5-0.5","643ab9200b81b8a5313adf17","D2","batch4","tol_practice","1455","","","","","","","","","","","","","","tol_peg_3","1455","1455","0","[[1,0,0],[3,0],[0]]","7","[[0,0,0],[3,1],[2]]","practice","1455","","","","","",""
"","","","","","single-stim-button","325","1859607","0.0-4.0-5.5-1.5","643ab9200b81b8a5313adf17","D2","batch4","tol_practice","1244","","","","","","","","","","","","","","tol_peg_1","1244","1244","0","[[1,2,0],[3,0],[0]]","7","[[0,0,0],[3,1],[2]]","practice","1244","","","","","",""
"","","","","","single-stim-button","326","1860537","0.0-4.0-5.6-0.6","643ab9200b81b8a5313adf17","D2","batch4","tol_practice","928","","","","","","","","","","","","","","tol_peg_2","928","928","0","[[1,2,0],[0,0],[0]]","8","[[0,0,0],[3,1],[2]]","practice","928","","","","","",""
"","","","","","single-stim-button","327","1861379","0.0-4.0-5.6-1.6","643ab9200b81b8a5313adf17","D2","batch4","tol_practice","840","","","","","","","","","","","","","","tol_peg_3","840","840","0","[[1,2,0],[0,0],[3]]","8","[[0,0,0],[3,1],[2]]","practice","840","","","","","",""
"","","","","","single-stim-button","328","1863368","0.0-4.0-5.7-0.7","643ab9200b81b8a5313adf17","D2","batch4","tol_practice","1988","","","","","","","","","","","","","","tol_peg_1","1988","1988","0","[[1,0,0],[0,0],[3]]","9","[[0,0,0],[3,1],[2]]","practice","1988","","","","","",""
"","","","","","single-stim-button","329","1865706","0.0-4.0-5.7-1.7","643ab9200b81b8a5313adf17","D2","batch4","tol_practice","2336","","","","","","","","","","","","","","tol_peg_2","2336","2336","0","[[1,0,0],[2,0],[3]]","9","[[0,0,0],[3,1],[2]]","practice","2336","","","","","",""
"","","","","","single-stim-button","330","1866903","0.0-4.0-5.8-0.8","643ab9200b81b8a5313adf17","D2","batch4","tol_practice","1196","","","","","","","","","","","","","","tol_peg_1","1196","1196","0","[[0,0,0],[2,0],[3]]","10","[[0,0,0],[3,1],[2]]","practice","1196","","","","","",""
"","","","","","single-stim-button","331","1867890","0.0-4.0-5.8-1.8","643ab9200b81b8a5313adf17","D2","batch4","tol_practice","985","","","","","","","","","","","","","","tol_peg_2","985","985","0","[[0,0,0],[2,1],[3]]","10","[[0,0,0],[3,1],[2]]","practice","985","","","","","",""
"","","","","","single-stim-button","332","1868893","0.0-4.0-5.9-0.9","643ab9200b81b8a5313adf17","D2","batch4","tol_practice","1002","","","","","","","","","","","","","","tol_peg_3","1002","1002","0","[[0,0,0],[2,1],[0]]","11","[[0,0,0],[3,1],[2]]","practice","1002","","","","","",""
"","","","","","single-stim-button","333","1869831","0.0-4.0-5.9-1.9","643ab9200b81b8a5313adf17","D2","batch4","tol_practice","937","","","","","","","","","","","","","","tol_peg_1","937","937","0","[[3,0,0],[2,1],[0]]","11","[[0,0,0],[3,1],[2]]","practice","937","","","","","",""
"","","","","","single-stim-button","334","1873651","0.0-4.0-5.10-0.10","643ab9200b81b8a5313adf17","D2","batch4","tol_practice","3819","","","","","","","","","","","","","","tol_peg_2","3819","3819","0","[[3,0,0],[2,0],[0]]","12","[[0,0,0],[3,1],[2]]","practice","3819","","","","","",""
"","","","","","single-stim-button","335","1874571","0.0-4.0-5.10-1.10","643ab9200b81b8a5313adf17","D2","batch4","tol_practice","918","","","","","","","","","","","","","","tol_peg_1","918","918","0","[[3,1,0],[2,0],[0]]","12","[[0,0,0],[3,1],[2]]","practice","918","","","","","",""
"","","","","","single-stim-button","336","1875721","0.0-4.0-5.11-0.11","643ab9200b81b8a5313adf17","D2","batch4","tol_practice","1150","","","","","","","","","","","","","","tol_peg_2","1150","1150","0","[[3,1,0],[0,0],[0]]","13","[[0,0,0],[3,1],[2]]","practice","1150","","","","","",""
"","","","","","single-stim-button","337","1876425","0.0-4.0-5.11-1.11","643ab9200b81b8a5313adf17","D2","batch4","tol_practice","702","","","","","","","","","","","","","","tol_peg_3","702","702","0","[[3,1,0],[0,0],[2]]","13","[[0,0,0],[3,1],[2]]","practice","702","","","","","",""
"","","","","","single-stim-button","338","1909680","0.0-4.0-5.12-0.12","643ab9200b81b8a5313adf17","D2","batch4","tol_practice","33255","","","","","","","","","","","","","","tol_peg_1","33255","33255","0","[[3,0,0],[0,0],[2]]","14","[[0,0,0],[3,1],[2]]","practice","33255","","","","","",""
"","","","","","single-stim-button","339","1911114","0.0-4.0-5.12-1.12","643ab9200b81b8a5313adf17","D2","batch4","tol_practice","1432","","","","","","","","","","","","","","tol_peg_1","1432","1432","0","[[3,1,0],[0,0],[2]]","14","[[0,0,0],[3,1],[2]]","practice","1432","","","","","",""
"","","","","","single-stim-button","340","1911945","0.0-4.0-5.13-0.13","643ab9200b81b8a5313adf17","D2","batch4","tol_practice","830","","","","","","","","","","","","","","tol_peg_1","830","830","0","[[3,0,0],[0,0],[2]]","15","[[0,0,0],[3,1],[2]]","practice","830","","","","","",""
"","","","","","single-stim-button","341","1913442","0.0-4.0-5.13-1.13","643ab9200b81b8a5313adf17","D2","batch4","tol_practice","1496","","","","","","","","","","","","","","tol_peg_2","1496","1496","0","[[3,0,0],[1,0],[2]]","15","[[0,0,0],[3,1],[2]]","practice","1496","","","","","",""
"","","","","","single-stim-button","342","1915935","0.0-4.0-5.14-0.14","643ab9200b81b8a5313adf17","D2","batch4","tol_practice","2491","","","","","","","","","","","","","","tol_peg_3","2491","2491","0","[[3,0,0],[1,0],[0]]","16","[[0,0,0],[3,1],[2]]","practice","2491","","","","","",""
"","","","","","single-stim-button","343","1921215","0.0-4.0-5.14-1.14","643ab9200b81b8a5313adf17","D2","batch4","tol_practice","5280","","","","","","","","","","","","","","tol_peg_3","5280","5280","0","[[3,0,0],[1,0],[2]]","16","[[0,0,0],[3,1],[2]]","practice","5280","","","","","",""
"","","","","","single-stim-button","344","1926281","0.0-4.0-5.15-0.15","643ab9200b81b8a5313adf17","D2","batch4","tol_practice","5064","","","","","","","","","","","","","","tol_peg_3","5064","5064","0","[[3,0,0],[1,0],[0]]","17","[[0,0,0],[3,1],[2]]","practice","5064","","","","","",""
"","","","","","single-stim-button","345","1930439","0.0-4.0-5.15-1.15","643ab9200b81b8a5313adf17","D2","batch4","tol_practice","4156","","","","","","","","","","","","","","tol_peg_2","4156","4156","0","[[3,0,0],[1,2],[0]]","17","[[0,0,0],[3,1],[2]]","practice","4156","","","","","",""
