success,timeout,failed_images,failed_audio,failed_video,trial_type,trial_index,time_elapsed,internal_node_id,subject_id,study_id,session_id,view_history,rt,stimulus,response,task,correct,answer,item,fiar_detect_rt,fiar_detect_correct,total_correct_fiar_detect,post_trial_gap,choices,mouse_click,stim_duration,block_duration,timing_post_trial,current_position,tol_num_moves_made,tol_target,tol_problem_id,tol_rt,key_press,possible_responses,tol_correct,preplanning,tol_rt_per_trial,tol_min_moves,spm_correct,spm_rt
TRUE,FALSE,[],[],[],preload,0,1684,0.0-0.0,643bd22e67aeded15060e447,F1,batch6,,,,,,,,,,,,,,,,,,,,,,,,,,,,,,
TRUE,,,,,fullscreen,1,13086,0.0-1.0-0.0,643bd22e67aeded15060e447,F1,batch6,,,,,,,,,,,,,,,,,,,,,,,,,,,,,,
TRUE,,,,,fullscreen,2,19022,0.0-2.0-0.0,643bd22e67aeded15060e447,F1,batch6,,,,,,,,,,,,,,,,,,,,,,,,,,,,,,
,,,,,instructions,3,58578,0.0-2.0-1.0-0.0,643bd22e67aeded15060e447,F1,batch6,"[{""page_index"":0,""viewing_time"":22837.199999999953},{""page_index"":1,""viewing_time"":16717.40000000014}]",39555.20000000000,,,,,,,,,,,,,,,,,,,,,,,,,,,,
,,,,,html-button-response,4,60279,0.0-2.0-1.0-1.0-0.0,643bd22e67aeded15060e447,F1,batch6,,1698,<p class=block-text> Let's answer a few questions <br>,0,pattern_enter_quiz,,,,,,,,,,,,,,,,,,,,,,,,,
,,,,,html-button-response,5,64545,0.0-2.0-1.0-1.0-1.0,643bd22e67aeded15060e447,F1,batch6,,4264,<p class = block-text>True or False: You will have as much time as you want to make each choice. <br></p>,1,pattern_quiz,TRUE,,,,,,,,,,,,,,,,,,,,,,,,
,,,,,html-button-response,6,67645,0.0-2.0-1.0-1.0-2.0,643bd22e67aeded15060e447,F1,batch6,,3096.100000000090,<p class = block-text>Correct! You should make your choice <strong> as fast as you can</strong>.</p>,0,pattern_quiz_feedback,,,,,,,,,,,,,,,,,,,,,,,,,
,,,,,html-button-response,7,73011,0.0-2.0-1.0-1.0-3.0,643bd22e67aeded15060e447,F1,batch6,,5364.399999999910,"<p class = block-text>True or False: You will look for 4 pieces in black or white color connected in a row either horizontally, vertically or diagonally. <br></p>",0,pattern_quiz,TRUE,,,,,,,,,,,,,,,,,,,,,,,,
,,,,,html-button-response,8,75861,0.0-2.0-1.0-1.0-4.0,643bd22e67aeded15060e447,F1,batch6,,2847.3000000000500,<p class = block-text>Correct! </p>,0,pattern_quiz_feedback,,,,,,,,,,,,,,,,,,,,,,,,,
,,,,,html-button-response,9,78411,0.0-2.0-2.0,643bd22e67aeded15060e447,F1,batch6,,2546.9000000001400,"<p class=block-text> Now that you've understood the game, let's do a few practice trials before we start!<br> <br>",0,pattern_enter_practice,,,,,,,,,,,,,,,,,,,,,,,,,
,,,,,image-keyboard-response,10,80676,0.0-2.0-3.0-0.0,643bd22e67aeded15060e447,F1,batch6,,2259.2000000001900,stim/prac_yes_18_hor_w1.png,f,pattern_practice,TRUE,f,,,,,,,,,,,,,,,,,,,,,,,
,,,,,html-keyboard-response,11,81691,0.0-2.0-3.0-1.0,643bd22e67aeded15060e447,F1,batch6,,null,"<p style=""font-size:30px;color:green;"">Correct!</p>",null,pattern_feedback,,,,,,,,,,,,,,,,,,,,,,,,,
,,,,,image-keyboard-response,12,82820,0.0-2.0-3.0-0.1,643bd22e67aeded15060e447,F1,batch6,,1124.8999999999100,stim/prac_yes_16_ver_w1.png,f,pattern_practice,TRUE,f,,,,,,,,,,,,,,,,,,,,,,,
,,,,,html-keyboard-response,13,83825,0.0-2.0-3.0-1.1,643bd22e67aeded15060e447,F1,batch6,,null,"<p style=""font-size:30px;color:green;"">Correct!</p>",null,pattern_feedback,,,,,,,,,,,,,,,,,,,,,,,,,
,,,,,image-keyboard-response,14,89429,0.0-2.0-3.0-0.2,643bd22e67aeded15060e447,F1,batch6,,5601.300000000050,stim/prac_yes_20_dia_b1.png,j,pattern_practice,FALSE,f,,,,,,,,,,,,,,,,,,,,,,,
,,,,,html-keyboard-response,15,90453,0.0-2.0-3.0-1.2,643bd22e67aeded15060e447,F1,batch6,,null,"<p style=""font-size:30px;color:red;"">Wrong.</p>",null,pattern_feedback,,,,,,,,,,,,,,,,,,,,,,,,,
,,,,,image-keyboard-response,16,92533,0.0-2.0-3.0-0.3,643bd22e67aeded15060e447,F1,batch6,,2075.600000000090,stim/prac_no_18_1.png,j,pattern_practice,TRUE,j,,,,,,,,,,,,,,,,,,,,,,,
,,,,,html-keyboard-response,17,93546,0.0-2.0-3.0-1.3,643bd22e67aeded15060e447,F1,batch6,,null,"<p style=""font-size:30px;color:green;"">Correct!</p>",null,pattern_feedback,,,,,,,,,,,,,,,,,,,,,,,,,
,,,,,image-keyboard-response,18,96280,0.0-2.0-3.0-0.4,643bd22e67aeded15060e447,F1,batch6,,2731.1999999999500,stim/prac_no_16_1.png,j,pattern_practice,TRUE,j,,,,,,,,,,,,,,,,,,,,,,,
,,,,,html-keyboard-response,19,97291,0.0-2.0-3.0-1.4,643bd22e67aeded15060e447,F1,batch6,,null,"<p style=""font-size:30px;color:green;"">Correct!</p>",null,pattern_feedback,,,,,,,,,,,,,,,,,,,,,,,,,
,,,,,html-button-response,20,108245,0.0-2.0-4.0,643bd22e67aeded15060e447,F1,batch6,,10950.90000000010,"<p class=block-text> Good job! You are done with practice trials!<br>
        You responded correctly on 80% of the trials.<br>
        Press the button below to start official trials. Now you won't see any feedback about your response</p>",0,pattern_enter_official_trials,,,,,,,,,,,,,,,,,,,,,,,,,
,,,,,html-keyboard-response,21,109053,0.0-2.0-5.0-0.0,643bd22e67aeded15060e447,F1,batch6,,null,<p class=block-text>Trial 1 out of 78</p>,null,pattern_show_trial_num,,,,,,,,,,,,,,,,,,,,,,,,,
,,,,,image-keyboard-response,22,111030,0.0-2.0-5.0-1.0,643bd22e67aeded15060e447,F1,batch6,,1973.5999999998600,stim/yes_26_dia_w2_w.png,j,pattern_response,FALSE,f,pattern_50,1973.5999999998600,FALSE,0,,,,,,,,,,,,,,,,,,,
,,,,,html-keyboard-response,23,112349,0.0-2.0-5.0-0.1,643bd22e67aeded15060e447,F1,batch6,,null,<p class=block-text>Trial 2 out of 78</p>,null,pattern_show_trial_num,,,,,,,,,,,,,,,,,,,,,,,,,
,,,,,image-keyboard-response,24,117229,0.0-2.0-5.0-1.1,643bd22e67aeded15060e447,F1,batch6,,4877,stim/yes_70_ver_b1.png,j,pattern_response,FALSE,f,pattern_80,4877,FALSE,0,,,,,,,,,,,,,,,,,,,
,,,,,html-keyboard-response,25,118549,0.0-2.0-5.0-0.2,643bd22e67aeded15060e447,F1,batch6,,null,<p class=block-text>Trial 3 out of 78</p>,null,pattern_show_trial_num,,,,,,,,,,,,,,,,,,,,,,,,,
,,,,,image-keyboard-response,26,122769,0.0-2.0-5.0-1.2,643bd22e67aeded15060e447,F1,batch6,,4216.600000000090,stim/no_25_1_b.png,j,pattern_response,TRUE,j,pattern_09,4216.600000000090,TRUE,1,,,,,,,,,,,,,,,,,,,
,,,,,html-keyboard-response,27,124084,0.0-2.0-5.0-0.3,643bd22e67aeded15060e447,F1,batch6,,null,<p class=block-text>Trial 4 out of 78</p>,null,pattern_show_trial_num,,,,,,,,,,,,,,,,,,,,,,,,,
,,,,,image-keyboard-response,28,125497,0.0-2.0-5.0-1.3,643bd22e67aeded15060e447,F1,batch6,,1408.1999999999500,stim/yes_23_ver_b1.png,j,pattern_response,FALSE,f,pattern_48,1408.1999999999500,FALSE,2,,,,,,,,,,,,,,,,,,,
,,,,,html-keyboard-response,29,126812,0.0-2.0-5.0-0.4,643bd22e67aeded15060e447,F1,batch6,,null,<p class=block-text>Trial 5 out of 78</p>,null,pattern_show_trial_num,,,,,,,,,,,,,,,,,,,,,,,,,
,,,,,image-keyboard-response,30,127791,0.0-2.0-5.0-1.4,643bd22e67aeded15060e447,F1,batch6,,975.1000000000930,stim/yes_49_hor_w1_b.png,f,pattern_response,TRUE,f,pattern_70,975.1000000000930,TRUE,3,,,,,,,,,,,,,,,,,,,
,,,,,html-keyboard-response,31,129108,0.0-2.0-5.0-0.5,643bd22e67aeded15060e447,F1,batch6,,null,<p class=block-text>Trial 6 out of 78</p>,null,pattern_show_trial_num,,,,,,,,,,,,,,,,,,,,,,,,,
,,,,,image-keyboard-response,32,132082,0.0-2.0-5.0-1.5,643bd22e67aeded15060e447,F1,batch6,,2970.399999999910,stim/no_33_1_b.png,j,pattern_response,TRUE,j,pattern_15,2970.399999999910,TRUE,4,,,,,,,,,,,,,,,,,,,
,,,,,html-keyboard-response,33,133396,0.0-2.0-5.0-0.6,643bd22e67aeded15060e447,F1,batch6,,null,<p class=block-text>Trial 7 out of 78</p>,null,pattern_show_trial_num,,,,,,,,,,,,,,,,,,,,,,,,,
,,,,,image-keyboard-response,34,138892,0.0-2.0-5.0-1.6,643bd22e67aeded15060e447,F1,batch6,,5492.5,stim/no_36_1_b.png,j,pattern_response,TRUE,j,pattern_17,5492.5,TRUE,5,,,,,,,,,,,,,,,,,,,
,,,,,html-keyboard-response,35,140212,0.0-2.0-5.0-0.7,643bd22e67aeded15060e447,F1,batch6,,null,<p class=block-text>Trial 8 out of 78</p>,null,pattern_show_trial_num,,,,,,,,,,,,,,,,,,,,,,,,,
,,,,,image-keyboard-response,36,141273,0.0-2.0-5.0-1.7,643bd22e67aeded15060e447,F1,batch6,,1056.8999999999100,stim/yes_12_hor_w1_w.png,f,pattern_response,TRUE,f,pattern_42,1056.8999999999100,TRUE,6,,,,,,,,,,,,,,,,,,,
,,,,,html-keyboard-response,37,142584,0.0-2.0-5.0-0.8,643bd22e67aeded15060e447,F1,batch6,,null,<p class=block-text>Trial 9 out of 78</p>,null,pattern_show_trial_num,,,,,,,,,,,,,,,,,,,,,,,,,
,,,,,image-keyboard-response,38,143722,0.0-2.0-5.0-1.8,643bd22e67aeded15060e447,F1,batch6,,1134,stim/yes_36_ver_w1_w.png,j,pattern_response,FALSE,f,pattern_58,1134,FALSE,7,,,,,,,,,,,,,,,,,,,
,,,,,html-keyboard-response,39,145033,0.0-2.0-5.0-0.9,643bd22e67aeded15060e447,F1,batch6,,null,<p class=block-text>Trial 10 out of 78</p>,null,pattern_show_trial_num,,,,,,,,,,,,,,,,,,,,,,,,,
,,,,,image-keyboard-response,40,150004,0.0-2.0-5.0-1.9,643bd22e67aeded15060e447,F1,batch6,,4968.100000000090,stim/no_51_1.png,j,pattern_response,TRUE,j,pattern_31,4968.100000000090,TRUE,8,,,,,,,,,,,,,,,,,,,
,,,,,html-keyboard-response,41,151320,0.0-2.0-5.0-0.10,643bd22e67aeded15060e447,F1,batch6,,null,<p class=block-text>Trial 11 out of 78</p>,null,pattern_show_trial_num,,,,,,,,,,,,,,,,,,,,,,,,,
,,,,,image-keyboard-response,42,155329,0.0-2.0-5.0-1.10,643bd22e67aeded15060e447,F1,batch6,,4005.4000000001400,stim/no_49_2_b.png,j,pattern_response,TRUE,j,pattern_29,4005.4000000001400,TRUE,9,,,,,,,,,,,,,,,,,,,
,,,,,html-keyboard-response,43,156644,0.0-2.0-5.0-0.11,643bd22e67aeded15060e447,F1,batch6,,null,<p class=block-text>Trial 12 out of 78</p>,null,pattern_show_trial_num,,,,,,,,,,,,,,,,,,,,,,,,,
,,,,,image-keyboard-response,44,157594,0.0-2.0-5.0-1.11,643bd22e67aeded15060e447,F1,batch6,,946.5,stim/yes_39_hor_w1_w.png,f,pattern_response,TRUE,f,pattern_62,946.5,TRUE,10,,,,,,,,,,,,,,,,,,,
,,,,,html-keyboard-response,45,158908,0.0-2.0-5.0-0.12,643bd22e67aeded15060e447,F1,batch6,,null,<p class=block-text>Trial 13 out of 78</p>,null,pattern_show_trial_num,,,,,,,,,,,,,,,,,,,,,,,,,
,,,,,image-keyboard-response,46,161387,0.0-2.0-5.0-1.12,643bd22e67aeded15060e447,F1,batch6,,2476.2999999998100,stim/yes_53_ver_b1_b.png,f,pattern_response,TRUE,f,pattern_74,2476.2999999998100,TRUE,11,,,,,,,,,,,,,,,,,,,
,,,,,html-keyboard-response,47,162708,0.0-2.0-5.0-0.13,643bd22e67aeded15060e447,F1,batch6,,null,<p class=block-text>Trial 14 out of 78</p>,null,pattern_show_trial_num,,,,,,,,,,,,,,,,,,,,,,,,,
,,,,,image-keyboard-response,48,163632,0.0-2.0-5.0-1.13,643bd22e67aeded15060e447,F1,batch6,,920.1000000000930,stim/yes_37_hor_w1_w.png,j,pattern_response,FALSE,f,pattern_60,920.1000000000930,FALSE,12,,,,,,,,,,,,,,,,,,,
,,,,,html-keyboard-response,49,164944,0.0-2.0-5.0-0.14,643bd22e67aeded15060e447,F1,batch6,,null,<p class=block-text>Trial 15 out of 78</p>,null,pattern_show_trial_num,,,,,,,,,,,,,,,,,,,,,,,,,
,,,,,image-keyboard-response,50,167932,0.0-2.0-5.0-1.14,643bd22e67aeded15060e447,F1,batch6,,2985.600000000090,stim/yes_46_ver_b1_b.png,f,pattern_response,TRUE,f,pattern_68,2985.600000000090,TRUE,13,,,,,,,,,,,,,,,,,,,
,,,,,html-keyboard-response,51,169252,0.0-2.0-5.0-0.15,643bd22e67aeded15060e447,F1,batch6,,null,<p class=block-text>Trial 16 out of 78</p>,null,pattern_show_trial_num,,,,,,,,,,,,,,,,,,,,,,,,,
,,,,,image-keyboard-response,52,173769,0.0-2.0-5.0-1.15,643bd22e67aeded15060e447,F1,batch6,,4513.59999999986,stim/no_58_1_w.png,j,pattern_response,TRUE,j,pattern_35,4513.59999999986,TRUE,14,,,,,,,,,,,,,,,,,,,
,,,,,html-keyboard-response,53,175084,0.0-2.0-5.0-0.16,643bd22e67aeded15060e447,F1,batch6,,null,<p class=block-text>Trial 17 out of 78</p>,null,pattern_show_trial_num,,,,,,,,,,,,,,,,,,,,,,,,,
,,,,,image-keyboard-response,54,177315,0.0-2.0-5.0-1.16,643bd22e67aeded15060e447,F1,batch6,,2227.3000000000500,stim/no_37_2_w.png,j,pattern_response,TRUE,j,pattern_19,2227.3000000000500,TRUE,15,,,,,,,,,,,,,,,,,,,
,,,,,html-keyboard-response,55,178628,0.0-2.0-5.0-0.17,643bd22e67aeded15060e447,F1,batch6,,null,<p class=block-text>Trial 18 out of 78</p>,null,pattern_show_trial_num,,,,,,,,,,,,,,,,,,,,,,,,,
,,,,,image-keyboard-response,56,180110,0.0-2.0-5.0-1.17,643bd22e67aeded15060e447,F1,batch6,,1479.8000000000500,stim/no_22_1_b.png,j,pattern_response,TRUE,j,pattern_07,1479.8000000000500,TRUE,16,,,,,,,,,,,,,,,,,,,
,,,,,html-keyboard-response,57,181427,0.0-2.0-5.0-0.18,643bd22e67aeded15060e447,F1,batch6,,null,<p class=block-text>Trial 19 out of 78</p>,null,pattern_show_trial_num,,,,,,,,,,,,,,,,,,,,,,,,,
,,,,,image-keyboard-response,58,186688,0.0-2.0-5.0-1.18,643bd22e67aeded15060e447,F1,batch6,,5258.300000000050,stim/yes_44_ver_w1_w.png,j,pattern_response,FALSE,f,pattern_66,5258.300000000050,FALSE,17,,,,,,,,,,,,,,,,,,,
,,,,,html-keyboard-response,59,188003,0.0-2.0-5.0-0.19,643bd22e67aeded15060e447,F1,batch6,,null,<p class=block-text>Trial 20 out of 78</p>,null,pattern_show_trial_num,,,,,,,,,,,,,,,,,,,,,,,,,
,,,,,image-keyboard-response,60,191116,0.0-2.0-5.0-1.19,643bd22e67aeded15060e447,F1,batch6,,3111.100000000090,stim/no_30_1_b.png,j,pattern_response,TRUE,j,pattern_13,3111.100000000090,TRUE,18,,,,,,,,,,,,,,,,,,,
,,,,,html-keyboard-response,61,192435,0.0-2.0-5.0-0.20,643bd22e67aeded15060e447,F1,batch6,,null,<p class=block-text>Trial 21 out of 78</p>,null,pattern_show_trial_num,,,,,,,,,,,,,,,,,,,,,,,,,
,,,,,image-keyboard-response,62,198295,0.0-2.0-5.0-1.20,643bd22e67aeded15060e447,F1,batch6,,5855.59999999986,stim/yes_58_dia_w1_w.png,j,pattern_response,FALSE,f,pattern_76,5855.59999999986,FALSE,18,,,,,,,,,,,,,,,,,,,
,,,,,html-keyboard-response,63,199611,0.0-2.0-5.0-0.21,643bd22e67aeded15060e447,F1,batch6,,null,<p class=block-text>Trial 22 out of 78</p>,null,pattern_show_trial_num,,,,,,,,,,,,,,,,,,,,,,,,,
,,,,,image-keyboard-response,64,207444,0.0-2.0-5.0-1.21,643bd22e67aeded15060e447,F1,batch6,,7829.5,stim/no_45_1_w.png,j,pattern_response,TRUE,j,pattern_25,7829.5,TRUE,19,,,,,,,,,,,,,,,,,,,
,,,,,html-keyboard-response,65,208763,0.0-2.0-5.0-0.22,643bd22e67aeded15060e447,F1,batch6,,null,<p class=block-text>Trial 23 out of 78</p>,null,pattern_show_trial_num,,,,,,,,,,,,,,,,,,,,,,,,,
,,,,,image-keyboard-response,66,215396,0.0-2.0-5.0-1.22,643bd22e67aeded15060e447,F1,batch6,,6629.300000000050,stim/yes_63_dia_b1.png,j,pattern_response,FALSE,f,pattern_78,6629.300000000050,FALSE,19,,,,,,,,,,,,,,,,,,,
,,,,,html-keyboard-response,67,216711,0.0-2.0-5.0-0.23,643bd22e67aeded15060e447,F1,batch6,,null,<p class=block-text>Trial 24 out of 78</p>,null,pattern_show_trial_num,,,,,,,,,,,,,,,,,,,,,,,,,
,,,,,image-keyboard-response,68,221107,0.0-2.0-5.0-1.23,643bd22e67aeded15060e447,F1,batch6,,4391.899999999910,stim/no_39_1_w.png,f,pattern_response,FALSE,j,pattern_21,4391.899999999910,FALSE,20,,,,,,,,,,,,,,,,,,,
,,,,,html-keyboard-response,69,222427,0.0-2.0-5.0-0.24,643bd22e67aeded15060e447,F1,batch6,,null,<p class=block-text>Trial 25 out of 78</p>,null,pattern_show_trial_num,,,,,,,,,,,,,,,,,,,,,,,,,
,,,,,image-keyboard-response,70,227102,0.0-2.0-5.0-1.24,643bd22e67aeded15060e447,F1,batch6,,4671.90000000014,stim/no_43_2_b.png,j,pattern_response,TRUE,j,pattern_23,4671.90000000014,TRUE,21,,,,,,,,,,,,,,,,,,,
,,,,,html-keyboard-response,71,228419,0.0-2.0-5.0-0.25,643bd22e67aeded15060e447,F1,batch6,,null,<p class=block-text>Trial 26 out of 78</p>,null,pattern_show_trial_num,,,,,,,,,,,,,,,,,,,,,,,,,
,,,,,image-keyboard-response,72,235329,0.0-2.0-5.0-1.25,643bd22e67aeded15060e447,F1,batch6,,6906.90000000014,stim/yes_51_dia_b1.png,j,pattern_response,FALSE,f,pattern_72,6906.90000000014,FALSE,21,,,,,,,,,,,,,,,,,,,
,,,,,html-keyboard-response,73,236643,0.0-2.0-5.0-0.26,643bd22e67aeded15060e447,F1,batch6,,null,<p class=block-text>Trial 27 out of 78</p>,null,pattern_show_trial_num,,,,,,,,,,,,,,,,,,,,,,,,,
,,,,,image-keyboard-response,74,237744,0.0-2.0-5.0-1.26,643bd22e67aeded15060e447,F1,batch6,,1097.5,stim/no_12_1.png,j,pattern_response,TRUE,j,pattern_01,1097.5,TRUE,22,,,,,,,,,,,,,,,,,,,
,,,,,html-keyboard-response,75,239058,0.0-2.0-5.0-0.27,643bd22e67aeded15060e447,F1,batch6,,null,<p class=block-text>Trial 28 out of 78</p>,null,pattern_show_trial_num,,,,,,,,,,,,,,,,,,,,,,,,,
,,,,,image-keyboard-response,76,248588,0.0-2.0-5.0-1.27,643bd22e67aeded15060e447,F1,batch6,,9524.800000000050,stim/no_53_1_b.png,j,pattern_response,TRUE,j,pattern_33,9524.800000000050,TRUE,23,,,,,,,,,,,,,,,,,,,
,,,,,html-keyboard-response,77,249906,0.0-2.0-5.0-0.28,643bd22e67aeded15060e447,F1,batch6,,null,<p class=block-text>Trial 29 out of 78</p>,null,pattern_show_trial_num,,,,,,,,,,,,,,,,,,,,,,,,,
,,,,,image-keyboard-response,78,250889,0.0-2.0-5.0-1.28,643bd22e67aeded15060e447,F1,batch6,,978.8999999999070,stim/no_18_1_b.png,f,pattern_response,FALSE,j,pattern_05,978.8999999999070,FALSE,24,,,,,,,,,,,,,,,,,,,
,,,,,html-keyboard-response,79,252202,0.0-2.0-5.0-0.29,643bd22e67aeded15060e447,F1,batch6,,null,<p class=block-text>Trial 30 out of 78</p>,null,pattern_show_trial_num,,,,,,,,,,,,,,,,,,,,,,,,,
,,,,,image-keyboard-response,80,259070,0.0-2.0-5.0-1.29,643bd22e67aeded15060e447,F1,batch6,,6864.899999999910,stim/no_47_1_b.png,j,pattern_response,TRUE,j,pattern_27,6864.899999999910,TRUE,25,,,,,,,,,,,,,,,,,,,
,,,,,html-keyboard-response,81,260386,0.0-2.0-5.0-0.30,643bd22e67aeded15060e447,F1,batch6,,null,<p class=block-text>Trial 31 out of 78</p>,null,pattern_show_trial_num,,,,,,,,,,,,,,,,,,,,,,,,,
,,,,,image-keyboard-response,82,262392,0.0-2.0-5.0-1.30,643bd22e67aeded15060e447,F1,batch6,,2002.0999999998600,stim/no_15_1_w.png,j,pattern_response,TRUE,j,pattern_03,2002.0999999998600,TRUE,26,,,,,,,,,,,,,,,,,,,
,,,,,html-keyboard-response,83,263706,0.0-2.0-5.0-0.31,643bd22e67aeded15060e447,F1,batch6,,null,<p class=block-text>Trial 32 out of 78</p>,null,pattern_show_trial_num,,,,,,,,,,,,,,,,,,,,,,,,,
,,,,,image-keyboard-response,84,265121,0.0-2.0-5.0-1.31,643bd22e67aeded15060e447,F1,batch6,,1411.8000000000500,stim/yes_30_ver_b1_b.png,f,pattern_response,TRUE,f,pattern_54,1411.8000000000500,TRUE,27,,,,,,,,,,,,,,,,,,,
,,,,,html-keyboard-response,85,266442,0.0-2.0-5.0-0.32,643bd22e67aeded15060e447,F1,batch6,,null,<p class=block-text>Trial 33 out of 78</p>,null,pattern_show_trial_num,,,,,,,,,,,,,,,,,,,,,,,,,
,,,,,image-keyboard-response,86,267205,0.0-2.0-5.0-1.32,643bd22e67aeded15060e447,F1,batch6,,759.5999999998600,stim/yes_17_ver_b1_b.png,f,pattern_response,TRUE,f,pattern_46,759.5999999998600,TRUE,28,,,,,,,,,,,,,,,,,,,
,,,,,html-keyboard-response,87,268519,0.0-2.0-5.0-0.33,643bd22e67aeded15060e447,F1,batch6,,null,<p class=block-text>Trial 34 out of 78</p>,null,pattern_show_trial_num,,,,,,,,,,,,,,,,,,,,,,,,,
,,,,,image-keyboard-response,88,273840,0.0-2.0-5.0-1.33,643bd22e67aeded15060e447,F1,batch6,,5318.5,stim/yes_42_dia_w1_w.png,j,pattern_response,FALSE,f,pattern_64,5318.5,FALSE,28,,,,,,,,,,,,,,,,,,,
,,,,,html-keyboard-response,89,275154,0.0-2.0-5.0-0.34,643bd22e67aeded15060e447,F1,batch6,,null,<p class=block-text>Trial 35 out of 78</p>,null,pattern_show_trial_num,,,,,,,,,,,,,,,,,,,,,,,,,
,,,,,image-keyboard-response,90,279106,0.0-2.0-5.0-1.34,643bd22e67aeded15060e447,F1,batch6,,3948.7999999998100,stim/no_28_2.png,j,pattern_response,TRUE,j,pattern_11,3948.7999999998100,TRUE,29,,,,,,,,,,,,,,,,,,,
,,,,,html-keyboard-response,91,280426,0.0-2.0-5.0-0.35,643bd22e67aeded15060e447,F1,batch6,,null,<p class=block-text>Trial 36 out of 78</p>,null,pattern_show_trial_num,,,,,,,,,,,,,,,,,,,,,,,,,
,,,,,image-keyboard-response,92,281875,0.0-2.0-5.0-1.35,643bd22e67aeded15060e447,F1,batch6,,1445.3000000000500,stim/yes_33_dia_w1_w.png,f,pattern_response,TRUE,f,pattern_56,1445.3000000000500,TRUE,30,,,,,,,,,,,,,,,,,,,
,,,,,html-keyboard-response,93,283194,0.0-2.0-5.0-0.36,643bd22e67aeded15060e447,F1,batch6,,null,<p class=block-text>Trial 37 out of 78</p>,null,pattern_show_trial_num,,,,,,,,,,,,,,,,,,,,,,,,,
,,,,,image-keyboard-response,94,284268,0.0-2.0-5.0-1.36,643bd22e67aeded15060e447,F1,batch6,,1070.6999999999500,stim/yes_29_hor_b1_b.png,f,pattern_response,TRUE,f,pattern_52,1070.6999999999500,TRUE,31,,,,,,,,,,,,,,,,,,,
,,,,,html-keyboard-response,95,285586,0.0-2.0-5.0-0.37,643bd22e67aeded15060e447,F1,batch6,,null,<p class=block-text>Trial 38 out of 78</p>,null,pattern_show_trial_num,,,,,,,,,,,,,,,,,,,,,,,,,
,,,,,image-keyboard-response,96,292914,0.0-2.0-5.0-1.37,643bd22e67aeded15060e447,F1,batch6,,7324.09999999986,stim/no_67_1.png,j,pattern_response,TRUE,j,pattern_39,7324.09999999986,TRUE,32,,,,,,,,,,,,,,,,,,,
,,,,,html-keyboard-response,97,294234,0.0-2.0-5.0-0.38,643bd22e67aeded15060e447,F1,batch6,,null,<p class=block-text>Trial 39 out of 78</p>,null,pattern_show_trial_num,,,,,,,,,,,,,,,,,,,,,,,,,
,,,,,image-keyboard-response,98,295819,0.0-2.0-5.0-1.38,643bd22e67aeded15060e447,F1,batch6,,1581.4000000001400,stim/yes_15_dia_b1u_b.png,j,pattern_response,FALSE,f,pattern_44,1581.4000000001400,FALSE,33,,,,,,,,,,,,,,,,,,,
,,,,,image-keyboard-response,99,299173,0.0-2.0-6.0,643bd22e67aeded15060e447,F1,batch6,,2845.5,stim/empty_board.png,j,attention_check,TRUE,j,,,,,500,"[""f"",""j""]",,,,,,,,,,,,,,,,,
,,,,,html-keyboard-response,100,299978,0.0-2.0-7.0-0.0,643bd22e67aeded15060e447,F1,batch6,,null,<p class=block-text>Trial 40 out of 78</p>,null,pattern_show_trial_num,,,,,,,,,,,,,,,,,,,,,,,,,
,,,,,image-keyboard-response,101,311689,0.0-2.0-7.0-1.0,643bd22e67aeded15060e447,F1,batch6,,11708.399999999900,stim/yes_50_dia_w1.png,j,pattern_response,FALSE,f,pattern_71,11708.399999999900,FALSE,33,,,,,,,,,,,,,,,,,,,
,,,,,html-keyboard-response,102,313009,0.0-2.0-7.0-0.1,643bd22e67aeded15060e447,F1,batch6,,null,<p class=block-text>Trial 41 out of 78</p>,null,pattern_show_trial_num,,,,,,,,,,,,,,,,,,,,,,,,,
,,,,,image-keyboard-response,103,316422,0.0-2.0-7.0-1.1,643bd22e67aeded15060e447,F1,batch6,,3408.600000000090,stim/yes_40_dia_b1_b.png,j,pattern_response,FALSE,f,pattern_63,3408.600000000090,FALSE,33,,,,,,,,,,,,,,,,,,,
,,,,,html-keyboard-response,104,317735,0.0-2.0-7.0-0.2,643bd22e67aeded15060e447,F1,batch6,,null,<p class=block-text>Trial 42 out of 78</p>,null,pattern_show_trial_num,,,,,,,,,,,,,,,,,,,,,,,,,
,,,,,image-keyboard-response,105,318779,0.0-2.0-7.0-1.2,643bd22e67aeded15060e447,F1,batch6,,1041.1999999999500,stim/yes_17_dia_w1.png,f,pattern_response,TRUE,f,pattern_45,1041.1999999999500,TRUE,34,,,,,,,,,,,,,,,,,,,
,,,,,html-keyboard-response,106,320097,0.0-2.0-7.0-0.3,643bd22e67aeded15060e447,F1,batch6,,null,<p class=block-text>Trial 43 out of 78</p>,null,pattern_show_trial_num,,,,,,,,,,,,,,,,,,,,,,,,,
,,,,,image-keyboard-response,107,325457,0.0-2.0-7.0-1.3,643bd22e67aeded15060e447,F1,batch6,,5357.40000000014,stim/no_52_1.png,j,pattern_response,TRUE,j,pattern_32,5357.40000000014,TRUE,35,,,,,,,,,,,,,,,,,,,
,,,,,html-keyboard-response,108,326772,0.0-2.0-7.0-0.4,643bd22e67aeded15060e447,F1,batch6,,null,<p class=block-text>Trial 44 out of 78</p>,null,pattern_show_trial_num,,,,,,,,,,,,,,,,,,,,,,,,,
,,,,,image-keyboard-response,109,329893,0.0-2.0-7.0-1.4,643bd22e67aeded15060e447,F1,batch6,,3116.8000000000500,stim/no_26_1_w.png,f,pattern_response,TRUE,j,pattern_10,3116.8000000000500,FALSE,36,,,,,,,,,,,,,,,,,,,
,,,,,html-keyboard-response,110,331209,0.0-2.0-7.0-0.5,643bd22e67aeded15060e447,F1,batch6,,null,<p class=block-text>Trial 45 out of 78</p>,null,pattern_show_trial_num,,,,,,,,,,,,,,,,,,,,,,,,,
,,,,,image-keyboard-response,111,334714,0.0-2.0-7.0-1.5,643bd22e67aeded15060e447,F1,batch6,,3501.2000000001900,stim/no_29_1_b.png,j,pattern_response,TRUE,j,pattern_12,3501.2000000001900,TRUE,37,,,,,,,,,,,,,,,,,,,
,,,,,html-keyboard-response,112,336025,0.0-2.0-7.0-0.6,643bd22e67aeded15060e447,F1,batch6,,null,<p class=block-text>Trial 46 out of 78</p>,null,pattern_show_trial_num,,,,,,,,,,,,,,,,,,,,,,,,,
,,,,,image-keyboard-response,113,337259,0.0-2.0-7.0-1.6,643bd22e67aeded15060e447,F1,batch6,,1230.1999999999500,stim/yes_29_ver_w1.png,f,pattern_response,TRUE,f,pattern_53,1230.1999999999500,TRUE,38,,,,,,,,,,,,,,,,,,,
,,,,,html-keyboard-response,114,338577,0.0-2.0-7.0-0.7,643bd22e67aeded15060e447,F1,batch6,,null,<p class=block-text>Trial 47 out of 78</p>,null,pattern_show_trial_num,,,,,,,,,,,,,,,,,,,,,,,,,
,,,,,image-keyboard-response,115,339700,0.0-2.0-7.0-1.7,643bd22e67aeded15060e447,F1,batch6,,1120,stim/no_13_2_b.png,j,pattern_response,TRUE,j,pattern_02,1120,TRUE,39,,,,,,,,,,,,,,,,,,,
,,,,,html-keyboard-response,116,341017,0.0-2.0-7.0-0.8,643bd22e67aeded15060e447,F1,batch6,,null,<p class=block-text>Trial 48 out of 78</p>,null,pattern_show_trial_num,,,,,,,,,,,,,,,,,,,,,,,,,
,,,,,image-keyboard-response,117,341882,0.0-2.0-7.0-1.8,643bd22e67aeded15060e447,F1,batch6,,862.3000000000470,stim/yes_14_hor_b1_w.png,j,pattern_response,FALSE,f,pattern_43,862.3000000000470,FALSE,40,,,,,,,,,,,,,,,,,,,
,,,,,html-keyboard-response,118,343201,0.0-2.0-7.0-0.9,643bd22e67aeded15060e447,F1,batch6,,null,<p class=block-text>Trial 49 out of 78</p>,null,pattern_show_trial_num,,,,,,,,,,,,,,,,,,,,,,,,,
,,,,,image-keyboard-response,119,348278,0.0-2.0-7.0-1.9,643bd22e67aeded15060e447,F1,batch6,,5074.5,stim/no_36_2_w.png,j,pattern_response,TRUE,j,pattern_18,5074.5,TRUE,41,,,,,,,,,,,,,,,,,,,
,,,,,html-keyboard-response,120,349590,0.0-2.0-7.0-0.10,643bd22e67aeded15060e447,F1,batch6,,null,<p class=block-text>Trial 50 out of 78</p>,null,pattern_show_trial_num,,,,,,,,,,,,,,,,,,,,,,,,,
,,,,,image-keyboard-response,121,356197,0.0-2.0-7.0-1.10,643bd22e67aeded15060e447,F1,batch6,,6603.700000000190,stim/no_46_1_b.png,j,pattern_response,TRUE,j,pattern_26,6603.700000000190,TRUE,42,,,,,,,,,,,,,,,,,,,
,,,,,html-keyboard-response,122,357513,0.0-2.0-7.0-0.11,643bd22e67aeded15060e447,F1,batch6,,null,<p class=block-text>Trial 51 out of 78</p>,null,pattern_show_trial_num,,,,,,,,,,,,,,,,,,,,,,,,,
,,,,,image-keyboard-response,123,359029,0.0-2.0-7.0-1.11,643bd22e67aeded15060e447,F1,batch6,,1512.7999999998100,stim/yes_45_hor_b2_b.png,f,pattern_response,TRUE,f,pattern_67,1512.7999999998100,TRUE,43,,,,,,,,,,,,,,,,,,,
,,,,,html-keyboard-response,124,360345,0.0-2.0-7.0-0.12,643bd22e67aeded15060e447,F1,batch6,,null,<p class=block-text>Trial 52 out of 78</p>,null,pattern_show_trial_num,,,,,,,,,,,,,,,,,,,,,,,,,
,,,,,image-keyboard-response,125,362663,0.0-2.0-7.0-1.12,643bd22e67aeded15060e447,F1,batch6,,2315,stim/no_23_1.png,j,pattern_response,TRUE,j,pattern_08,2315,TRUE,44,,,,,,,,,,,,,,,,,,,
,,,,,html-keyboard-response,126,363976,0.0-2.0-7.0-0.13,643bd22e67aeded15060e447,F1,batch6,,null,<p class=block-text>Trial 53 out of 78</p>,null,pattern_show_trial_num,,,,,,,,,,,,,,,,,,,,,,,,,
,,,,,image-keyboard-response,127,373190,0.0-2.0-7.0-1.13,643bd22e67aeded15060e447,F1,batch6,,9210.299999999810,stim/no_55_1_w.png,j,pattern_response,TRUE,j,pattern_34,9210.299999999810,TRUE,45,,,,,,,,,,,,,,,,,,,
,,,,,html-keyboard-response,128,374501,0.0-2.0-7.0-0.14,643bd22e67aeded15060e447,F1,batch6,,null,<p class=block-text>Trial 54 out of 78</p>,null,pattern_show_trial_num,,,,,,,,,,,,,,,,,,,,,,,,,
,,,,,image-keyboard-response,129,381106,0.0-2.0-7.0-1.14,643bd22e67aeded15060e447,F1,batch6,,6601.699999999950,stim/no_34_1_b.png,f,pattern_response,FALSE,j,pattern_16,6601.699999999950,FALSE,46,,,,,,,,,,,,,,,,,,,
,,,,,html-keyboard-response,130,382420,0.0-2.0-7.0-0.15,643bd22e67aeded15060e447,F1,batch6,,null,<p class=block-text>Trial 55 out of 78</p>,null,pattern_show_trial_num,,,,,,,,,,,,,,,,,,,,,,,,,
,,,,,image-keyboard-response,131,383755,0.0-2.0-7.0-1.15,643bd22e67aeded15060e447,F1,batch6,,1331.5,stim/yes_28_ver_b1.png,f,pattern_response,TRUE,f,pattern_51,1331.5,TRUE,47,,,,,,,,,,,,,,,,,,,
,,,,,html-keyboard-response,132,385072,0.0-2.0-7.0-0.16,643bd22e67aeded15060e447,F1,batch6,,null,<p class=block-text>Trial 56 out of 78</p>,null,pattern_show_trial_num,,,,,,,,,,,,,,,,,,,,,,,,,
,,,,,image-keyboard-response,133,392407,0.0-2.0-7.0-1.16,643bd22e67aeded15060e447,F1,batch6,,7332.300000000050,stim/no_50_1.png,j,pattern_response,TRUE,j,pattern_30,7332.300000000050,TRUE,48,,,,,,,,,,,,,,,,,,,
,,,,,html-keyboard-response,134,393728,0.0-2.0-7.0-0.17,643bd22e67aeded15060e447,F1,batch6,,null,<p class=block-text>Trial 57 out of 78</p>,null,pattern_show_trial_num,,,,,,,,,,,,,,,,,,,,,,,,,
,,,,,image-keyboard-response,135,394784,0.0-2.0-7.0-1.17,643bd22e67aeded15060e447,F1,batch6,,1052.5999999998600,stim/yes_22_ver_w1.png,f,pattern_response,TRUE,f,pattern_47,1052.5999999998600,TRUE,49,,,,,,,,,,,,,,,,,,,
,,,,,html-keyboard-response,136,396104,0.0-2.0-7.0-0.18,643bd22e67aeded15060e447,F1,batch6,,null,<p class=block-text>Trial 58 out of 78</p>,null,pattern_show_trial_num,,,,,,,,,,,,,,,,,,,,,,,,,
,,,,,image-keyboard-response,137,401000,0.0-2.0-7.0-1.18,643bd22e67aeded15060e447,F1,batch6,,4892.899999999910,stim/no_32_1_w.png,j,pattern_response,TRUE,j,pattern_14,4892.899999999910,TRUE,50,,,,,,,,,,,,,,,,,,,
,,,,,html-keyboard-response,138,402320,0.0-2.0-7.0-0.19,643bd22e67aeded15060e447,F1,batch6,,null,<p class=block-text>Trial 59 out of 78</p>,null,pattern_show_trial_num,,,,,,,,,,,,,,,,,,,,,,,,,
,,,,,image-keyboard-response,139,403747,0.0-2.0-7.0-1.19,643bd22e67aeded15060e447,F1,batch6,,1423.6999999999500,stim/yes_38_hor_b1_b.png,j,pattern_response,FALSE,f,pattern_61,1423.6999999999500,FALSE,51,,,,,,,,,,,,,,,,,,,
,,,,,html-keyboard-response,140,405064,0.0-2.0-7.0-0.20,643bd22e67aeded15060e447,F1,batch6,,null,<p class=block-text>Trial 60 out of 78</p>,null,pattern_show_trial_num,,,,,,,,,,,,,,,,,,,,,,,,,
,,,,,image-keyboard-response,141,411024,0.0-2.0-7.0-1.20,643bd22e67aeded15060e447,F1,batch6,,5955.899999999910,stim/no_42_1_w.png,j,pattern_response,TRUE,j,pattern_22,5955.899999999910,TRUE,52,,,,,,,,,,,,,,,,,,,
,,,,,html-keyboard-response,142,412344,0.0-2.0-7.0-0.21,643bd22e67aeded15060e447,F1,batch6,,null,<p class=block-text>Trial 61 out of 78</p>,null,pattern_show_trial_num,,,,,,,,,,,,,,,,,,,,,,,,,
,,,,,image-keyboard-response,143,415179,0.0-2.0-7.0-1.21,643bd22e67aeded15060e447,F1,batch6,,2831,stim/yes_35_dia_b1.png,f,pattern_response,TRUE,f,pattern_57,2831,TRUE,53,,,,,,,,,,,,,,,,,,,
,,,,,html-keyboard-response,144,416493,0.0-2.0-7.0-0.22,643bd22e67aeded15060e447,F1,batch6,,null,<p class=block-text>Trial 62 out of 78</p>,null,pattern_show_trial_num,,,,,,,,,,,,,,,,,,,,,,,,,
,,,,,image-keyboard-response,145,418353,0.0-2.0-7.0-1.22,643bd22e67aeded15060e447,F1,batch6,,1856.1000000000900,stim/no_17_1_w.png,j,pattern_response,TRUE,j,pattern_04,1856.1000000000900,TRUE,54,,,,,,,,,,,,,,,,,,,
,,,,,html-keyboard-response,146,419672,0.0-2.0-7.0-0.23,643bd22e67aeded15060e447,F1,batch6,,null,<p class=block-text>Trial 63 out of 78</p>,null,pattern_show_trial_num,,,,,,,,,,,,,,,,,,,,,,,,,
,,,,,image-keyboard-response,147,423925,0.0-2.0-7.0-1.23,643bd22e67aeded15060e447,F1,batch6,,4250.699999999950,stim/yes_37_dia_w1.png,j,pattern_response,FALSE,f,pattern_59,4250.699999999950,FALSE,54,,,,,,,,,,,,,,,,,,,
,,,,,html-keyboard-response,148,425240,0.0-2.0-7.0-0.24,643bd22e67aeded15060e447,F1,batch6,,null,<p class=block-text>Trial 64 out of 78</p>,null,pattern_show_trial_num,,,,,,,,,,,,,,,,,,,,,,,,,
,,,,,image-keyboard-response,149,431228,0.0-2.0-7.0-1.24,643bd22e67aeded15060e447,F1,batch6,,5985,stim/no_38_1_b.png,f,pattern_response,FALSE,j,pattern_20,5985,FALSE,55,,,,,,,,,,,,,,,,,,,
,,,,,html-keyboard-response,150,432542,0.0-2.0-7.0-0.25,643bd22e67aeded15060e447,F1,batch6,,null,<p class=block-text>Trial 65 out of 78</p>,null,pattern_show_trial_num,,,,,,,,,,,,,,,,,,,,,,,,,
,,,,,image-keyboard-response,151,434493,0.0-2.0-7.0-1.25,643bd22e67aeded15060e447,F1,batch6,,1946.6000000000900,stim/no_20_1_w.png,j,pattern_response,TRUE,j,pattern_06,1946.6000000000900,TRUE,56,,,,,,,,,,,,,,,,,,,
,,,,,html-keyboard-response,152,435804,0.0-2.0-7.0-0.26,643bd22e67aeded15060e447,F1,batch6,,null,<p class=block-text>Trial 66 out of 78</p>,null,pattern_show_trial_num,,,,,,,,,,,,,,,,,,,,,,,,,
,,,,,image-keyboard-response,153,438555,0.0-2.0-7.0-1.26,643bd22e67aeded15060e447,F1,batch6,,2747.5999999998600,stim/yes_31_hor_b1.png,f,pattern_response,TRUE,f,pattern_55,2747.5999999998600,TRUE,57,,,,,,,,,,,,,,,,,,,
,,,,,html-keyboard-response,154,439871,0.0-2.0-7.0-0.27,643bd22e67aeded15060e447,F1,batch6,,null,<p class=block-text>Trial 67 out of 78</p>,null,pattern_show_trial_num,,,,,,,,,,,,,,,,,,,,,,,,,
,,,,,image-keyboard-response,155,447989,0.0-2.0-7.0-1.27,643bd22e67aeded15060e447,F1,batch6,,8114.600000000090,stim/no_65_1_b.png,j,pattern_response,TRUE,j,pattern_38,8114.600000000090,TRUE,58,,,,,,,,,,,,,,,,,,,
,,,,,html-keyboard-response,156,449303,0.0-2.0-7.0-0.28,643bd22e67aeded15060e447,F1,batch6,,null,<p class=block-text>Trial 68 out of 78</p>,null,pattern_show_trial_num,,,,,,,,,,,,,,,,,,,,,,,,,
,,,,,image-keyboard-response,157,451647,0.0-2.0-7.0-1.28,643bd22e67aeded15060e447,F1,batch6,,2339.8000000000500,stim/yes_52_ver_w1.png,f,pattern_response,TRUE,f,pattern_73,2339.8000000000500,TRUE,59,,,,,,,,,,,,,,,,,,,
,,,,,html-keyboard-response,158,452967,0.0-2.0-7.0-0.29,643bd22e67aeded15060e447,F1,batch6,,null,<p class=block-text>Trial 69 out of 78</p>,null,pattern_show_trial_num,,,,,,,,,,,,,,,,,,,,,,,,,
,,,,,image-keyboard-response,159,454662,0.0-2.0-7.0-1.29,643bd22e67aeded15060e447,F1,batch6,,1691.3999999999100,stim/yes_43_ver_w1_w.png,J,pattern_response,FALSE,f,pattern_65,1691.3999999999100,FALSE,60,,,,,,,,,,,,,,,,,,,
,,,,,html-keyboard-response,160,455971,0.0-2.0-7.0-0.30,643bd22e67aeded15060e447,F1,batch6,,null,<p class=block-text>Trial 70 out of 78</p>,null,pattern_show_trial_num,,,,,,,,,,,,,,,,,,,,,,,,,
,,,,,image-keyboard-response,161,462417,0.0-2.0-7.0-1.30,643bd22e67aeded15060e447,F1,batch6,,6443.299999999810,stim/yes_48_dia_w1_w.png,f,pattern_response,TRUE,f,pattern_69,6443.299999999810,TRUE,61,,,,,,,,,,,,,,,,,,,
,,,,,html-keyboard-response,162,463735,0.0-2.0-7.0-0.31,643bd22e67aeded15060e447,F1,batch6,,null,<p class=block-text>Trial 71 out of 78</p>,null,pattern_show_trial_num,,,,,,,,,,,,,,,,,,,,,,,,,
,,,,,image-keyboard-response,163,473848,0.0-2.0-7.0-1.31,643bd22e67aeded15060e447,F1,batch6,,10109.59999999990,stim/yes_60_ver_b1_b.png,f,pattern_response,TRUE,f,pattern_77,10109.59999999990,TRUE,62,,,,,,,,,,,,,,,,,,,
,,,,,html-keyboard-response,164,475164,0.0-2.0-7.0-0.32,643bd22e67aeded15060e447,F1,batch6,,null,<p class=block-text>Trial 72 out of 78</p>,null,pattern_show_trial_num,,,,,,,,,,,,,,,,,,,,,,,,,
,,,,,image-keyboard-response,165,476421,0.0-2.0-7.0-1.32,643bd22e67aeded15060e447,F1,batch6,,1253.4000000001400,stim/yes_25_hor_b1_b.png,f,pattern_response,TRUE,f,pattern_49,1253.4000000001400,TRUE,63,,,,,,,,,,,,,,,,,,,
,,,,,html-keyboard-response,166,477735,0.0-2.0-7.0-0.33,643bd22e67aeded15060e447,F1,batch6,,null,<p class=block-text>Trial 73 out of 78</p>,null,pattern_show_trial_num,,,,,,,,,,,,,,,,,,,,,,,,,
,,,,,image-keyboard-response,167,479362,0.0-2.0-7.0-1.33,643bd22e67aeded15060e447,F1,batch6,,1624.2999999998100,stim/yes_55_hor_w1_w.png,f,pattern_response,TRUE,f,pattern_75,1624.2999999998100,TRUE,64,,,,,,,,,,,,,,,,,,,
,,,,,html-keyboard-response,168,480679,0.0-2.0-7.0-0.34,643bd22e67aeded15060e447,F1,batch6,,null,<p class=block-text>Trial 74 out of 78</p>,null,pattern_show_trial_num,,,,,,,,,,,,,,,,,,,,,,,,,
,,,,,image-keyboard-response,169,483628,0.0-2.0-7.0-1.34,643bd22e67aeded15060e447,F1,batch6,,2945.5,stim/yes_67_hor_b1.png,j,pattern_response,FALSE,f,pattern_79,2945.5,FALSE,65,,,,,,,,,,,,,,,,,,,
,,,,,html-keyboard-response,170,484943,0.0-2.0-7.0-0.35,643bd22e67aeded15060e447,F1,batch6,,null,<p class=block-text>Trial 75 out of 78</p>,null,pattern_show_trial_num,,,,,,,,,,,,,,,,,,,,,,,,,
,,,,,image-keyboard-response,171,495844,0.0-2.0-7.0-1.35,643bd22e67aeded15060e447,F1,batch6,,10897.800000000000,stim/no_48_1_w.png,j,pattern_response,TRUE,j,pattern_28,10897.800000000000,TRUE,66,,,,,,,,,,,,,,,,,,,
,,,,,html-keyboard-response,172,497154,0.0-2.0-7.0-0.36,643bd22e67aeded15060e447,F1,batch6,,null,<p class=block-text>Trial 76 out of 78</p>,null,pattern_show_trial_num,,,,,,,,,,,,,,,,,,,,,,,,,
,,,,,image-keyboard-response,173,507614,0.0-2.0-7.0-1.36,643bd22e67aeded15060e447,F1,batch6,,10456.200000000000,stim/no_62_1_w.png,j,pattern_response,TRUE,j,pattern_36,10456.200000000000,TRUE,67,,,,,,,,,,,,,,,,,,,
,,,,,html-keyboard-response,174,508934,0.0-2.0-7.0-0.37,643bd22e67aeded15060e447,F1,batch6,,null,<p class=block-text>Trial 77 out of 78</p>,null,pattern_show_trial_num,,,,,,,,,,,,,,,,,,,,,,,,,
,,,,,image-keyboard-response,175,515604,0.0-2.0-7.0-1.37,643bd22e67aeded15060e447,F1,batch6,,6666.699999999950,stim/no_44_1.png,j,pattern_response,TRUE,j,pattern_24,6666.699999999950,TRUE,68,,,,,,,,,,,,,,,,,,,
,,,,,html-keyboard-response,176,516914,0.0-2.0-7.0-0.38,643bd22e67aeded15060e447,F1,batch6,,null,<p class=block-text>Trial 78 out of 78</p>,null,pattern_show_trial_num,,,,,,,,,,,,,,,,,,,,,,,,,
,,,,,image-keyboard-response,177,532067,0.0-2.0-7.0-1.38,643bd22e67aeded15060e447,F1,batch6,,15151.399999999900,stim/no_70_2.png,j,pattern_response,TRUE,j,pattern_40,15151.399999999900,TRUE,69,,,,,,,,,,,,,,,,,,,
,,,,,html-button-response,178,539347,0.0-2.0-8.0,643bd22e67aeded15060e447,F1,batch6,,6769.899999999910,"<p class = block-text>This concludes the 4-in-a-row detection game.Thank you for your responses!<br>
            You responded correctly on 88% of the trials.<br>
            When you are ready, press ""Continue"" button to continue </p>",0,,,,,,,,,,,,,,,,,,,,,,,,,,
TRUE,,,,,fullscreen,179,650220,0.0-3.0-0.0,643bd22e67aeded15060e447,F1,batch6,,,,,,,,,,,,,,,,,,,,,,,,,,,,,,
,,,,,instructions,180,790394,0.0-3.0-1.0-0.0-0.0,643bd22e67aeded15060e447,F1,batch6,"[{""page_index"":0,""viewing_time"":31908.100000000093},{""page_index"":1,""viewing_time"":16216.800000000047},{""page_index"":2,""viewing_time"":18217.09999999986},{""page_index"":3,""viewing_time"":22266.5},{""page_index"":4,""viewing_time"":22784.200000000186},{""page_index"":5,""viewing_time"":22416.799999999814},{""page_index"":6,""viewing_time"":6367}]",140177.40000000000,,,tol-instructions,,,,,,,,,,,,,,,,,,,,,,,,,
,,,,,html-button-response,181,791760,0.0-3.0-1.0-1.0-0.0,643bd22e67aeded15060e447,F1,batch6,,1364.1000000000900,<p class=block-text> Let's answer a few questions <br>,0,tol_enter_quiz,,,,,,,,,,,,,,,,,,,,,,,,,
,,,,,html-button-response,182,800093,0.0-3.0-1.0-1.0-1.0,643bd22e67aeded15060e447,F1,batch6,,8330.899999999910,<p class = block-text>True or False: You can only move the ball on top of a peg. <br></p>,1,tol_quiz,FALSE,,,,,,,,,,,,,,,,,,,,,,,,
,,,,,html-button-response,183,803893,0.0-3.0-1.0-1.0-2.0,643bd22e67aeded15060e447,F1,batch6,,3797.2000000001900,"<p class = block-text>Incorrect. Remember, you can only move the ball on top of a peg.</p>",0,tol_quiz_feedback,,,,,,,,,,,,,,,,,,,,,,,,,
,,,,,html-button-response,184,809226,0.0-3.0-1.0-1.0-3.0,643bd22e67aeded15060e447,F1,batch6,,5331.699999999950,<p class = block-text>True or False: You should try to match your board with the target board with fewest moves possible. <br></p>,0,tol_quiz,TRUE,,,,,,,,,,,,,,,,,,,,,,,,
,,,,,html-button-response,185,810410,0.0-3.0-1.0-1.0-4.0,643bd22e67aeded15060e447,F1,batch6,,1181.5,<p class = block-text>Correct! </p>,0,tol_quiz_feedback,,,,,,,,,,,,,,,,,,,,,,,,,
,,,,,html-button-response,186,814242,0.0-3.0-1.0-2.0-0.0,643bd22e67aeded15060e447,F1,batch6,,3830.1999999999500,<p class = block-text>You made too many incorrect choices.</p><p class = block-text>You will now repeat the instructions and quiz</p>,0,,,,,,,,,,,,,,,,,,,,,,,,,,
,,,,,instructions,187,895842,0.0-3.0-1.1-0.1-0.1,643bd22e67aeded15060e447,F1,batch6,"[{""page_index"":0,""viewing_time"":20380.5},{""page_index"":1,""viewing_time"":5449.40000000014},{""page_index"":2,""viewing_time"":4267.399999999907},{""page_index"":3,""viewing_time"":10250.300000000047},{""page_index"":4,""viewing_time"":14099.699999999953},{""page_index"":5,""viewing_time"":20784.5},{""page_index"":6,""viewing_time"":6366.5}]",81598.90000000010,,,tol-instructions,,,,,,,,,,,,,,,,,,,,,,,,,
,,,,,html-button-response,188,897326,0.0-3.0-1.1-1.1-0.1,643bd22e67aeded15060e447,F1,batch6,,1481.5999999998600,<p class=block-text> Let's answer a few questions <br>,0,tol_enter_quiz,,,,,,,,,,,,,,,,,,,,,,,,,
,,,,,html-button-response,189,900009,0.0-3.0-1.1-1.1-1.1,643bd22e67aeded15060e447,F1,batch6,,2680.5999999998600,<p class = block-text>True or False: You can only move the ball on top of a peg. <br></p>,0,tol_quiz,TRUE,,,,,,,,,,,,,,,,,,,,,,,,
,,,,,html-button-response,190,903240,0.0-3.0-1.1-1.1-2.1,643bd22e67aeded15060e447,F1,batch6,,3229.8000000000500,<p class = block-text>Correct! You can only move the ball on top of a peg.</p>,0,tol_quiz_feedback,,,,,,,,,,,,,,,,,,,,,,,,,
,,,,,html-button-response,191,908292,0.0-3.0-1.1-1.1-3.1,643bd22e67aeded15060e447,F1,batch6,,5050.399999999910,<p class = block-text>True or False: You should try to match your board with the target board with fewest moves possible. <br></p>,0,tol_quiz,TRUE,,,,,,,,,,,,,,,,,,,,,,,,
,,,,,html-button-response,192,909508,0.0-3.0-1.1-1.1-4.1,643bd22e67aeded15060e447,F1,batch6,,1214.0999999998600,<p class = block-text>Correct! </p>,0,tol_quiz_feedback,,,,,,,,,,,,,,,,,,,,,,,,,
,,,,,html-button-response,193,913142,0.0-3.0-2.0,643bd22e67aeded15060e447,F1,batch6,,3631.5999999998600,"<p class=block-text> Now that you've understood the game, let's practice a few easier examples before we start!<br> <br>",0,,,,,,,,,,,,,,,,,,,,,,,,,,
,,,,,single-stim-button,194,916228,0.0-3.0-3.0-0.0,643bd22e67aeded15060e447,F1,batch6,,3082,,,tol_practice,,,,,,,,,tol_peg_2,3082,3082,0,"[[1,2,0],[0,0],[0]]",1,"[[1,2,0],[0,0],[3]]",practice,3082,,,,,,,,
,,,,,single-stim-button,195,918293,0.0-3.0-3.0-1.0,643bd22e67aeded15060e447,F1,batch6,,2063,,,tol_practice,,,,,,,,,tol_peg_3,2063,2063,0,"[[1,2,0],[0,0],[3]]",1,"[[1,2,0],[0,0],[3]]",practice,2063,,,,,,,,
,,,,,poldrack-single-stim,196,919303,0.0-3.0-4.0,643bd22e67aeded15060e447,F1,batch6,,-1,,,tol_feedback,TRUE,,,,,,,,,1000,1000,500,,,,,,-1,none,TRUE,,0,,,
,,,,,single-stim-button,197,923593,0.0-3.0-5.0-0.0,643bd22e67aeded15060e447,F1,batch6,,4287,,,tol_practice,,,,,,,,,tol_peg_1,4287,4287,0,"[[1,0,0],[3,0],[0]]",2,"[[0,0,0],[3,1],[2]]",practice,4287,,,,,,,,
,,,,,single-stim-button,198,926743,0.0-3.0-5.0-1.0,643bd22e67aeded15060e447,F1,batch6,,3148,,,tol_practice,,,,,,,,,tol_peg_3,3148,3148,0,"[[1,0,0],[3,0],[2]]",2,"[[0,0,0],[3,1],[2]]",practice,3148,,,,,,,,
,,,,,single-stim-button,199,934526,0.0-3.0-5.1-0.1,643bd22e67aeded15060e447,F1,batch6,,7781,,,tol_practice,,,,,,,,,tol_peg_1,7781,7781,0,"[[0,0,0],[3,0],[2]]",3,"[[0,0,0],[3,1],[2]]",practice,7781,,,,,,,,
,,,,,single-stim-button,200,936025,0.0-3.0-5.1-1.1,643bd22e67aeded15060e447,F1,batch6,,1498,,,tol_practice,,,,,,,,,tol_peg_2,1498,1498,0,"[[0,0,0],[3,1],[2]]",3,"[[0,0,0],[3,1],[2]]",practice,1498,,,,,,,,
,,,,,poldrack-single-stim,201,937030,0.0-3.0-6.0,643bd22e67aeded15060e447,F1,batch6,,-1,,,tol_feedback,TRUE,,,,,,,,,1000,1000,500,,,,,,-1,none,TRUE,,0,,,
,,,,,single-stim-button,202,941408,0.0-3.0-7.0-0.0,643bd22e67aeded15060e447,F1,batch6,,4376,,,tol_practice,,,,,,,,,tol_peg_2,4376,4376,0,"[[1,2,0],[0,0],[0]]",4,"[[1,0,0],[2,0],[3]]",practice,4376,,,,,,,,
,,,,,single-stim-button,203,942576,0.0-3.0-7.0-1.0,643bd22e67aeded15060e447,F1,batch6,,1166,,,tol_practice,,,,,,,,,tol_peg_3,1166,1166,0,"[[1,2,0],[0,0],[3]]",4,"[[1,0,0],[2,0],[3]]",practice,1166,,,,,,,,
,,,,,single-stim-button,204,944442,0.0-3.0-7.1-0.1,643bd22e67aeded15060e447,F1,batch6,,1865,,,tol_practice,,,,,,,,,tol_peg_1,1865,1865,0,"[[1,0,0],[0,0],[3]]",5,"[[1,0,0],[2,0],[3]]",practice,1865,,,,,,,,
,,,,,single-stim-button,205,945692,0.0-3.0-7.1-1.1,643bd22e67aeded15060e447,F1,batch6,,1249,,,tol_practice,,,,,,,,,tol_peg_2,1249,1249,0,"[[1,0,0],[2,0],[3]]",5,"[[1,0,0],[2,0],[3]]",practice,1249,,,,,,,,
,,,,,poldrack-single-stim,206,946702,0.0-3.0-8.0,643bd22e67aeded15060e447,F1,batch6,,-1,,,tol_feedback,TRUE,,,,,,,,,1000,1000,500,,,,,,-1,none,TRUE,,0,,,
,,,,,html-button-response,207,950975,0.0-3.0-9.0,643bd22e67aeded15060e447,F1,batch6,,4271.100000000090,<div class = centerbox><p class = center-block-text>Great job! You are done with practice trials<br>You are about to start official trials.<br> <br> Problem <strong>1</strong> out of 25 problems</p></div>,0,tol_instruction,,,,,,,,,,,,,,,,,,,,,,,,,
,,,,,single-stim-button,208,955576,0.0-3.0-10.0-0.0,643bd22e67aeded15060e447,F1,batch6,,3589,,,tol_tohand,,,,,,,,,tol_peg_1,3589,3589,0,"[[1,0,0],[3,0],[0]]",1,"[[1,3,0],[2,0],[0]]",0,0,,,,,,3,,
,,,,,single-stim-button,209,957560,0.0-3.0-10.0-1.0,643bd22e67aeded15060e447,F1,batch6,,1981,,,tol_toboard,,,,,,,,,tol_peg_3,1981,1981,0,"[[1,0,0],[3,0],[2]]",1,"[[1,3,0],[2,0],[0]]",0,0,,,,,,3,,
,,,,,single-stim-button,210,958575,0.0-3.0-10.1-0.1,643bd22e67aeded15060e447,F1,batch6,,1013,,,tol_tohand,,,,,,,,,tol_peg_2,1013,1013,0,"[[1,0,0],[0,0],[2]]",2,"[[1,3,0],[2,0],[0]]",0,0,,,,,,3,,
,,,,,single-stim-button,211,960207,0.0-3.0-10.1-1.1,643bd22e67aeded15060e447,F1,batch6,,1631,,,tol_toboard,,,,,,,,,tol_peg_1,1631,1631,0,"[[1,3,0],[0,0],[2]]",2,"[[1,3,0],[2,0],[0]]",0,0,,,,,,3,,
,,,,,single-stim-button,212,961442,0.0-3.0-10.2-0.2,643bd22e67aeded15060e447,F1,batch6,,1234,,,tol_tohand,,,,,,,,,tol_peg_3,1234,1234,0,"[[1,3,0],[0,0],[0]]",3,"[[1,3,0],[2,0],[0]]",0,0,,,,,,3,,
,,,,,single-stim-button,213,962726,0.0-3.0-10.2-1.2,643bd22e67aeded15060e447,F1,batch6,,1281,,,tol_toboard,,,,,,,,,tol_peg_2,1281,1281,0,"[[1,3,0],[2,0],[0]]",3,"[[1,3,0],[2,0],[0]]",0,0,,,,,,3,,
,,,,,poldrack-single-stim,214,963738,0.0-3.0-11.0,643bd22e67aeded15060e447,F1,batch6,,-1,,,tol_feedback,TRUE,,,,,,,,,1000,1000,500,,,,,,-1,none,TRUE,3589,5836,,,
,,,,,html-button-response,215,965126,0.0-3.0-12.0,643bd22e67aeded15060e447,F1,batch6,,1386.0999999996300,<div class = centerbox><p class = center-block-text>problem <strong>2</strong> out of 25 problems</p></div>,0,tol_trial_num,,,,,,,,,,,,,,,,,,,,,,,,,
,,,,,single-stim-button,216,969892,0.0-3.0-13.0-0.0,643bd22e67aeded15060e447,F1,batch6,,4763,,,tol_tohand,,,,,,,,,tol_peg_1,4763,4763,0,"[[1,0,0],[3,0],[0]]",1,"[[2,1,3],[0,0],[0]]",1,0,,,,,,5,,
,,,,,single-stim-button,217,975575,0.0-3.0-13.0-1.0,643bd22e67aeded15060e447,F1,batch6,,5681,,,tol_toboard,,,,,,,,,tol_peg_2,5681,5681,0,"[[1,0,0],[3,2],[0]]",1,"[[2,1,3],[0,0],[0]]",1,0,,,,,,5,,
,,,,,single-stim-button,218,976509,0.0-3.0-13.1-0.1,643bd22e67aeded15060e447,F1,batch6,,933,,,tol_tohand,,,,,,,,,tol_peg_1,933,933,0,"[[0,0,0],[3,2],[0]]",2,"[[2,1,3],[0,0],[0]]",1,0,,,,,,5,,
,,,,,single-stim-button,219,977642,0.0-3.0-13.1-1.1,643bd22e67aeded15060e447,F1,batch6,,1131,,,tol_toboard,,,,,,,,,tol_peg_3,1131,1131,0,"[[0,0,0],[3,2],[1]]",2,"[[2,1,3],[0,0],[0]]",1,0,,,,,,5,,
,,,,,single-stim-button,220,978526,0.0-3.0-13.2-0.2,643bd22e67aeded15060e447,F1,batch6,,881,,,tol_tohand,,,,,,,,,tol_peg_2,881,881,0,"[[0,0,0],[3,0],[1]]",3,"[[2,1,3],[0,0],[0]]",1,0,,,,,,5,,
,,,,,single-stim-button,221,980193,0.0-3.0-13.2-1.2,643bd22e67aeded15060e447,F1,batch6,,1665,,,tol_toboard,,,,,,,,,tol_peg_1,1665,1665,0,"[[2,0,0],[3,0],[1]]",3,"[[2,1,3],[0,0],[0]]",1,0,,,,,,5,,
,,,,,single-stim-button,222,981309,0.0-3.0-13.3-0.3,643bd22e67aeded15060e447,F1,batch6,,1115,,,tol_tohand,,,,,,,,,tol_peg_3,1115,1115,0,"[[2,0,0],[3,0],[0]]",4,"[[2,1,3],[0,0],[0]]",1,0,,,,,,5,,
,,,,,single-stim-button,223,983326,0.0-3.0-13.3-1.3,643bd22e67aeded15060e447,F1,batch6,,2014,,,tol_toboard,,,,,,,,,tol_peg_1,2014,2014,0,"[[2,1,0],[3,0],[0]]",4,"[[2,1,3],[0,0],[0]]",1,0,,,,,,5,,
,,,,,single-stim-button,224,984226,0.0-3.0-13.4-0.4,643bd22e67aeded15060e447,F1,batch6,,898,,,tol_tohand,,,,,,,,,tol_peg_2,898,898,0,"[[2,1,0],[0,0],[0]]",5,"[[2,1,3],[0,0],[0]]",1,0,,,,,,5,,
,,,,,single-stim-button,225,985573,0.0-3.0-13.4-1.4,643bd22e67aeded15060e447,F1,batch6,,1346,,,tol_toboard,,,,,,,,,tol_peg_1,1346,1346,0,"[[2,1,3],[0,0],[0]]",5,"[[2,1,3],[0,0],[0]]",1,0,,,,,,5,,
,,,,,poldrack-single-stim,226,986585,0.0-3.0-14.0,643bd22e67aeded15060e447,F1,batch6,,-1,,,tol_feedback,TRUE,,,,,,,,,1000,1000,500,,,,,,-1,none,TRUE,4763,8590,,,
,,,,,html-button-response,227,988109,0.0-3.0-15.0,643bd22e67aeded15060e447,F1,batch6,,1520.9000000003700,<div class = centerbox><p class = center-block-text>problem <strong>3</strong> out of 25 problems</p></div>,0,tol_trial_num,,,,,,,,,,,,,,,,,,,,,,,,,
,,,,,single-stim-button,228,992560,0.0-3.0-16.0-0.0,643bd22e67aeded15060e447,F1,batch6,,4449,,,tol_tohand,,,,,,,,,tol_peg_3,4449,4449,0,"[[2,3,0],[0,0],[0]]",1,"[[1,2,0],[3,0],[0]]",2,0,,,,,,4,,
,,,,,single-stim-button,229,993692,0.0-3.0-16.0-1.0,643bd22e67aeded15060e447,F1,batch6,,1131,,,tol_toboard,,,,,,,,,tol_peg_2,1131,1131,0,"[[2,3,0],[1,0],[0]]",1,"[[1,2,0],[3,0],[0]]",2,0,,,,,,4,,
,,,,,single-stim-button,230,995593,0.0-3.0-16.1-0.1,643bd22e67aeded15060e447,F1,batch6,,1898,,,tol_tohand,,,,,,,,,tol_peg_1,1898,1898,0,"[[2,0,0],[1,0],[0]]",2,"[[1,2,0],[3,0],[0]]",2,0,,,,,,4,,
,,,,,single-stim-button,231,998859,0.0-3.0-16.1-1.1,643bd22e67aeded15060e447,F1,batch6,,3265,,,tol_toboard,,,,,,,,,tol_peg_3,3265,3265,0,"[[2,0,0],[1,0],[3]]",2,"[[1,2,0],[3,0],[0]]",2,0,,,,,,4,,
,,,,,single-stim-button,232,1000092,0.0-3.0-16.2-0.2,643bd22e67aeded15060e447,F1,batch6,,1231,,,tol_tohand,,,,,,,,,tol_peg_1,1231,1231,0,"[[0,0,0],[1,0],[3]]",3,"[[1,2,0],[3,0],[0]]",2,0,,,,,,4,,
,,,,,single-stim-button,233,1004259,0.0-3.0-16.2-1.2,643bd22e67aeded15060e447,F1,batch6,,4166,,,tol_toboard,,,,,,,,,tol_peg_1,4166,4166,0,"[[2,0,0],[1,0],[3]]",3,"[[1,2,0],[3,0],[0]]",2,0,,,,,,4,,
,,,,,single-stim-button,234,1010259,0.0-3.0-16.3-0.3,643bd22e67aeded15060e447,F1,batch6,,5997,,,tol_tohand,,,,,,,,,tol_peg_3,5997,5997,0,"[[2,0,0],[1,0],[0]]",4,"[[1,2,0],[3,0],[0]]",2,0,,,,,,4,,
,,,,,single-stim-button,235,1012826,0.0-3.0-16.3-1.3,643bd22e67aeded15060e447,F1,batch6,,2564,,,tol_toboard,,,,,,,,,tol_peg_1,2564,2564,0,"[[2,3,0],[1,0],[0]]",4,"[[1,2,0],[3,0],[0]]",2,0,,,,,,4,,
,,,,,single-stim-button,236,1013858,0.0-3.0-16.4-0.4,643bd22e67aeded15060e447,F1,batch6,,1031,,,tol_tohand,,,,,,,,,tol_peg_2,1031,1031,0,"[[2,3,0],[0,0],[0]]",5,"[[1,2,0],[3,0],[0]]",2,0,,,,,,4,,
,,,,,single-stim-button,237,1015192,0.0-3.0-16.4-1.4,643bd22e67aeded15060e447,F1,batch6,,1332,,,tol_toboard,,,,,,,,,tol_peg_3,1332,1332,0,"[[2,3,0],[0,0],[1]]",5,"[[1,2,0],[3,0],[0]]",2,0,,,,,,4,,
,,,,,single-stim-button,238,1016425,0.0-3.0-16.5-0.5,643bd22e67aeded15060e447,F1,batch6,,1232,,,tol_tohand,,,,,,,,,tol_peg_1,1232,1232,0,"[[2,0,0],[0,0],[1]]",6,"[[1,2,0],[3,0],[0]]",2,0,,,,,,4,,
,,,,,single-stim-button,239,1018543,0.0-3.0-16.5-1.5,643bd22e67aeded15060e447,F1,batch6,,2115,,,tol_toboard,,,,,,,,,tol_peg_2,2115,2115,0,"[[2,0,0],[3,0],[1]]",6,"[[1,2,0],[3,0],[0]]",2,0,,,,,,4,,
,,,,,single-stim-button,240,1019576,0.0-3.0-16.6-0.6,643bd22e67aeded15060e447,F1,batch6,,1032,,,tol_tohand,,,,,,,,,tol_peg_1,1032,1032,0,"[[0,0,0],[3,0],[1]]",7,"[[1,2,0],[3,0],[0]]",2,0,,,,,,4,,
,,,,,single-stim-button,241,1020475,0.0-3.0-16.6-1.6,643bd22e67aeded15060e447,F1,batch6,,898,,,tol_toboard,,,,,,,,,tol_peg_2,898,898,0,"[[0,0,0],[3,2],[1]]",7,"[[1,2,0],[3,0],[0]]",2,0,,,,,,4,,
,,,,,single-stim-button,242,1021309,0.0-3.0-16.7-0.7,643bd22e67aeded15060e447,F1,batch6,,831,,,tol_tohand,,,,,,,,,tol_peg_3,831,831,0,"[[0,0,0],[3,2],[0]]",8,"[[1,2,0],[3,0],[0]]",2,0,,,,,,4,,
,,,,,single-stim-button,243,1022393,0.0-3.0-16.7-1.7,643bd22e67aeded15060e447,F1,batch6,,1082,,,tol_toboard,,,,,,,,,tol_peg_1,1082,1082,0,"[[1,0,0],[3,2],[0]]",8,"[[1,2,0],[3,0],[0]]",2,0,,,,,,4,,
,,,,,single-stim-button,244,1023826,0.0-3.0-16.8-0.8,643bd22e67aeded15060e447,F1,batch6,,1432,,,tol_tohand,,,,,,,,,tol_peg_2,1432,1432,0,"[[1,0,0],[3,0],[0]]",9,"[[1,2,0],[3,0],[0]]",2,0,,,,,,4,,
,,,,,single-stim-button,245,1024609,0.0-3.0-16.8-1.8,643bd22e67aeded15060e447,F1,batch6,,781,,,tol_toboard,,,,,,,,,tol_peg_1,781,781,0,"[[1,2,0],[3,0],[0]]",9,"[[1,2,0],[3,0],[0]]",2,0,,,,,,4,,
,,,,,poldrack-single-stim,246,1025617,0.0-3.0-17.0,643bd22e67aeded15060e447,F1,batch6,,-1,,,tol_feedback,TRUE,,,,,,,,,1000,1000,500,,,,,,-1,none,TRUE,4449,19133,,,
,,,,,html-button-response,247,1026642,0.0-3.0-18.0,643bd22e67aeded15060e447,F1,batch6,,1022.6000000000900,<div class = centerbox><p class = center-block-text>problem <strong>4</strong> out of 25 problems</p></div>,0,tol_trial_num,,,,,,,,,,,,,,,,,,,,,,,,,
,,,,,single-stim-button,248,1030742,0.0-3.0-19.0-0.0,643bd22e67aeded15060e447,F1,batch6,,4098,,,tol_tohand,,,,,,,,,tol_peg_2,4098,4098,0,"[[3,0,0],[2,0],[0]]",1,"[[3,0,0],[1,0],[2]]",3,0,,,,,,3,,
,,,,,single-stim-button,249,1031726,0.0-3.0-19.0-1.0,643bd22e67aeded15060e447,F1,batch6,,981,,,tol_toboard,,,,,,,,,tol_peg_1,981,981,0,"[[3,1,0],[2,0],[0]]",1,"[[3,0,0],[1,0],[2]]",3,0,,,,,,3,,
,,,,,single-stim-button,250,1032492,0.0-3.0-19.1-0.1,643bd22e67aeded15060e447,F1,batch6,,765,,,tol_tohand,,,,,,,,,tol_peg_2,765,765,0,"[[3,1,0],[0,0],[0]]",2,"[[3,0,0],[1,0],[2]]",3,0,,,,,,3,,
,,,,,single-stim-button,251,1033608,0.0-3.0-19.1-1.1,643bd22e67aeded15060e447,F1,batch6,,1114,,,tol_toboard,,,,,,,,,tol_peg_3,1114,1114,0,"[[3,1,0],[0,0],[2]]",2,"[[3,0,0],[1,0],[2]]",3,0,,,,,,3,,
,,,,,single-stim-button,252,1034959,0.0-3.0-19.2-0.2,643bd22e67aeded15060e447,F1,batch6,,1348,,,tol_tohand,,,,,,,,,tol_peg_1,1348,1348,0,"[[3,0,0],[0,0],[2]]",3,"[[3,0,0],[1,0],[2]]",3,0,,,,,,3,,
,,,,,single-stim-button,253,1036125,0.0-3.0-19.2-1.2,643bd22e67aeded15060e447,F1,batch6,,1165,,,tol_toboard,,,,,,,,,tol_peg_2,1165,1165,0,"[[3,0,0],[1,0],[2]]",3,"[[3,0,0],[1,0],[2]]",3,0,,,,,,3,,
,,,,,poldrack-single-stim,254,1037135,0.0-3.0-20.0,643bd22e67aeded15060e447,F1,batch6,,-1,,,tol_feedback,TRUE,,,,,,,,,1000,1000,500,,,,,,-1,none,TRUE,4098,6211,,,
,,,,,html-button-response,255,1038359,0.0-3.0-21.0,643bd22e67aeded15060e447,F1,batch6,,1221.2999999998100,<div class = centerbox><p class = center-block-text>problem <strong>5</strong> out of 25 problems</p></div>,0,tol_trial_num,,,,,,,,,,,,,,,,,,,,,,,,,
,,,,,single-stim-button,256,1045326,0.0-3.0-22.0-0.0,643bd22e67aeded15060e447,F1,batch6,,6964,,,tol_tohand,,,,,,,,,tol_peg_3,6964,6964,0,"[[1,0,0],[2,0],[0]]",1,"[[0,0,0],[1,2],[3]]",4,0,,,,,,7,,
,,,,,single-stim-button,257,1054558,0.0-3.0-22.0-1.0,643bd22e67aeded15060e447,F1,batch6,,9230,,,tol_toboard,,,,,,,,,tol_peg_1,9230,9230,0,"[[1,3,0],[2,0],[0]]",1,"[[0,0,0],[1,2],[3]]",4,0,,,,,,7,,
,,,,,single-stim-button,258,1055493,0.0-3.0-22.1-0.1,643bd22e67aeded15060e447,F1,batch6,,932,,,tol_tohand,,,,,,,,,tol_peg_2,932,932,0,"[[1,3,0],[0,0],[0]]",2,"[[0,0,0],[1,2],[3]]",4,0,,,,,,7,,
,,,,,single-stim-button,259,1057024,0.0-3.0-22.1-1.1,643bd22e67aeded15060e447,F1,batch6,,1529,,,tol_toboard,,,,,,,,,tol_peg_3,1529,1529,0,"[[1,3,0],[0,0],[2]]",2,"[[0,0,0],[1,2],[3]]",4,0,,,,,,7,,
,,,,,single-stim-button,260,1065776,0.0-3.0-22.2-0.2,643bd22e67aeded15060e447,F1,batch6,,8751,,,tol_tohand,,,,,,,,,tol_peg_1,8751,8751,0,"[[1,0,0],[0,0],[2]]",3,"[[0,0,0],[1,2],[3]]",4,0,,,,,,7,,
,,,,,single-stim-button,261,1066842,0.0-3.0-22.2-1.2,643bd22e67aeded15060e447,F1,batch6,,1064,,,tol_toboard,,,,,,,,,tol_peg_2,1064,1064,0,"[[1,0,0],[3,0],[2]]",3,"[[0,0,0],[1,2],[3]]",4,0,,,,,,7,,
,,,,,single-stim-button,262,1072209,0.0-3.0-22.3-0.3,643bd22e67aeded15060e447,F1,batch6,,5365,,,tol_tohand,,,,,,,,,tol_peg_3,5365,5365,0,"[[1,0,0],[3,0],[0]]",4,"[[0,0,0],[1,2],[3]]",4,0,,,,,,7,,
,,,,,single-stim-button,263,1073359,0.0-3.0-22.3-1.3,643bd22e67aeded15060e447,F1,batch6,,1148,,,tol_toboard,,,,,,,,,tol_peg_1,1148,1148,0,"[[1,2,0],[3,0],[0]]",4,"[[0,0,0],[1,2],[3]]",4,0,,,,,,7,,
,,,,,single-stim-button,264,1074026,0.0-3.0-22.4-0.4,643bd22e67aeded15060e447,F1,batch6,,665,,,tol_tohand,,,,,,,,,tol_peg_2,665,665,0,"[[1,2,0],[0,0],[0]]",5,"[[0,0,0],[1,2],[3]]",4,0,,,,,,7,,
,,,,,single-stim-button,265,1074810,0.0-3.0-22.4-1.4,643bd22e67aeded15060e447,F1,batch6,,782,,,tol_toboard,,,,,,,,,tol_peg_3,782,782,0,"[[1,2,0],[0,0],[3]]",5,"[[0,0,0],[1,2],[3]]",4,0,,,,,,7,,
,,,,,single-stim-button,266,1075875,0.0-3.0-22.5-0.5,643bd22e67aeded15060e447,F1,batch6,,1063,,,tol_tohand,,,,,,,,,tol_peg_1,1063,1063,0,"[[1,0,0],[0,0],[3]]",6,"[[0,0,0],[1,2],[3]]",4,0,,,,,,7,,
,,,,,single-stim-button,267,1083075,0.0-3.0-22.5-1.5,643bd22e67aeded15060e447,F1,batch6,,7199,,,tol_toboard,,,,,,,,,tol_peg_2,7199,7199,0,"[[1,0,0],[2,0],[3]]",6,"[[0,0,0],[1,2],[3]]",4,0,,,,,,7,,
,,,,,single-stim-button,268,1084143,0.0-3.0-22.6-0.6,643bd22e67aeded15060e447,F1,batch6,,1065,,,tol_tohand,,,,,,,,,tol_peg_3,1065,1065,0,"[[1,0,0],[2,0],[0]]",7,"[[0,0,0],[1,2],[3]]",4,0,,,,,,7,,
,,,,,single-stim-button,269,1085226,0.0-3.0-22.6-1.6,643bd22e67aeded15060e447,F1,batch6,,1081,,,tol_toboard,,,,,,,,,tol_peg_1,1081,1081,0,"[[1,3,0],[2,0],[0]]",7,"[[0,0,0],[1,2],[3]]",4,0,,,,,,7,,
,,,,,single-stim-button,270,1087059,0.0-3.0-22.7-0.7,643bd22e67aeded15060e447,F1,batch6,,1831,,,tol_tohand,,,,,,,,,tol_peg_2,1831,1831,0,"[[1,3,0],[0,0],[0]]",8,"[[0,0,0],[1,2],[3]]",4,0,,,,,,7,,
,,,,,single-stim-button,271,1088874,0.0-3.0-22.7-1.7,643bd22e67aeded15060e447,F1,batch6,,1814,,,tol_toboard,,,,,,,,,tol_peg_3,1814,1814,0,"[[1,3,0],[0,0],[2]]",8,"[[0,0,0],[1,2],[3]]",4,0,,,,,,7,,
,,,,,single-stim-button,272,1090925,0.0-3.0-22.8-0.8,643bd22e67aeded15060e447,F1,batch6,,2050,,,tol_tohand,,,,,,,,,tol_peg_1,2050,2050,0,"[[1,0,0],[0,0],[2]]",9,"[[0,0,0],[1,2],[3]]",4,0,,,,,,7,,
,,,,,single-stim-button,273,1091926,0.0-3.0-22.8-1.8,643bd22e67aeded15060e447,F1,batch6,,1000,,,tol_toboard,,,,,,,,,tol_peg_2,1000,1000,0,"[[1,0,0],[3,0],[2]]",9,"[[0,0,0],[1,2],[3]]",4,0,,,,,,7,,
,,,,,single-stim-button,274,1093326,0.0-3.0-22.9-0.9,643bd22e67aeded15060e447,F1,batch6,,1398,,,tol_tohand,,,,,,,,,tol_peg_1,1398,1398,0,"[[0,0,0],[3,0],[2]]",10,"[[0,0,0],[1,2],[3]]",4,0,,,,,,7,,
,,,,,single-stim-button,275,1095126,0.0-3.0-22.9-1.9,643bd22e67aeded15060e447,F1,batch6,,1798,,,tol_toboard,,,,,,,,,tol_peg_2,1798,1798,0,"[[0,0,0],[3,1],[2]]",10,"[[0,0,0],[1,2],[3]]",4,0,,,,,,7,,
,,,,,single-stim-button,276,1096176,0.0-3.0-22.10-0.10,643bd22e67aeded15060e447,F1,batch6,,1048,,,tol_tohand,,,,,,,,,tol_peg_3,1048,1048,0,"[[0,0,0],[3,1],[0]]",11,"[[0,0,0],[1,2],[3]]",4,0,,,,,,7,,
,,,,,single-stim-button,277,1097625,0.0-3.0-22.10-1.10,643bd22e67aeded15060e447,F1,batch6,,1448,,,tol_toboard,,,,,,,,,tol_peg_1,1448,1448,0,"[[2,0,0],[3,1],[0]]",11,"[[0,0,0],[1,2],[3]]",4,0,,,,,,7,,
,,,,,single-stim-button,278,1098826,0.0-3.0-22.11-0.11,643bd22e67aeded15060e447,F1,batch6,,1198,,,tol_tohand,,,,,,,,,tol_peg_2,1198,1198,0,"[[2,0,0],[3,0],[0]]",12,"[[0,0,0],[1,2],[3]]",4,0,,,,,,7,,
,,,,,single-stim-button,279,1108359,0.0-3.0-22.11-1.11,643bd22e67aeded15060e447,F1,batch6,,9532,,,tol_toboard,,,,,,,,,tol_peg_1,9532,9532,0,"[[2,1,0],[3,0],[0]]",12,"[[0,0,0],[1,2],[3]]",4,0,,,,,,7,,
,,,,,single-stim-button,280,1109776,0.0-3.0-22.12-0.12,643bd22e67aeded15060e447,F1,batch6,,1414,,,tol_tohand,,,,,,,,,tol_peg_2,1414,1414,0,"[[2,1,0],[0,0],[0]]",13,"[[0,0,0],[1,2],[3]]",4,0,,,,,,7,,
,,,,,single-stim-button,281,1110909,0.0-3.0-22.12-1.12,643bd22e67aeded15060e447,F1,batch6,,1132,,,tol_toboard,,,,,,,,,tol_peg_3,1132,1132,0,"[[2,1,0],[0,0],[3]]",13,"[[0,0,0],[1,2],[3]]",4,0,,,,,,7,,
,,,,,single-stim-button,282,1112376,0.0-3.0-22.13-0.13,643bd22e67aeded15060e447,F1,batch6,,1464,,,tol_tohand,,,,,,,,,tol_peg_1,1464,1464,0,"[[2,0,0],[0,0],[3]]",14,"[[0,0,0],[1,2],[3]]",4,0,,,,,,7,,
,,,,,single-stim-button,283,1113459,0.0-3.0-22.13-1.13,643bd22e67aeded15060e447,F1,batch6,,1082,,,tol_toboard,,,,,,,,,tol_peg_2,1082,1082,0,"[[2,0,0],[1,0],[3]]",14,"[[0,0,0],[1,2],[3]]",4,0,,,,,,7,,
,,,,,single-stim-button,284,1114176,0.0-3.0-22.14-0.14,643bd22e67aeded15060e447,F1,batch6,,714,,,tol_tohand,,,,,,,,,tol_peg_1,714,714,0,"[[0,0,0],[1,0],[3]]",15,"[[0,0,0],[1,2],[3]]",4,0,,,,,,7,,
,,,,,single-stim-button,285,1114859,0.0-3.0-22.14-1.14,643bd22e67aeded15060e447,F1,batch6,,682,,,tol_toboard,,,,,,,,,tol_peg_2,682,682,0,"[[0,0,0],[1,2],[3]]",15,"[[0,0,0],[1,2],[3]]",4,0,,,,,,7,,
,,,,,poldrack-single-stim,286,1115869,0.0-3.0-23.0,643bd22e67aeded15060e447,F1,batch6,,-1,,,tol_feedback,TRUE,,,,,,,,,1000,1000,500,,,,,,-1,none,TRUE,6964,35922,,,
,,,,,html-button-response,287,1117124,0.0-3.0-24.0,643bd22e67aeded15060e447,F1,batch6,,1253,<div class = centerbox><p class = center-block-text>problem <strong>6</strong> out of 25 problems</p></div>,0,tol_trial_num,,,,,,,,,,,,,,,,,,,,,,,,,
,,,,,single-stim-button,288,1121826,0.0-3.0-25.0-0.0,643bd22e67aeded15060e447,F1,batch6,,4701,,,tol_tohand,,,,,,,,,tol_peg_2,4701,4701,0,"[[0,0,0],[1,0],[3]]",1,"[[1,0,0],[2,3],[0]]",5,0,,,,,,6,,
,,,,,single-stim-button,289,1142943,0.0-3.0-25.0-1.0,643bd22e67aeded15060e447,F1,batch6,,21115,,,tol_toboard,,,,,,,,,tol_peg_2,21115,21115,0,"[[0,0,0],[1,2],[3]]",1,"[[1,0,0],[2,3],[0]]",5,0,,,,,,6,,
,,,,,single-stim-button,290,1143659,0.0-3.0-25.1-0.1,643bd22e67aeded15060e447,F1,batch6,,715,,,tol_tohand,,,,,,,,,tol_peg_3,715,715,0,"[[0,0,0],[1,2],[0]]",2,"[[1,0,0],[2,3],[0]]",5,0,,,,,,6,,
,,,,,single-stim-button,291,1144825,0.0-3.0-25.1-1.1,643bd22e67aeded15060e447,F1,batch6,,1165,,,tol_toboard,,,,,,,,,tol_peg_1,1165,1165,0,"[[3,0,0],[1,2],[0]]",2,"[[1,0,0],[2,3],[0]]",5,0,,,,,,6,,
,,,,,single-stim-button,292,1146442,0.0-3.0-25.2-0.2,643bd22e67aeded15060e447,F1,batch6,,1616,,,tol_tohand,,,,,,,,,tol_peg_2,1616,1616,0,"[[3,0,0],[1,0],[0]]",3,"[[1,0,0],[2,3],[0]]",5,0,,,,,,6,,
,,,,,single-stim-button,293,1147693,0.0-3.0-25.2-1.2,643bd22e67aeded15060e447,F1,batch6,,1248,,,tol_toboard,,,,,,,,,tol_peg_3,1248,1248,0,"[[3,0,0],[1,0],[2]]",3,"[[1,0,0],[2,3],[0]]",5,0,,,,,,6,,
,,,,,single-stim-button,294,1155459,0.0-3.0-25.3-0.3,643bd22e67aeded15060e447,F1,batch6,,7765,,,tol_tohand,,,,,,,,,tol_peg_2,7765,7765,0,"[[3,0,0],[0,0],[2]]",4,"[[1,0,0],[2,3],[0]]",5,0,,,,,,6,,
,,,,,single-stim-button,295,1157826,0.0-3.0-25.3-1.3,643bd22e67aeded15060e447,F1,batch6,,2366,,,tol_toboard,,,,,,,,,tol_peg_1,2366,2366,0,"[[3,1,0],[0,0],[2]]",4,"[[1,0,0],[2,3],[0]]",5,0,,,,,,6,,
,,,,,single-stim-button,296,1158842,0.0-3.0-25.4-0.4,643bd22e67aeded15060e447,F1,batch6,,1014,,,tol_tohand,,,,,,,,,tol_peg_3,1014,1014,0,"[[3,1,0],[0,0],[0]]",5,"[[1,0,0],[2,3],[0]]",5,0,,,,,,6,,
,,,,,single-stim-button,297,1160125,0.0-3.0-25.4-1.4,643bd22e67aeded15060e447,F1,batch6,,1281,,,tol_toboard,,,,,,,,,tol_peg_2,1281,1281,0,"[[3,1,0],[2,0],[0]]",5,"[[1,0,0],[2,3],[0]]",5,0,,,,,,6,,
,,,,,single-stim-button,298,1163276,0.0-3.0-25.5-0.5,643bd22e67aeded15060e447,F1,batch6,,3149,,,tol_tohand,,,,,,,,,tol_peg_1,3149,3149,0,"[[3,0,0],[2,0],[0]]",6,"[[1,0,0],[2,3],[0]]",5,0,,,,,,6,,
,,,,,single-stim-button,299,1164809,0.0-3.0-25.5-1.5,643bd22e67aeded15060e447,F1,batch6,,1532,,,tol_toboard,,,,,,,,,tol_peg_3,1532,1532,0,"[[3,0,0],[2,0],[1]]",6,"[[1,0,0],[2,3],[0]]",5,0,,,,,,6,,
,,,,,single-stim-button,300,1165776,0.0-3.0-25.6-0.6,643bd22e67aeded15060e447,F1,batch6,,964,,,tol_tohand,,,,,,,,,tol_peg_1,964,964,0,"[[0,0,0],[2,0],[1]]",7,"[[1,0,0],[2,3],[0]]",5,0,,,,,,6,,
,,,,,single-stim-button,301,1166976,0.0-3.0-25.6-1.6,643bd22e67aeded15060e447,F1,batch6,,1198,,,tol_toboard,,,,,,,,,tol_peg_2,1198,1198,0,"[[0,0,0],[2,3],[1]]",7,"[[1,0,0],[2,3],[0]]",5,0,,,,,,6,,
,,,,,single-stim-button,302,1167659,0.0-3.0-25.7-0.7,643bd22e67aeded15060e447,F1,batch6,,682,,,tol_tohand,,,,,,,,,tol_peg_3,682,682,0,"[[0,0,0],[2,3],[0]]",8,"[[1,0,0],[2,3],[0]]",5,0,,,,,,6,,
,,,,,single-stim-button,303,1169009,0.0-3.0-25.7-1.7,643bd22e67aeded15060e447,F1,batch6,,1348,,,tol_toboard,,,,,,,,,tol_peg_1,1348,1348,0,"[[1,0,0],[2,3],[0]]",8,"[[1,0,0],[2,3],[0]]",5,0,,,,,,6,,
,,,,,poldrack-single-stim,304,1170020,0.0-3.0-26.0,643bd22e67aeded15060e447,F1,batch6,,-1,,,tol_feedback,TRUE,,,,,,,,,1000,1000,500,,,,,,-1,none,TRUE,4701,20606,,,
,,,,,html-button-response,305,1171409,0.0-3.0-27.0,643bd22e67aeded15060e447,F1,batch6,,1386,<div class = centerbox><p class = center-block-text>problem <strong>7</strong> out of 25 problems</p></div>,0,tol_trial_num,,,,,,,,,,,,,,,,,,,,,,,,,
,,,,,single-stim-button,306,1181559,0.0-3.0-28.0-0.0,643bd22e67aeded15060e447,F1,batch6,,10147,,,tol_tohand,,,,,,,,,tol_peg_1,10147,10147,0,"[[2,0,0],[0,0],[3]]",1,"[[1,2,0],[3,0],[0]]",6,0,,,,,,5,,
,,,,,single-stim-button,307,1185859,0.0-3.0-28.0-1.0,643bd22e67aeded15060e447,F1,batch6,,4297,,,tol_toboard,,,,,,,,,tol_peg_2,4297,4297,0,"[[2,0,0],[1,0],[3]]",1,"[[1,2,0],[3,0],[0]]",6,0,,,,,,5,,
,,,,,single-stim-button,308,1186875,0.0-3.0-28.1-0.1,643bd22e67aeded15060e447,F1,batch6,,1014,,,tol_tohand,,,,,,,,,tol_peg_1,1014,1014,0,"[[0,0,0],[1,0],[3]]",2,"[[1,2,0],[3,0],[0]]",6,0,,,,,,5,,
,,,,,single-stim-button,309,1188576,0.0-3.0-28.1-1.1,643bd22e67aeded15060e447,F1,batch6,,1698,,,tol_toboard,,,,,,,,,tol_peg_2,1698,1698,0,"[[0,0,0],[1,2],[3]]",2,"[[1,2,0],[3,0],[0]]",6,0,,,,,,5,,
,,,,,single-stim-button,310,1196109,0.0-3.0-28.2-0.2,643bd22e67aeded15060e447,F1,batch6,,7532,,,tol_tohand,,,,,,,,,tol_peg_3,7532,7532,0,"[[0,0,0],[1,2],[0]]",3,"[[1,2,0],[3,0],[0]]",6,0,,,,,,5,,
,,,,,single-stim-button,311,1197192,0.0-3.0-28.2-1.2,643bd22e67aeded15060e447,F1,batch6,,1080,,,tol_toboard,,,,,,,,,tol_peg_1,1080,1080,0,"[[3,0,0],[1,2],[0]]",3,"[[1,2,0],[3,0],[0]]",6,0,,,,,,5,,
,,,,,single-stim-button,312,1198193,0.0-3.0-28.3-0.3,643bd22e67aeded15060e447,F1,batch6,,999,,,tol_tohand,,,,,,,,,tol_peg_2,999,999,0,"[[3,0,0],[1,0],[0]]",4,"[[1,2,0],[3,0],[0]]",6,0,,,,,,5,,
,,,,,single-stim-button,313,1199192,0.0-3.0-28.3-1.3,643bd22e67aeded15060e447,F1,batch6,,998,,,tol_toboard,,,,,,,,,tol_peg_3,998,998,0,"[[3,0,0],[1,0],[2]]",4,"[[1,2,0],[3,0],[0]]",6,0,,,,,,5,,
,,,,,single-stim-button,314,1212675,0.0-3.0-28.4-0.4,643bd22e67aeded15060e447,F1,batch6,,13480,,,tol_tohand,,,,,,,,,tol_peg_2,13480,13480,0,"[[3,0,0],[0,0],[2]]",5,"[[1,2,0],[3,0],[0]]",6,0,,,,,,5,,
,,,,,single-stim-button,315,1213826,0.0-3.0-28.4-1.4,643bd22e67aeded15060e447,F1,batch6,,1150,,,tol_toboard,,,,,,,,,tol_peg_1,1150,1150,0,"[[3,1,0],[0,0],[2]]",5,"[[1,2,0],[3,0],[0]]",6,0,,,,,,5,,
,,,,,single-stim-button,316,1217892,0.0-3.0-28.5-0.5,643bd22e67aeded15060e447,F1,batch6,,4064,,,tol_tohand,,,,,,,,,tol_peg_3,4064,4064,0,"[[3,1,0],[0,0],[0]]",6,"[[1,2,0],[3,0],[0]]",6,0,,,,,,5,,
,,,,,single-stim-button,317,1218676,0.0-3.0-28.5-1.5,643bd22e67aeded15060e447,F1,batch6,,781,,,tol_toboard,,,,,,,,,tol_peg_2,781,781,0,"[[3,1,0],[2,0],[0]]",6,"[[1,2,0],[3,0],[0]]",6,0,,,,,,5,,
,,,,,single-stim-button,318,1219592,0.0-3.0-28.6-0.6,643bd22e67aeded15060e447,F1,batch6,,915,,,tol_tohand,,,,,,,,,tol_peg_1,915,915,0,"[[3,0,0],[2,0],[0]]",7,"[[1,2,0],[3,0],[0]]",6,0,,,,,,5,,
,,,,,single-stim-button,319,1221243,0.0-3.0-28.6-1.6,643bd22e67aeded15060e447,F1,batch6,,1648,,,tol_toboard,,,,,,,,,tol_peg_3,1648,1648,0,"[[3,0,0],[2,0],[1]]",7,"[[1,2,0],[3,0],[0]]",6,0,,,,,,5,,
,,,,,single-stim-button,320,1223526,0.0-3.0-28.7-0.7,643bd22e67aeded15060e447,F1,batch6,,2281,,,tol_tohand,,,,,,,,,tol_peg_1,2281,2281,0,"[[0,0,0],[2,0],[1]]",8,"[[1,2,0],[3,0],[0]]",6,0,,,,,,5,,
,,,,,single-stim-button,321,1224510,0.0-3.0-28.7-1.7,643bd22e67aeded15060e447,F1,batch6,,982,,,tol_toboard,,,,,,,,,tol_peg_2,982,982,0,"[[0,0,0],[2,3],[1]]",8,"[[1,2,0],[3,0],[0]]",6,0,,,,,,5,,
,,,,,single-stim-button,322,1231976,0.0-3.0-28.8-0.8,643bd22e67aeded15060e447,F1,batch6,,7464,,,tol_tohand,,,,,,,,,tol_peg_3,7464,7464,0,"[[0,0,0],[2,3],[0]]",9,"[[1,2,0],[3,0],[0]]",6,0,,,,,,5,,
,,,,,single-stim-button,323,1233310,0.0-3.0-28.8-1.8,643bd22e67aeded15060e447,F1,batch6,,1332,,,tol_toboard,,,,,,,,,tol_peg_1,1332,1332,0,"[[1,0,0],[2,3],[0]]",9,"[[1,2,0],[3,0],[0]]",6,0,,,,,,5,,
,,,,,single-stim-button,324,1238359,0.0-3.0-28.9-0.9,643bd22e67aeded15060e447,F1,batch6,,5046,,,tol_tohand,,,,,,,,,tol_peg_2,5046,5046,0,"[[1,0,0],[2,0],[0]]",10,"[[1,2,0],[3,0],[0]]",6,0,,,,,,5,,
,,,,,single-stim-button,325,1239510,0.0-3.0-28.9-1.9,643bd22e67aeded15060e447,F1,batch6,,1149,,,tol_toboard,,,,,,,,,tol_peg_3,1149,1149,0,"[[1,0,0],[2,0],[3]]",10,"[[1,2,0],[3,0],[0]]",6,0,,,,,,5,,
,,,,,single-stim-button,326,1240259,0.0-3.0-28.10-0.10,643bd22e67aeded15060e447,F1,batch6,,748,,,tol_tohand,,,,,,,,,tol_peg_2,748,748,0,"[[1,0,0],[0,0],[3]]",11,"[[1,2,0],[3,0],[0]]",6,0,,,,,,5,,
,,,,,single-stim-button,327,1241392,0.0-3.0-28.10-1.10,643bd22e67aeded15060e447,F1,batch6,,1131,,,tol_toboard,,,,,,,,,tol_peg_1,1131,1131,0,"[[1,2,0],[0,0],[3]]",11,"[[1,2,0],[3,0],[0]]",6,0,,,,,,5,,
,,,,,single-stim-button,328,1242443,0.0-3.0-28.11-0.11,643bd22e67aeded15060e447,F1,batch6,,1049,,,tol_tohand,,,,,,,,,tol_peg_3,1049,1049,0,"[[1,2,0],[0,0],[0]]",12,"[[1,2,0],[3,0],[0]]",6,0,,,,,,5,,
,,,,,single-stim-button,329,1243376,0.0-3.0-28.11-1.11,643bd22e67aeded15060e447,F1,batch6,,930,,,tol_toboard,,,,,,,,,tol_peg_2,930,930,0,"[[1,2,0],[3,0],[0]]",12,"[[1,2,0],[3,0],[0]]",6,0,,,,,,5,,
,,,,,poldrack-single-stim,330,1244388,0.0-3.0-29.0,643bd22e67aeded15060e447,F1,batch6,,-1,,,tol_feedback,TRUE,,,,,,,,,1000,1000,500,,,,,,-1,none,TRUE,10147,54739,,,
,,,,,html-button-response,331,1245675,0.0-3.0-30.0,643bd22e67aeded15060e447,F1,batch6,,1284.6000000000900,<div class = centerbox><p class = center-block-text>problem <strong>8</strong> out of 25 problems</p></div>,0,tol_trial_num,,,,,,,,,,,,,,,,,,,,,,,,,
,,,,,single-stim-button,332,1251793,0.0-3.0-31.0-0.0,643bd22e67aeded15060e447,F1,batch6,,6116,,,tol_tohand,,,,,,,,,tol_peg_3,6116,6116,0,"[[0,0,0],[2,3],[0]]",1,"[[1,2,0],[3,0],[0]]",7,0,,,,,,4,,
,,,,,single-stim-button,333,1252843,0.0-3.0-31.0-1.0,643bd22e67aeded15060e447,F1,batch6,,1048,,,tol_toboard,,,,,,,,,tol_peg_1,1048,1048,0,"[[1,0,0],[2,3],[0]]",1,"[[1,2,0],[3,0],[0]]",7,0,,,,,,4,,
,,,,,single-stim-button,334,1253859,0.0-3.0-31.1-0.1,643bd22e67aeded15060e447,F1,batch6,,1014,,,tol_tohand,,,,,,,,,tol_peg_2,1014,1014,0,"[[1,0,0],[2,0],[0]]",2,"[[1,2,0],[3,0],[0]]",7,0,,,,,,4,,
,,,,,single-stim-button,335,1255043,0.0-3.0-31.1-1.1,643bd22e67aeded15060e447,F1,batch6,,1182,,,tol_toboard,,,,,,,,,tol_peg_3,1182,1182,0,"[[1,0,0],[2,0],[3]]",2,"[[1,2,0],[3,0],[0]]",7,0,,,,,,4,,
,,,,,single-stim-button,336,1255876,0.0-3.0-31.2-0.2,643bd22e67aeded15060e447,F1,batch6,,831,,,tol_tohand,,,,,,,,,tol_peg_2,831,831,0,"[[1,0,0],[0,0],[3]]",3,"[[1,2,0],[3,0],[0]]",7,0,,,,,,4,,
,,,,,single-stim-button,337,1257026,0.0-3.0-31.2-1.2,643bd22e67aeded15060e447,F1,batch6,,1148,,,tol_toboard,,,,,,,,,tol_peg_1,1148,1148,0,"[[1,2,0],[0,0],[3]]",3,"[[1,2,0],[3,0],[0]]",7,0,,,,,,4,,
,,,,,single-stim-button,338,1257842,0.0-3.0-31.3-0.3,643bd22e67aeded15060e447,F1,batch6,,815,,,tol_tohand,,,,,,,,,tol_peg_3,815,815,0,"[[1,2,0],[0,0],[0]]",4,"[[1,2,0],[3,0],[0]]",7,0,,,,,,4,,
,,,,,single-stim-button,339,1258693,0.0-3.0-31.3-1.3,643bd22e67aeded15060e447,F1,batch6,,848,,,tol_toboard,,,,,,,,,tol_peg_2,848,848,0,"[[1,2,0],[3,0],[0]]",4,"[[1,2,0],[3,0],[0]]",7,0,,,,,,4,,
,,,,,poldrack-single-stim,340,1259701,0.0-3.0-32.0,643bd22e67aeded15060e447,F1,batch6,,-1,,,tol_feedback,TRUE,,,,,,,,,1000,1000,500,,,,,,-1,none,TRUE,6116,8776,,,
,,,,,html-button-response,341,1260925,0.0-3.0-33.0,643bd22e67aeded15060e447,F1,batch6,,1222.6000000000900,<div class = centerbox><p class = center-block-text>problem <strong>9</strong> out of 25 problems</p></div>,0,tol_trial_num,,,,,,,,,,,,,,,,,,,,,,,,,
,,,,,single-stim-button,342,1270476,0.0-3.0-34.0-0.0,643bd22e67aeded15060e447,F1,batch6,,9549,,,tol_tohand,,,,,,,,,tol_peg_3,9549,9549,0,"[[3,2,0],[0,0],[0]]",1,"[[2,1,0],[3,0],[0]]",8,0,,,,,,6,,
,,,,,single-stim-button,343,1271526,0.0-3.0-34.0-1.0,643bd22e67aeded15060e447,F1,batch6,,1047,,,tol_toboard,,,,,,,,,tol_peg_2,1047,1047,0,"[[3,2,0],[1,0],[0]]",1,"[[2,1,0],[3,0],[0]]",8,0,,,,,,6,,
,,,,,single-stim-button,344,1272509,0.0-3.0-34.1-0.1,643bd22e67aeded15060e447,F1,batch6,,982,,,tol_tohand,,,,,,,,,tol_peg_1,982,982,0,"[[3,0,0],[1,0],[0]]",2,"[[2,1,0],[3,0],[0]]",8,0,,,,,,6,,
,,,,,single-stim-button,345,1273510,0.0-3.0-34.1-1.1,643bd22e67aeded15060e447,F1,batch6,,998,,,tol_toboard,,,,,,,,,tol_peg_2,998,998,0,"[[3,0,0],[1,2],[0]]",2,"[[2,1,0],[3,0],[0]]",8,0,,,,,,6,,
,,,,,single-stim-button,346,1274226,0.0-3.0-34.2-0.2,643bd22e67aeded15060e447,F1,batch6,,715,,,tol_tohand,,,,,,,,,tol_peg_1,715,715,0,"[[0,0,0],[1,2],[0]]",3,"[[2,1,0],[3,0],[0]]",8,0,,,,,,6,,
,,,,,single-stim-button,347,1275259,0.0-3.0-34.2-1.2,643bd22e67aeded15060e447,F1,batch6,,1031,,,tol_toboard,,,,,,,,,tol_peg_3,1031,1031,0,"[[0,0,0],[1,2],[3]]",3,"[[2,1,0],[3,0],[0]]",8,0,,,,,,6,,
,,,,,single-stim-button,348,1276359,0.0-3.0-34.3-0.3,643bd22e67aeded15060e447,F1,batch6,,1097,,,tol_tohand,,,,,,,,,tol_peg_2,1097,1097,0,"[[0,0,0],[1,0],[3]]",4,"[[2,1,0],[3,0],[0]]",8,0,,,,,,6,,
,,,,,single-stim-button,349,1277393,0.0-3.0-34.3-1.3,643bd22e67aeded15060e447,F1,batch6,,1032,,,tol_toboard,,,,,,,,,tol_peg_1,1032,1032,0,"[[2,0,0],[1,0],[3]]",4,"[[2,1,0],[3,0],[0]]",8,0,,,,,,6,,
,,,,,single-stim-button,350,1278026,0.0-3.0-34.4-0.4,643bd22e67aeded15060e447,F1,batch6,,631,,,tol_tohand,,,,,,,,,tol_peg_2,631,631,0,"[[2,0,0],[0,0],[3]]",5,"[[2,1,0],[3,0],[0]]",8,0,,,,,,6,,
,,,,,single-stim-button,351,1278943,0.0-3.0-34.4-1.4,643bd22e67aeded15060e447,F1,batch6,,915,,,tol_toboard,,,,,,,,,tol_peg_1,915,915,0,"[[2,1,0],[0,0],[3]]",5,"[[2,1,0],[3,0],[0]]",8,0,,,,,,6,,
,,,,,single-stim-button,352,1279842,0.0-3.0-34.5-0.5,643bd22e67aeded15060e447,F1,batch6,,898,,,tol_tohand,,,,,,,,,tol_peg_3,898,898,0,"[[2,1,0],[0,0],[0]]",6,"[[2,1,0],[3,0],[0]]",8,0,,,,,,6,,
,,,,,single-stim-button,353,1280559,0.0-3.0-34.5-1.5,643bd22e67aeded15060e447,F1,batch6,,715,,,tol_toboard,,,,,,,,,tol_peg_2,715,715,0,"[[2,1,0],[3,0],[0]]",6,"[[2,1,0],[3,0],[0]]",8,0,,,,,,6,,
,,,,,poldrack-single-stim,354,1281569,0.0-3.0-35.0,643bd22e67aeded15060e447,F1,batch6,,-1,,,tol_feedback,TRUE,,,,,,,,,1000,1000,500,,,,,,-1,none,TRUE,9549,13872,,,
,,,,,html-button-response,355,1282859,0.0-3.0-36.0,643bd22e67aeded15060e447,F1,batch6,,1287.6000000000900,<div class = centerbox><p class = center-block-text>problem <strong>10</strong> out of 25 problems</p></div>,0,tol_trial_num,,,,,,,,,,,,,,,,,,,,,,,,,
,,,,,single-stim-button,356,1291277,0.0-3.0-37.0-0.0,643bd22e67aeded15060e447,F1,batch6,,8415,,,tol_tohand,,,,,,,,,tol_peg_2,8415,8415,0,"[[3,0,0],[0,0],[2]]",1,"[[3,0,0],[2,1],[0]]",9,0,,,,,,3,,
,,,,,single-stim-button,357,1292376,0.0-3.0-37.0-1.0,643bd22e67aeded15060e447,F1,batch6,,1097,,,tol_toboard,,,,,,,,,tol_peg_1,1097,1097,0,"[[3,1,0],[0,0],[2]]",1,"[[3,0,0],[2,1],[0]]",9,0,,,,,,3,,
,,,,,single-stim-button,358,1293242,0.0-3.0-37.1-0.1,643bd22e67aeded15060e447,F1,batch6,,865,,,tol_tohand,,,,,,,,,tol_peg_3,865,865,0,"[[3,1,0],[0,0],[0]]",2,"[[3,0,0],[2,1],[0]]",9,0,,,,,,3,,
,,,,,single-stim-button,359,1294059,0.0-3.0-37.1-1.1,643bd22e67aeded15060e447,F1,batch6,,816,,,tol_toboard,,,,,,,,,tol_peg_2,816,816,0,"[[3,1,0],[2,0],[0]]",2,"[[3,0,0],[2,1],[0]]",9,0,,,,,,3,,
,,,,,single-stim-button,360,1295143,0.0-3.0-37.2-0.2,643bd22e67aeded15060e447,F1,batch6,,1081,,,tol_tohand,,,,,,,,,tol_peg_1,1081,1081,0,"[[3,0,0],[2,0],[0]]",3,"[[3,0,0],[2,1],[0]]",9,0,,,,,,3,,
,,,,,single-stim-button,361,1295826,0.0-3.0-37.2-1.2,643bd22e67aeded15060e447,F1,batch6,,681,,,tol_toboard,,,,,,,,,tol_peg_2,681,681,0,"[[3,0,0],[2,1],[0]]",3,"[[3,0,0],[2,1],[0]]",9,0,,,,,,3,,
,,,,,poldrack-single-stim,362,1296832,0.0-3.0-38.0,643bd22e67aeded15060e447,F1,batch6,,-1,,,tol_feedback,TRUE,,,,,,,,,1000,1000,500,,,,,,-1,none,TRUE,8415,10361,,,
,,,,,html-button-response,363,1297926,0.0-3.0-39.0,643bd22e67aeded15060e447,F1,batch6,,1091,<div class = centerbox><p class = center-block-text>problem <strong>11</strong> out of 25 problems</p></div>,0,tol_trial_num,,,,,,,,,,,,,,,,,,,,,,,,,
,,,,,single-stim-button,364,1309677,0.0-3.0-40.0-0.0,643bd22e67aeded15060e447,F1,batch6,,11748,,,tol_tohand,,,,,,,,,tol_peg_2,11748,11748,0,"[[1,2,0],[0,0],[0]]",1,"[[2,0,0],[1,3],[0]]",10,0,,,,,,6,,
,,,,,single-stim-button,365,1310793,0.0-3.0-40.0-1.0,643bd22e67aeded15060e447,F1,batch6,,1114,,,tol_toboard,,,,,,,,,tol_peg_3,1114,1114,0,"[[1,2,0],[0,0],[3]]",1,"[[2,0,0],[1,3],[0]]",10,0,,,,,,6,,
,,,,,single-stim-button,366,1314793,0.0-3.0-40.1-0.1,643bd22e67aeded15060e447,F1,batch6,,3998,,,tol_tohand,,,,,,,,,tol_peg_1,3998,3998,0,"[[1,0,0],[0,0],[3]]",2,"[[2,0,0],[1,3],[0]]",10,0,,,,,,6,,
,,,,,single-stim-button,367,1315726,0.0-3.0-40.1-1.1,643bd22e67aeded15060e447,F1,batch6,,931,,,tol_toboard,,,,,,,,,tol_peg_2,931,931,0,"[[1,0,0],[2,0],[3]]",2,"[[2,0,0],[1,3],[0]]",10,0,,,,,,6,,
,,,,,single-stim-button,368,1319892,0.0-3.0-40.2-0.2,643bd22e67aeded15060e447,F1,batch6,,4165,,,tol_tohand,,,,,,,,,tol_peg_1,4165,4165,0,"[[0,0,0],[2,0],[3]]",3,"[[2,0,0],[1,3],[0]]",10,0,,,,,,6,,
,,,,,single-stim-button,369,1320826,0.0-3.0-40.2-1.2,643bd22e67aeded15060e447,F1,batch6,,931,,,tol_toboard,,,,,,,,,tol_peg_2,931,931,0,"[[0,0,0],[2,1],[3]]",3,"[[2,0,0],[1,3],[0]]",10,0,,,,,,6,,
,,,,,single-stim-button,370,1321743,0.0-3.0-40.3-0.3,643bd22e67aeded15060e447,F1,batch6,,915,,,tol_tohand,,,,,,,,,tol_peg_3,915,915,0,"[[0,0,0],[2,1],[0]]",4,"[[2,0,0],[1,3],[0]]",10,0,,,,,,6,,
,,,,,single-stim-button,371,1322860,0.0-3.0-40.3-1.3,643bd22e67aeded15060e447,F1,batch6,,1115,,,tol_toboard,,,,,,,,,tol_peg_1,1115,1115,0,"[[3,0,0],[2,1],[0]]",4,"[[2,0,0],[1,3],[0]]",10,0,,,,,,6,,
,,,,,single-stim-button,372,1323810,0.0-3.0-40.4-0.4,643bd22e67aeded15060e447,F1,batch6,,948,,,tol_tohand,,,,,,,,,tol_peg_2,948,948,0,"[[3,0,0],[2,0],[0]]",5,"[[2,0,0],[1,3],[0]]",10,0,,,,,,6,,
,,,,,single-stim-button,373,1324976,0.0-3.0-40.4-1.4,643bd22e67aeded15060e447,F1,batch6,,1165,,,tol_toboard,,,,,,,,,tol_peg_3,1165,1165,0,"[[3,0,0],[2,0],[1]]",5,"[[2,0,0],[1,3],[0]]",10,0,,,,,,6,,
,,,,,single-stim-button,374,1336326,0.0-3.0-40.5-0.5,643bd22e67aeded15060e447,F1,batch6,,11347,,,tol_tohand,,,,,,,,,tol_peg_3,11347,11347,0,"[[3,0,0],[2,0],[0]]",6,"[[2,0,0],[1,3],[0]]",10,0,,,,,,6,,
,,,,,single-stim-button,375,1337826,0.0-3.0-40.5-1.5,643bd22e67aeded15060e447,F1,batch6,,1498,,,tol_toboard,,,,,,,,,tol_peg_2,1498,1498,0,"[[3,0,0],[2,1],[0]]",6,"[[2,0,0],[1,3],[0]]",10,0,,,,,,6,,
,,,,,single-stim-button,376,1338610,0.0-3.0-40.6-0.6,643bd22e67aeded15060e447,F1,batch6,,782,,,tol_tohand,,,,,,,,,tol_peg_1,782,782,0,"[[0,0,0],[2,1],[0]]",7,"[[2,0,0],[1,3],[0]]",10,0,,,,,,6,,
,,,,,single-stim-button,377,1339910,0.0-3.0-40.6-1.6,643bd22e67aeded15060e447,F1,batch6,,1298,,,tol_toboard,,,,,,,,,tol_peg_3,1298,1298,0,"[[0,0,0],[2,1],[3]]",7,"[[2,0,0],[1,3],[0]]",10,0,,,,,,6,,
,,,,,single-stim-button,378,1343210,0.0-3.0-40.7-0.7,643bd22e67aeded15060e447,F1,batch6,,3298,,,tol_tohand,,,,,,,,,tol_peg_2,3298,3298,0,"[[0,0,0],[2,0],[3]]",8,"[[2,0,0],[1,3],[0]]",10,0,,,,,,6,,
,,,,,single-stim-button,379,1346026,0.0-3.0-40.7-1.7,643bd22e67aeded15060e447,F1,batch6,,2813,,,tol_toboard,,,,,,,,,tol_peg_1,2813,2813,0,"[[1,0,0],[2,0],[3]]",8,"[[2,0,0],[1,3],[0]]",10,0,,,,,,6,,
,,,,,single-stim-button,380,1352426,0.0-3.0-40.8-0.8,643bd22e67aeded15060e447,F1,batch6,,6397,,,tol_tohand,,,,,,,,,tol_peg_3,6397,6397,0,"[[1,0,0],[2,0],[0]]",9,"[[2,0,0],[1,3],[0]]",10,0,,,,,,6,,
,,,,,single-stim-button,381,1353293,0.0-3.0-40.8-1.8,643bd22e67aeded15060e447,F1,batch6,,864,,,tol_toboard,,,,,,,,,tol_peg_1,864,864,0,"[[1,3,0],[2,0],[0]]",9,"[[2,0,0],[1,3],[0]]",10,0,,,,,,6,,
,,,,,single-stim-button,382,1353859,0.0-3.0-40.9-0.9,643bd22e67aeded15060e447,F1,batch6,,564,,,tol_tohand,,,,,,,,,tol_peg_2,564,564,0,"[[1,3,0],[0,0],[0]]",10,"[[2,0,0],[1,3],[0]]",10,0,,,,,,6,,
,,,,,single-stim-button,383,1354759,0.0-3.0-40.9-1.9,643bd22e67aeded15060e447,F1,batch6,,898,,,tol_toboard,,,,,,,,,tol_peg_3,898,898,0,"[[1,3,0],[0,0],[2]]",10,"[[2,0,0],[1,3],[0]]",10,0,,,,,,6,,
,,,,,single-stim-button,384,1356376,0.0-3.0-40.10-0.10,643bd22e67aeded15060e447,F1,batch6,,1615,,,tol_tohand,,,,,,,,,tol_peg_1,1615,1615,0,"[[1,0,0],[0,0],[2]]",11,"[[2,0,0],[1,3],[0]]",10,0,,,,,,6,,
,,,,,single-stim-button,385,1359893,0.0-3.0-40.10-1.10,643bd22e67aeded15060e447,F1,batch6,,3514,,,tol_toboard,,,,,,,,,tol_peg_2,3514,3514,0,"[[1,0,0],[3,0],[2]]",11,"[[2,0,0],[1,3],[0]]",10,0,,,,,,6,,
,,,,,single-stim-button,386,1360893,0.0-3.0-40.11-0.11,643bd22e67aeded15060e447,F1,batch6,,998,,,tol_tohand,,,,,,,,,tol_peg_1,998,998,0,"[[0,0,0],[3,0],[2]]",12,"[[2,0,0],[1,3],[0]]",10,0,,,,,,6,,
,,,,,single-stim-button,387,1361542,0.0-3.0-40.11-1.11,643bd22e67aeded15060e447,F1,batch6,,646,,,tol_toboard,,,,,,,,,tol_peg_2,646,646,0,"[[0,0,0],[3,1],[2]]",12,"[[2,0,0],[1,3],[0]]",10,0,,,,,,6,,
,,,,,single-stim-button,388,1362293,0.0-3.0-40.12-0.12,643bd22e67aeded15060e447,F1,batch6,,749,,,tol_tohand,,,,,,,,,tol_peg_3,749,749,0,"[[0,0,0],[3,1],[0]]",13,"[[2,0,0],[1,3],[0]]",10,0,,,,,,6,,
,,,,,single-stim-button,389,1363493,0.0-3.0-40.12-1.12,643bd22e67aeded15060e447,F1,batch6,,1199,,,tol_toboard,,,,,,,,,tol_peg_1,1199,1199,0,"[[2,0,0],[3,1],[0]]",13,"[[2,0,0],[1,3],[0]]",10,0,,,,,,6,,
,,,,,single-stim-button,390,1365460,0.0-3.0-40.13-0.13,643bd22e67aeded15060e447,F1,batch6,,1964,,,tol_tohand,,,,,,,,,tol_peg_2,1964,1964,0,"[[2,0,0],[3,0],[0]]",14,"[[2,0,0],[1,3],[0]]",10,0,,,,,,6,,
,,,,,single-stim-button,391,1368410,0.0-3.0-40.13-1.13,643bd22e67aeded15060e447,F1,batch6,,2948,,,tol_toboard,,,,,,,,,tol_peg_1,2948,2948,0,"[[2,1,0],[3,0],[0]]",14,"[[2,0,0],[1,3],[0]]",10,0,,,,,,6,,
,,,,,single-stim-button,392,1369176,0.0-3.0-40.14-0.14,643bd22e67aeded15060e447,F1,batch6,,764,,,tol_tohand,,,,,,,,,tol_peg_2,764,764,0,"[[2,1,0],[0,0],[0]]",15,"[[2,0,0],[1,3],[0]]",10,0,,,,,,6,,
,,,,,single-stim-button,393,1370726,0.0-3.0-40.14-1.14,643bd22e67aeded15060e447,F1,batch6,,1547,,,tol_toboard,,,,,,,,,tol_peg_3,1547,1547,0,"[[2,1,0],[0,0],[3]]",15,"[[2,0,0],[1,3],[0]]",10,0,,,,,,6,,
,,,,,single-stim-button,394,1371693,0.0-3.0-40.15-0.15,643bd22e67aeded15060e447,F1,batch6,,964,,,tol_tohand,,,,,,,,,tol_peg_1,964,964,0,"[[2,0,0],[0,0],[3]]",16,"[[2,0,0],[1,3],[0]]",10,0,,,,,,6,,
,,,,,single-stim-button,395,1372376,0.0-3.0-40.15-1.15,643bd22e67aeded15060e447,F1,batch6,,681,,,tol_toboard,,,,,,,,,tol_peg_2,681,681,0,"[[2,0,0],[1,0],[3]]",16,"[[2,0,0],[1,3],[0]]",10,0,,,,,,6,,
,,,,,single-stim-button,396,1373359,0.0-3.0-40.16-0.16,643bd22e67aeded15060e447,F1,batch6,,981,,,tol_tohand,,,,,,,,,tol_peg_3,981,981,0,"[[2,0,0],[1,0],[0]]",17,"[[2,0,0],[1,3],[0]]",10,0,,,,,,6,,
,,,,,single-stim-button,397,1374176,0.0-3.0-40.16-1.16,643bd22e67aeded15060e447,F1,batch6,,814,,,tol_toboard,,,,,,,,,tol_peg_2,814,814,0,"[[2,0,0],[1,3],[0]]",17,"[[2,0,0],[1,3],[0]]",10,0,,,,,,6,,
,,,,,poldrack-single-stim,398,1375186,0.0-3.0-41.0,643bd22e67aeded15060e447,F1,batch6,,-1,,,tol_feedback,TRUE,,,,,,,,,1000,1000,500,,,,,,-1,none,TRUE,11748,52197,,,
,,,,,html-button-response,399,1376510,0.0-3.0-42.0,643bd22e67aeded15060e447,F1,batch6,,1321.0999999996300,<div class = centerbox><p class = center-block-text>problem <strong>12</strong> out of 25 problems</p></div>,0,tol_trial_num,,,,,,,,,,,,,,,,,,,,,,,,,
,,,,,single-stim-button,400,1382243,0.0-3.0-43.0-0.0,643bd22e67aeded15060e447,F1,batch6,,5730,,,tol_tohand,,,,,,,,,tol_peg_1,5730,5730,0,"[[1,0,0],[3,0],[0]]",1,"[[2,3,0],[0,0],[1]]",11,0,,,,,,4,,
,,,,,single-stim-button,401,1383443,0.0-3.0-43.0-1.0,643bd22e67aeded15060e447,F1,batch6,,1198,,,tol_toboard,,,,,,,,,tol_peg_3,1198,1198,0,"[[1,0,0],[3,0],[2]]",1,"[[2,3,0],[0,0],[1]]",11,0,,,,,,4,,
,,,,,single-stim-button,402,1385443,0.0-3.0-43.1-0.1,643bd22e67aeded15060e447,F1,batch6,,1998,,,tol_tohand,,,,,,,,,tol_peg_1,1998,1998,0,"[[0,0,0],[3,0],[2]]",2,"[[2,3,0],[0,0],[1]]",11,0,,,,,,4,,
,,,,,single-stim-button,403,1386292,0.0-3.0-43.1-1.1,643bd22e67aeded15060e447,F1,batch6,,848,,,tol_toboard,,,,,,,,,tol_peg_2,848,848,0,"[[0,0,0],[3,1],[2]]",2,"[[2,3,0],[0,0],[1]]",11,0,,,,,,4,,
,,,,,single-stim-button,404,1387193,0.0-3.0-43.2-0.2,643bd22e67aeded15060e447,F1,batch6,,899,,,tol_tohand,,,,,,,,,tol_peg_3,899,899,0,"[[0,0,0],[3,1],[0]]",3,"[[2,3,0],[0,0],[1]]",11,0,,,,,,4,,
,,,,,single-stim-button,405,1388610,0.0-3.0-43.2-1.2,643bd22e67aeded15060e447,F1,batch6,,1415,,,tol_toboard,,,,,,,,,tol_peg_1,1415,1415,0,"[[2,0,0],[3,1],[0]]",3,"[[2,3,0],[0,0],[1]]",11,0,,,,,,4,,
,,,,,single-stim-button,406,1389726,0.0-3.0-43.3-0.3,643bd22e67aeded15060e447,F1,batch6,,1114,,,tol_tohand,,,,,,,,,tol_peg_2,1114,1114,0,"[[2,0,0],[3,0],[0]]",4,"[[2,3,0],[0,0],[1]]",11,0,,,,,,4,,
,,,,,single-stim-button,407,1390810,0.0-3.0-43.3-1.3,643bd22e67aeded15060e447,F1,batch6,,1082,,,tol_toboard,,,,,,,,,tol_peg_3,1082,1082,0,"[[2,0,0],[3,0],[1]]",4,"[[2,3,0],[0,0],[1]]",11,0,,,,,,4,,
,,,,,single-stim-button,408,1391626,0.0-3.0-43.4-0.4,643bd22e67aeded15060e447,F1,batch6,,815,,,tol_tohand,,,,,,,,,tol_peg_2,815,815,0,"[[2,0,0],[0,0],[1]]",5,"[[2,3,0],[0,0],[1]]",11,0,,,,,,4,,
,,,,,single-stim-button,409,1392843,0.0-3.0-43.4-1.4,643bd22e67aeded15060e447,F1,batch6,,1214,,,tol_toboard,,,,,,,,,tol_peg_1,1214,1214,0,"[[2,3,0],[0,0],[1]]",5,"[[2,3,0],[0,0],[1]]",11,0,,,,,,4,,
,,,,,poldrack-single-stim,410,1393850,0.0-3.0-44.0,643bd22e67aeded15060e447,F1,batch6,,-1,,,tol_feedback,TRUE,,,,,,,,,1000,1000,500,,,,,,-1,none,TRUE,5730,10556,,,
,,,,,html-button-response,411,1395142,0.0-3.0-45.0,643bd22e67aeded15060e447,F1,batch6,,1289.1000000000900,<div class = centerbox><p class = center-block-text>problem <strong>13</strong> out of 25 problems</p></div>,0,tol_trial_num,,,,,,,,,,,,,,,,,,,,,,,,,
,,,,,single-stim-button,412,1403276,0.0-3.0-46.0-0.0,643bd22e67aeded15060e447,F1,batch6,,8132,,,tol_tohand,,,,,,,,,tol_peg_2,8132,8132,0,"[[1,2,0],[0,0],[0]]",1,"[[0,0,0],[2,3],[1]]",12,0,,,,,,4,,
,,,,,single-stim-button,413,1404293,0.0-3.0-46.0-1.0,643bd22e67aeded15060e447,F1,batch6,,1015,,,tol_toboard,,,,,,,,,tol_peg_3,1015,1015,0,"[[1,2,0],[0,0],[3]]",1,"[[0,0,0],[2,3],[1]]",12,0,,,,,,4,,
,,,,,single-stim-button,414,1405343,0.0-3.0-46.1-0.1,643bd22e67aeded15060e447,F1,batch6,,1048,,,tol_tohand,,,,,,,,,tol_peg_1,1048,1048,0,"[[1,0,0],[0,0],[3]]",2,"[[0,0,0],[2,3],[1]]",12,0,,,,,,4,,
,,,,,single-stim-button,415,1406410,0.0-3.0-46.1-1.1,643bd22e67aeded15060e447,F1,batch6,,1064,,,tol_toboard,,,,,,,,,tol_peg_2,1064,1064,0,"[[1,0,0],[2,0],[3]]",2,"[[0,0,0],[2,3],[1]]",12,0,,,,,,4,,
,,,,,single-stim-button,416,1407176,0.0-3.0-46.2-0.2,643bd22e67aeded15060e447,F1,batch6,,765,,,tol_tohand,,,,,,,,,tol_peg_3,765,765,0,"[[1,0,0],[2,0],[0]]",3,"[[0,0,0],[2,3],[1]]",12,0,,,,,,4,,
,,,,,single-stim-button,417,1408026,0.0-3.0-46.2-1.2,643bd22e67aeded15060e447,F1,batch6,,848,,,tol_toboard,,,,,,,,,tol_peg_2,848,848,0,"[[1,0,0],[2,3],[0]]",3,"[[0,0,0],[2,3],[1]]",12,0,,,,,,4,,
,,,,,single-stim-button,418,1410043,0.0-3.0-46.3-0.3,643bd22e67aeded15060e447,F1,batch6,,2014,,,tol_tohand,,,,,,,,,tol_peg_1,2014,2014,0,"[[0,0,0],[2,3],[0]]",4,"[[0,0,0],[2,3],[1]]",12,0,,,,,,4,,
,,,,,single-stim-button,419,1411493,0.0-3.0-46.3-1.3,643bd22e67aeded15060e447,F1,batch6,,1447,,,tol_toboard,,,,,,,,,tol_peg_3,1447,1447,0,"[[0,0,0],[2,3],[1]]",4,"[[0,0,0],[2,3],[1]]",12,0,,,,,,4,,
,,,,,poldrack-single-stim,420,1412502,0.0-3.0-47.0,643bd22e67aeded15060e447,F1,batch6,,-1,,,tol_feedback,TRUE,,,,,,,,,1000,1000,500,,,,,,-1,none,TRUE,8132,11959,,,
,,,,,html-button-response,421,1416576,0.0-3.0-48.0,643bd22e67aeded15060e447,F1,batch6,,4071.0999999996300,<p class = block-text>How many balls are in your board<br></p>,1,attention_check,TRUE,,,,,,,,,,,,,,,,,,,,,,,,
,,,,,html-button-response,422,1418509,0.0-3.0-49.0,643bd22e67aeded15060e447,F1,batch6,,1930.7000000001900,<div class = centerbox><p class = center-block-text>problem <strong>14</strong> out of 25 problems</p></div>,0,tol_trial_num,,,,,,,,,,,,,,,,,,,,,,,,,
,,,,,single-stim-button,423,1428526,0.0-3.0-50.0-0.0,643bd22e67aeded15060e447,F1,batch6,,10014,,,tol_tohand,,,,,,,,,tol_peg_2,10014,10014,0,"[[2,1,0],[0,0],[0]]",1,"[[1,2,0],[3,0],[0]]",13,0,,,,,,4,,
,,,,,single-stim-button,424,1429809,0.0-3.0-50.0-1.0,643bd22e67aeded15060e447,F1,batch6,,1281,,,tol_toboard,,,,,,,,,tol_peg_3,1281,1281,0,"[[2,1,0],[0,0],[3]]",1,"[[1,2,0],[3,0],[0]]",13,0,,,,,,4,,
,,,,,single-stim-button,425,1431010,0.0-3.0-50.1-0.1,643bd22e67aeded15060e447,F1,batch6,,1198,,,tol_tohand,,,,,,,,,tol_peg_1,1198,1198,0,"[[2,0,0],[0,0],[3]]",2,"[[1,2,0],[3,0],[0]]",13,0,,,,,,4,,
,,,,,single-stim-button,426,1433976,0.0-3.0-50.1-1.1,643bd22e67aeded15060e447,F1,batch6,,2965,,,tol_toboard,,,,,,,,,tol_peg_2,2965,2965,0,"[[2,0,0],[1,0],[3]]",2,"[[1,2,0],[3,0],[0]]",13,0,,,,,,4,,
,,,,,single-stim-button,427,1439126,0.0-3.0-50.2-0.2,643bd22e67aeded15060e447,F1,batch6,,5147,,,tol_tohand,,,,,,,,,tol_peg_2,5147,5147,0,"[[2,0,0],[0,0],[3]]",3,"[[1,2,0],[3,0],[0]]",13,0,,,,,,4,,
,,,,,single-stim-button,428,1440793,0.0-3.0-50.2-1.2,643bd22e67aeded15060e447,F1,batch6,,1665,,,tol_toboard,,,,,,,,,tol_peg_1,1665,1665,0,"[[2,1,0],[0,0],[3]]",3,"[[1,2,0],[3,0],[0]]",13,0,,,,,,4,,
,,,,,single-stim-button,429,1442226,0.0-3.0-50.3-0.3,643bd22e67aeded15060e447,F1,batch6,,1431,,,tol_tohand,,,,,,,,,tol_peg_3,1431,1431,0,"[[2,1,0],[0,0],[0]]",4,"[[1,2,0],[3,0],[0]]",13,0,,,,,,4,,
,,,,,single-stim-button,430,1442893,0.0-3.0-50.3-1.3,643bd22e67aeded15060e447,F1,batch6,,664,,,tol_toboard,,,,,,,,,tol_peg_2,664,664,0,"[[2,1,0],[3,0],[0]]",4,"[[1,2,0],[3,0],[0]]",13,0,,,,,,4,,
,,,,,single-stim-button,431,1443643,0.0-3.0-50.4-0.4,643bd22e67aeded15060e447,F1,batch6,,747,,,tol_tohand,,,,,,,,,tol_peg_1,747,747,0,"[[2,0,0],[3,0],[0]]",5,"[[1,2,0],[3,0],[0]]",13,0,,,,,,4,,
,,,,,single-stim-button,432,1444743,0.0-3.0-50.4-1.4,643bd22e67aeded15060e447,F1,batch6,,1097,,,tol_toboard,,,,,,,,,tol_peg_3,1097,1097,0,"[[2,0,0],[3,0],[1]]",5,"[[1,2,0],[3,0],[0]]",13,0,,,,,,4,,
,,,,,single-stim-button,433,1445893,0.0-3.0-50.5-0.5,643bd22e67aeded15060e447,F1,batch6,,1148,,,tol_tohand,,,,,,,,,tol_peg_1,1148,1148,0,"[[0,0,0],[3,0],[1]]",6,"[[1,2,0],[3,0],[0]]",13,0,,,,,,4,,
,,,,,single-stim-button,434,1446676,0.0-3.0-50.5-1.5,643bd22e67aeded15060e447,F1,batch6,,781,,,tol_toboard,,,,,,,,,tol_peg_2,781,781,0,"[[0,0,0],[3,2],[1]]",6,"[[1,2,0],[3,0],[0]]",13,0,,,,,,4,,
,,,,,single-stim-button,435,1447275,0.0-3.0-50.6-0.6,643bd22e67aeded15060e447,F1,batch6,,597,,,tol_tohand,,,,,,,,,tol_peg_3,597,597,0,"[[0,0,0],[3,2],[0]]",7,"[[1,2,0],[3,0],[0]]",13,0,,,,,,4,,
,,,,,single-stim-button,436,1448610,0.0-3.0-50.6-1.6,643bd22e67aeded15060e447,F1,batch6,,1332,,,tol_toboard,,,,,,,,,tol_peg_1,1332,1332,0,"[[1,0,0],[3,2],[0]]",7,"[[1,2,0],[3,0],[0]]",13,0,,,,,,4,,
,,,,,single-stim-button,437,1450560,0.0-3.0-50.7-0.7,643bd22e67aeded15060e447,F1,batch6,,1948,,,tol_tohand,,,,,,,,,tol_peg_2,1948,1948,0,"[[1,0,0],[3,0],[0]]",8,"[[1,2,0],[3,0],[0]]",13,0,,,,,,4,,
,,,,,single-stim-button,438,1451376,0.0-3.0-50.7-1.7,643bd22e67aeded15060e447,F1,batch6,,815,,,tol_toboard,,,,,,,,,tol_peg_1,815,815,0,"[[1,2,0],[3,0],[0]]",8,"[[1,2,0],[3,0],[0]]",13,0,,,,,,4,,
,,,,,poldrack-single-stim,439,1452384,0.0-3.0-51.0,643bd22e67aeded15060e447,F1,batch6,,-1,,,tol_feedback,TRUE,,,,,,,,,1000,1000,500,,,,,,-1,none,TRUE,10014,22230,,,
,,,,,html-button-response,440,1453359,0.0-3.0-52.0,643bd22e67aeded15060e447,F1,batch6,,972.3999999999070,<div class = centerbox><p class = center-block-text>problem <strong>15</strong> out of 25 problems</p></div>,0,tol_trial_num,,,,,,,,,,,,,,,,,,,,,,,,,
,,,,,single-stim-button,441,1460193,0.0-3.0-53.0-0.0,643bd22e67aeded15060e447,F1,batch6,,6831,,,tol_tohand,,,,,,,,,tol_peg_2,6831,6831,0,"[[1,2,0],[0,0],[0]]",1,"[[2,0,0],[3,0],[1]]",14,0,,,,,,3,,
,,,,,single-stim-button,442,1464293,0.0-3.0-53.0-1.0,643bd22e67aeded15060e447,F1,batch6,,4098,,,tol_toboard,,,,,,,,,tol_peg_3,4098,4098,0,"[[1,2,0],[0,0],[3]]",1,"[[2,0,0],[3,0],[1]]",14,0,,,,,,3,,
,,,,,single-stim-button,443,1465293,0.0-3.0-53.1-0.1,643bd22e67aeded15060e447,F1,batch6,,997,,,tol_tohand,,,,,,,,,tol_peg_1,997,997,0,"[[1,0,0],[0,0],[3]]",2,"[[2,0,0],[3,0],[1]]",14,0,,,,,,3,,
,,,,,single-stim-button,444,1466243,0.0-3.0-53.1-1.1,643bd22e67aeded15060e447,F1,batch6,,947,,,tol_toboard,,,,,,,,,tol_peg_2,947,947,0,"[[1,0,0],[2,0],[3]]",2,"[[2,0,0],[3,0],[1]]",14,0,,,,,,3,,
,,,,,single-stim-button,445,1467926,0.0-3.0-53.2-0.2,643bd22e67aeded15060e447,F1,batch6,,1681,,,tol_tohand,,,,,,,,,tol_peg_1,1681,1681,0,"[[0,0,0],[2,0],[3]]",3,"[[2,0,0],[3,0],[1]]",14,0,,,,,,3,,
,,,,,single-stim-button,446,1473243,0.0-3.0-53.2-1.2,643bd22e67aeded15060e447,F1,batch6,,5315,,,tol_toboard,,,,,,,,,tol_peg_2,5315,5315,0,"[[0,0,0],[2,1],[3]]",3,"[[2,0,0],[3,0],[1]]",14,0,,,,,,3,,
,,,,,single-stim-button,447,1475392,0.0-3.0-53.3-0.3,643bd22e67aeded15060e447,F1,batch6,,2147,,,tol_tohand,,,,,,,,,tol_peg_3,2147,2147,0,"[[0,0,0],[2,1],[0]]",4,"[[2,0,0],[3,0],[1]]",14,0,,,,,,3,,
,,,,,single-stim-button,448,1476293,0.0-3.0-53.3-1.3,643bd22e67aeded15060e447,F1,batch6,,899,,,tol_toboard,,,,,,,,,tol_peg_1,899,899,0,"[[3,0,0],[2,1],[0]]",4,"[[2,0,0],[3,0],[1]]",14,0,,,,,,3,,
,,,,,single-stim-button,449,1477726,0.0-3.0-53.4-0.4,643bd22e67aeded15060e447,F1,batch6,,1431,,,tol_tohand,,,,,,,,,tol_peg_2,1431,1431,0,"[[3,0,0],[2,0],[0]]",5,"[[2,0,0],[3,0],[1]]",14,0,,,,,,3,,
,,,,,single-stim-button,450,1478776,0.0-3.0-53.4-1.4,643bd22e67aeded15060e447,F1,batch6,,1049,,,tol_toboard,,,,,,,,,tol_peg_3,1049,1049,0,"[[3,0,0],[2,0],[1]]",5,"[[2,0,0],[3,0],[1]]",14,0,,,,,,3,,
,,,,,single-stim-button,451,1488193,0.0-3.0-53.5-0.5,643bd22e67aeded15060e447,F1,batch6,,9414,,,tol_tohand,,,,,,,,,tol_peg_3,9414,9414,0,"[[3,0,0],[2,0],[0]]",6,"[[2,0,0],[3,0],[1]]",14,0,,,,,,3,,
,,,,,single-stim-button,452,1489076,0.0-3.0-53.5-1.5,643bd22e67aeded15060e447,F1,batch6,,882,,,tol_toboard,,,,,,,,,tol_peg_1,882,882,0,"[[3,1,0],[2,0],[0]]",6,"[[2,0,0],[3,0],[1]]",14,0,,,,,,3,,
,,,,,single-stim-button,453,1490176,0.0-3.0-53.6-0.6,643bd22e67aeded15060e447,F1,batch6,,1098,,,tol_tohand,,,,,,,,,tol_peg_2,1098,1098,0,"[[3,1,0],[0,0],[0]]",7,"[[2,0,0],[3,0],[1]]",14,0,,,,,,3,,
,,,,,single-stim-button,454,1491410,0.0-3.0-53.6-1.6,643bd22e67aeded15060e447,F1,batch6,,1231,,,tol_toboard,,,,,,,,,tol_peg_3,1231,1231,0,"[[3,1,0],[0,0],[2]]",7,"[[2,0,0],[3,0],[1]]",14,0,,,,,,3,,
,,,,,single-stim-button,455,1492343,0.0-3.0-53.7-0.7,643bd22e67aeded15060e447,F1,batch6,,931,,,tol_tohand,,,,,,,,,tol_peg_1,931,931,0,"[[3,0,0],[0,0],[2]]",8,"[[2,0,0],[3,0],[1]]",14,0,,,,,,3,,
,,,,,single-stim-button,456,1493143,0.0-3.0-53.7-1.7,643bd22e67aeded15060e447,F1,batch6,,797,,,tol_toboard,,,,,,,,,tol_peg_2,797,797,0,"[[3,0,0],[1,0],[2]]",8,"[[2,0,0],[3,0],[1]]",14,0,,,,,,3,,
,,,,,single-stim-button,457,1494592,0.0-3.0-53.8-0.8,643bd22e67aeded15060e447,F1,batch6,,1447,,,tol_tohand,,,,,,,,,tol_peg_1,1447,1447,0,"[[0,0,0],[1,0],[2]]",9,"[[2,0,0],[3,0],[1]]",14,0,,,,,,3,,
,,,,,single-stim-button,458,1495310,0.0-3.0-53.8-1.8,643bd22e67aeded15060e447,F1,batch6,,715,,,tol_toboard,,,,,,,,,tol_peg_2,715,715,0,"[[0,0,0],[1,3],[2]]",9,"[[2,0,0],[3,0],[1]]",14,0,,,,,,3,,
,,,,,single-stim-button,459,1496093,0.0-3.0-53.9-0.9,643bd22e67aeded15060e447,F1,batch6,,780,,,tol_tohand,,,,,,,,,tol_peg_3,780,780,0,"[[0,0,0],[1,3],[0]]",10,"[[2,0,0],[3,0],[1]]",14,0,,,,,,3,,
,,,,,single-stim-button,460,1496993,0.0-3.0-53.9-1.9,643bd22e67aeded15060e447,F1,batch6,,898,,,tol_toboard,,,,,,,,,tol_peg_1,898,898,0,"[[2,0,0],[1,3],[0]]",10,"[[2,0,0],[3,0],[1]]",14,0,,,,,,3,,
,,,,,single-stim-button,461,1498543,0.0-3.0-53.10-0.10,643bd22e67aeded15060e447,F1,batch6,,1547,,,tol_tohand,,,,,,,,,tol_peg_2,1547,1547,0,"[[2,0,0],[1,0],[0]]",11,"[[2,0,0],[3,0],[1]]",14,0,,,,,,3,,
,,,,,single-stim-button,462,1499643,0.0-3.0-53.10-1.10,643bd22e67aeded15060e447,F1,batch6,,1099,,,tol_toboard,,,,,,,,,tol_peg_1,1099,1099,0,"[[2,3,0],[1,0],[0]]",11,"[[2,0,0],[3,0],[1]]",14,0,,,,,,3,,
,,,,,single-stim-button,463,1500659,0.0-3.0-53.11-0.11,643bd22e67aeded15060e447,F1,batch6,,1015,,,tol_tohand,,,,,,,,,tol_peg_2,1015,1015,0,"[[2,3,0],[0,0],[0]]",12,"[[2,0,0],[3,0],[1]]",14,0,,,,,,3,,
,,,,,single-stim-button,464,1501676,0.0-3.0-53.11-1.11,643bd22e67aeded15060e447,F1,batch6,,1015,,,tol_toboard,,,,,,,,,tol_peg_3,1015,1015,0,"[[2,3,0],[0,0],[1]]",12,"[[2,0,0],[3,0],[1]]",14,0,,,,,,3,,
,,,,,single-stim-button,465,1503110,0.0-3.0-53.12-0.12,643bd22e67aeded15060e447,F1,batch6,,1431,,,tol_tohand,,,,,,,,,tol_peg_1,1431,1431,0,"[[2,0,0],[0,0],[1]]",13,"[[2,0,0],[3,0],[1]]",14,0,,,,,,3,,
,,,,,single-stim-button,466,1503809,0.0-3.0-53.12-1.12,643bd22e67aeded15060e447,F1,batch6,,698,,,tol_toboard,,,,,,,,,tol_peg_2,698,698,0,"[[2,0,0],[3,0],[1]]",13,"[[2,0,0],[3,0],[1]]",14,0,,,,,,3,,
,,,,,poldrack-single-stim,467,1504821,0.0-3.0-54.0,643bd22e67aeded15060e447,F1,batch6,,-1,,,tol_feedback,TRUE,,,,,,,,,1000,1000,500,,,,,,-1,none,TRUE,6831,30750,,,
,,,,,html-button-response,468,1505893,0.0-3.0-55.0,643bd22e67aeded15060e447,F1,batch6,,1069.7000000001900,<div class = centerbox><p class = center-block-text>problem <strong>16</strong> out of 25 problems</p></div>,0,tol_trial_num,,,,,,,,,,,,,,,,,,,,,,,,,
,,,,,single-stim-button,469,1521610,0.0-3.0-56.0-0.0,643bd22e67aeded15060e447,F1,batch6,,15714,,,tol_tohand,,,,,,,,,tol_peg_3,15714,15714,0,"[[0,0,0],[2,3],[0]]",1,"[[2,3,0],[1,0],[0]]",15,0,,,,,,7,,
,,,,,single-stim-button,470,1522610,0.0-3.0-56.0-1.0,643bd22e67aeded15060e447,F1,batch6,,997,,,tol_toboard,,,,,,,,,tol_peg_1,997,997,0,"[[1,0,0],[2,3],[0]]",1,"[[2,3,0],[1,0],[0]]",15,0,,,,,,7,,
,,,,,single-stim-button,471,1523894,0.0-3.0-56.1-0.1,643bd22e67aeded15060e447,F1,batch6,,1282,,,tol_tohand,,,,,,,,,tol_peg_2,1282,1282,0,"[[1,0,0],[2,0],[0]]",2,"[[2,3,0],[1,0],[0]]",15,0,,,,,,7,,
,,,,,single-stim-button,472,1526526,0.0-3.0-56.1-1.1,643bd22e67aeded15060e447,F1,batch6,,2631,,,tol_toboard,,,,,,,,,tol_peg_1,2631,2631,0,"[[1,3,0],[2,0],[0]]",2,"[[2,3,0],[1,0],[0]]",15,0,,,,,,7,,
,,,,,single-stim-button,473,1527426,0.0-3.0-56.2-0.2,643bd22e67aeded15060e447,F1,batch6,,898,,,tol_tohand,,,,,,,,,tol_peg_2,898,898,0,"[[1,3,0],[0,0],[0]]",3,"[[2,3,0],[1,0],[0]]",15,0,,,,,,7,,
,,,,,single-stim-button,474,1528793,0.0-3.0-56.2-1.2,643bd22e67aeded15060e447,F1,batch6,,1364,,,tol_toboard,,,,,,,,,tol_peg_3,1364,1364,0,"[[1,3,0],[0,0],[2]]",3,"[[2,3,0],[1,0],[0]]",15,0,,,,,,7,,
,,,,,single-stim-button,475,1529643,0.0-3.0-56.3-0.3,643bd22e67aeded15060e447,F1,batch6,,848,,,tol_tohand,,,,,,,,,tol_peg_1,848,848,0,"[[1,0,0],[0,0],[2]]",4,"[[2,3,0],[1,0],[0]]",15,0,,,,,,7,,
,,,,,single-stim-button,476,1531576,0.0-3.0-56.3-1.3,643bd22e67aeded15060e447,F1,batch6,,1932,,,tol_toboard,,,,,,,,,tol_peg_2,1932,1932,0,"[[1,0,0],[3,0],[2]]",4,"[[2,3,0],[1,0],[0]]",15,0,,,,,,7,,
,,,,,single-stim-button,477,1532360,0.0-3.0-56.4-0.4,643bd22e67aeded15060e447,F1,batch6,,781,,,tol_tohand,,,,,,,,,tol_peg_1,781,781,0,"[[0,0,0],[3,0],[2]]",5,"[[2,3,0],[1,0],[0]]",15,0,,,,,,7,,
,,,,,single-stim-button,478,1533460,0.0-3.0-56.4-1.4,643bd22e67aeded15060e447,F1,batch6,,1098,,,tol_toboard,,,,,,,,,tol_peg_2,1098,1098,0,"[[0,0,0],[3,1],[2]]",5,"[[2,3,0],[1,0],[0]]",15,0,,,,,,7,,
,,,,,single-stim-button,479,1534043,0.0-3.0-56.5-0.5,643bd22e67aeded15060e447,F1,batch6,,581,,,tol_tohand,,,,,,,,,tol_peg_3,581,581,0,"[[0,0,0],[3,1],[0]]",6,"[[2,3,0],[1,0],[0]]",15,0,,,,,,7,,
,,,,,single-stim-button,480,1534926,0.0-3.0-56.5-1.5,643bd22e67aeded15060e447,F1,batch6,,882,,,tol_toboard,,,,,,,,,tol_peg_1,882,882,0,"[[2,0,0],[3,1],[0]]",6,"[[2,3,0],[1,0],[0]]",15,0,,,,,,7,,
,,,,,single-stim-button,481,1536177,0.0-3.0-56.6-0.6,643bd22e67aeded15060e447,F1,batch6,,1248,,,tol_tohand,,,,,,,,,tol_peg_2,1248,1248,0,"[[2,0,0],[3,0],[0]]",7,"[[2,3,0],[1,0],[0]]",15,0,,,,,,7,,
,,,,,single-stim-button,482,1537326,0.0-3.0-56.6-1.6,643bd22e67aeded15060e447,F1,batch6,,1148,,,tol_toboard,,,,,,,,,tol_peg_3,1148,1148,0,"[[2,0,0],[3,0],[1]]",7,"[[2,3,0],[1,0],[0]]",15,0,,,,,,7,,
,,,,,single-stim-button,483,1538060,0.0-3.0-56.7-0.7,643bd22e67aeded15060e447,F1,batch6,,731,,,tol_tohand,,,,,,,,,tol_peg_2,731,731,0,"[[2,0,0],[0,0],[1]]",8,"[[2,3,0],[1,0],[0]]",15,0,,,,,,7,,
,,,,,single-stim-button,484,1539076,0.0-3.0-56.7-1.7,643bd22e67aeded15060e447,F1,batch6,,1015,,,tol_toboard,,,,,,,,,tol_peg_1,1015,1015,0,"[[2,3,0],[0,0],[1]]",8,"[[2,3,0],[1,0],[0]]",15,0,,,,,,7,,
,,,,,single-stim-button,485,1540260,0.0-3.0-56.8-0.8,643bd22e67aeded15060e447,F1,batch6,,1181,,,tol_tohand,,,,,,,,,tol_peg_3,1181,1181,0,"[[2,3,0],[0,0],[0]]",9,"[[2,3,0],[1,0],[0]]",15,0,,,,,,7,,
,,,,,single-stim-button,486,1541559,0.0-3.0-56.8-1.8,643bd22e67aeded15060e447,F1,batch6,,1297,,,tol_toboard,,,,,,,,,tol_peg_2,1297,1297,0,"[[2,3,0],[1,0],[0]]",9,"[[2,3,0],[1,0],[0]]",15,0,,,,,,7,,
,,,,,poldrack-single-stim,487,1542565,0.0-3.0-57.0,643bd22e67aeded15060e447,F1,batch6,,-1,,,tol_feedback,TRUE,,,,,,,,,1000,1000,500,,,,,,-1,none,TRUE,15714,23264,,,
,,,,,html-button-response,488,1544976,0.0-3.0-58.0,643bd22e67aeded15060e447,F1,batch6,,2409.5,<div class = centerbox><p class = center-block-text>problem <strong>17</strong> out of 25 problems</p></div>,0,tol_trial_num,,,,,,,,,,,,,,,,,,,,,,,,,
,,,,,single-stim-button,489,1551810,0.0-3.0-59.0-0.0,643bd22e67aeded15060e447,F1,batch6,,6831,,,tol_tohand,,,,,,,,,tol_peg_1,6831,6831,0,"[[1,0,0],[3,0],[0]]",1,"[[3,1,0],[2,0],[0]]",16,0,,,,,,5,,
