"success","timeout","failed_images","failed_audio","failed_video","trial_type","trial_index","time_elapsed","internal_node_id","subject_id","study_id","session_id","task","rt","stimulus","response","item","answer","correct","spm_correct","spm_rt","view_history","mouse_click","stim_duration","block_duration","timing_post_trial","current_position","tol_num_moves_made","tol_target","tol_problem_id","tol_rt","key_press","possible_responses","tol_correct","preplanning","tol_rt_per_trial","tol_min_moves","fiar_detect_rt","fiar_detect_correct","total_correct_fiar_detect","post_trial_gap","choices"
"true","false","[]","[]","[]","preload","0","2729","0.0-0.0","644046332ff32db7f7b8a7b6","F1","batch6","","","","","","","","","","","","","","","","","","","","","","","","","","","","","",""
"true","","","","","fullscreen","1","18188","0.0-1.0-0.0","644046332ff32db7f7b8a7b6","F1","batch6","","","","","","","","","","","","","","","","","","","","","","","","","","","","","",""
"true","","","","","fullscreen","2","21083","0.0-2.0-0.0","644046332ff32db7f7b8a7b6","F1","batch6","spm_fullscreen","","","","","","","","","","","","","","","","","","","","","","","","","","","","",""
"","","","","","html-button-response","3","34265","0.0-2.0-1.0","644046332ff32db7f7b8a7b6","F1","batch6","","13177.099999999977","<p class = block-text><b>Instructions</b> <br>This is a widely used intelligence test in research. <br>In this test, a figure with a missing piece will be presented.<br>Below the figure are alternative pieces to complete the figure, only one of which is correct.<br> Different figures might involve different principles for obtaining the missing piece<br>Your job is to select the most logical piece to complete the figure.</p>","0","","","","","","","","","","","","","","","","","","","","","","","","","",""
"","","","","","html-keyboard-response","4","35083","0.0-2.0-2.0-0.0","644046332ff32db7f7b8a7b6","F1","batch6","spm_show_trial_num","null","<p class=block-text>Trial 1 out of 60</p>","null","","","","","","","","","","","","","","","","","","","","","","","","","",""
"","","","","","image-button-response","5","42851","0.0-2.0-2.0-1.0","644046332ff32db7f7b8a7b6","F1","batch6","spm_respsonse","7756.899999999994","img/question_1_1.jpeg","3","mat_01","4","1","1","7756.899999999994","","","","","","","","","","","","","","","","","","","","",""
"","","","","","html-keyboard-response","6","43918","0.0-2.0-2.0-0.1","644046332ff32db7f7b8a7b6","F1","batch6","spm_show_trial_num","null","<p class=block-text>Trial 2 out of 60</p>","null","","","","","","","","","","","","","","","","","","","","","","","","","",""
"","","","","","image-button-response","7","46086","0.0-2.0-2.0-1.1","644046332ff32db7f7b8a7b6","F1","batch6","spm_respsonse","2162.5","img/question_1_2.jpeg","4","mat_02","5","1","1","2162.5","","","","","","","","","","","","","","","","","","","","",""
"","","","","","html-keyboard-response","8","47147","0.0-2.0-2.0-0.2","644046332ff32db7f7b8a7b6","F1","batch6","spm_show_trial_num","null","<p class=block-text>Trial 3 out of 60</p>","null","","","","","","","","","","","","","","","","","","","","","","","","","",""
"","","","","","image-button-response","9","49709","0.0-2.0-2.0-1.2","644046332ff32db7f7b8a7b6","F1","batch6","spm_respsonse","2550.1999999999825","img/question_1_3.jpeg","0","mat_03","1","1","1","2550.1999999999825","","","","","","","","","","","","","","","","","","","","",""
"","","","","","html-keyboard-response","10","50771","0.0-2.0-2.0-0.3","644046332ff32db7f7b8a7b6","F1","batch6","spm_show_trial_num","null","<p class=block-text>Trial 4 out of 60</p>","null","","","","","","","","","","","","","","","","","","","","","","","","","",""
"","","","","","image-button-response","11","55115","0.0-2.0-2.0-1.3","644046332ff32db7f7b8a7b6","F1","batch6","spm_respsonse","4339.1999999999825","img/question_1_4.jpeg","1","mat_04","2","1","1","4339.1999999999825","","","","","","","","","","","","","","","","","","","","",""
"","","","","","html-keyboard-response","12","56180","0.0-2.0-2.0-0.4","644046332ff32db7f7b8a7b6","F1","batch6","spm_show_trial_num","null","<p class=block-text>Trial 5 out of 60</p>","null","","","","","","","","","","","","","","","","","","","","","","","","","",""
"","","","","","image-button-response","13","61931","0.0-2.0-2.0-1.4","644046332ff32db7f7b8a7b6","F1","batch6","spm_respsonse","5746.100000000006","img/question_1_5.jpeg","5","mat_05","6","1","1","5746.100000000006","","","","","","","","","","","","","","","","","","","","",""
"","","","","","html-keyboard-response","14","62995","0.0-2.0-2.0-0.5","644046332ff32db7f7b8a7b6","F1","batch6","spm_show_trial_num","null","<p class=block-text>Trial 6 out of 60</p>","null","","","","","","","","","","","","","","","","","","","","","","","","","",""
"","","","","","image-button-response","15","68042","0.0-2.0-2.0-1.5","644046332ff32db7f7b8a7b6","F1","batch6","spm_respsonse","5037.799999999988","img/question_1_6.jpeg","2","mat_06","3","1","1","5037.799999999988","","","","","","","","","","","","","","","","","","","","",""
"","","","","","html-keyboard-response","16","69109","0.0-2.0-2.0-0.6","644046332ff32db7f7b8a7b6","F1","batch6","spm_show_trial_num","null","<p class=block-text>Trial 7 out of 60</p>","null","","","","","","","","","","","","","","","","","","","","","","","","","",""
"","","","","","image-button-response","17","74385","0.0-2.0-2.0-1.6","644046332ff32db7f7b8a7b6","F1","batch6","spm_respsonse","5266.299999999988","img/question_1_7.jpeg","5","mat_07","6","1","1","5266.299999999988","","","","","","","","","","","","","","","","","","","","",""
"","","","","","html-keyboard-response","18","75451","0.0-2.0-2.0-0.7","644046332ff32db7f7b8a7b6","F1","batch6","spm_show_trial_num","null","<p class=block-text>Trial 8 out of 60</p>","null","","","","","","","","","","","","","","","","","","","","","","","","","",""
"","","","","","image-button-response","19","84689","0.0-2.0-2.0-1.7","644046332ff32db7f7b8a7b6","F1","batch6","spm_respsonse","9233.099999999977","img/question_1_8.jpeg","1","mat_08","2","1","1","9233.099999999977","","","","","","","","","","","","","","","","","","","","",""
"","","","","","html-keyboard-response","20","85794","0.0-2.0-2.0-0.8","644046332ff32db7f7b8a7b6","F1","batch6","spm_show_trial_num","null","<p class=block-text>Trial 9 out of 60</p>","null","","","","","","","","","","","","","","","","","","","","","","","","","",""
"","","","","","image-button-response","21","89857","0.0-2.0-2.0-1.8","644046332ff32db7f7b8a7b6","F1","batch6","spm_respsonse","4055.7999999999884","img/question_1_9.jpeg","0","mat_09","1","1","1","4055.7999999999884","","","","","","","","","","","","","","","","","","","","",""
"","","","","","html-keyboard-response","22","90917","0.0-2.0-2.0-0.9","644046332ff32db7f7b8a7b6","F1","batch6","spm_show_trial_num","null","<p class=block-text>Trial 10 out of 60</p>","null","","","","","","","","","","","","","","","","","","","","","","","","","",""
"","","","","","image-button-response","23","98606","0.0-2.0-2.0-1.9","644046332ff32db7f7b8a7b6","F1","batch6","spm_respsonse","7684.1999999999825","img/question_1_10.jpeg","2","mat_10","3","1","1","7684.1999999999825","","","","","","","","","","","","","","","","","","","","",""
"","","","","","html-keyboard-response","24","99662","0.0-2.0-2.0-0.10","644046332ff32db7f7b8a7b6","F1","batch6","spm_show_trial_num","null","<p class=block-text>Trial 11 out of 60</p>","null","","","","","","","","","","","","","","","","","","","","","","","","","",""
"","","","","","image-button-response","25","111143","0.0-2.0-2.0-1.10","644046332ff32db7f7b8a7b6","F1","batch6","spm_respsonse","11475.299999999988","img/question_1_11.jpeg","3","mat_11","4","1","1","11475.299999999988","","","","","","","","","","","","","","","","","","","","",""
"","","","","","html-keyboard-response","26","112197","0.0-2.0-2.0-0.11","644046332ff32db7f7b8a7b6","F1","batch6","spm_show_trial_num","null","<p class=block-text>Trial 12 out of 60</p>","null","","","","","","","","","","","","","","","","","","","","","","","","","",""
"","","","","","image-button-response","27","119356","0.0-2.0-2.0-1.11","644046332ff32db7f7b8a7b6","F1","batch6","spm_respsonse","7154.400000000023","img/question_1_12.jpeg","4","mat_12","5","1","1","7154.400000000023","","","","","","","","","","","","","","","","","","","","",""
"","","","","","html-keyboard-response","28","120415","0.0-2.0-2.0-0.12","644046332ff32db7f7b8a7b6","F1","batch6","spm_show_trial_num","null","<p class=block-text>Trial 13 out of 60</p>","null","","","","","","","","","","","","","","","","","","","","","","","","","",""
"","","","","","image-button-response","29","124688","0.0-2.0-2.0-1.12","644046332ff32db7f7b8a7b6","F1","batch6","spm_respsonse","4269.299999999988","img/question_2_1.jpeg","1","mat_13","2","1","1","4269.299999999988","","","","","","","","","","","","","","","","","","","","",""
"","","","","","html-keyboard-response","30","125747","0.0-2.0-2.0-0.13","644046332ff32db7f7b8a7b6","F1","batch6","spm_show_trial_num","null","<p class=block-text>Trial 14 out of 60</p>","null","","","","","","","","","","","","","","","","","","","","","","","","","",""
"","","","","","image-button-response","31","133573","0.0-2.0-2.0-1.13","644046332ff32db7f7b8a7b6","F1","batch6","spm_respsonse","7815.5","img/question_2_2.jpeg","5","mat_14","6","1","1","7815.5","","","","","","","","","","","","","","","","","","","","",""
"","","","","","html-keyboard-response","32","134638","0.0-2.0-2.0-0.14","644046332ff32db7f7b8a7b6","F1","batch6","spm_show_trial_num","null","<p class=block-text>Trial 15 out of 60</p>","null","","","","","","","","","","","","","","","","","","","","","","","","","",""
"","","","","","image-button-response","33","141459","0.0-2.0-2.0-1.14","644046332ff32db7f7b8a7b6","F1","batch6","spm_respsonse","6808.199999999953","img/question_2_3.jpeg","0","mat_15","1","1","1","6808.199999999953","","","","","","","","","","","","","","","","","","","","",""
"","","","","","html-keyboard-response","34","142523","0.0-2.0-2.0-0.15","644046332ff32db7f7b8a7b6","F1","batch6","spm_show_trial_num","null","<p class=block-text>Trial 16 out of 60</p>","null","","","","","","","","","","","","","","","","","","","","","","","","","",""
"","","","","","image-button-response","35","145874","0.0-2.0-2.0-1.15","644046332ff32db7f7b8a7b6","F1","batch6","spm_respsonse","3343.2000000000116","img/question_2_4.jpeg","1","mat_16","2","1","1","3343.2000000000116","","","","","","","","","","","","","","","","","","","","",""
"","","","","","html-keyboard-response","36","146939","0.0-2.0-2.0-0.16","644046332ff32db7f7b8a7b6","F1","batch6","spm_show_trial_num","null","<p class=block-text>Trial 17 out of 60</p>","null","","","","","","","","","","","","","","","","","","","","","","","","","",""
"","","","","","image-button-response","37","150187","0.0-2.0-2.0-1.16","644046332ff32db7f7b8a7b6","F1","batch6","spm_respsonse","3237.0999999999767","img/question_2_5.jpeg","0","mat_17","1","1","1","3237.0999999999767","","","","","","","","","","","","","","","","","","","","",""
"","","","","","html-keyboard-response","38","151255","0.0-2.0-2.0-0.17","644046332ff32db7f7b8a7b6","F1","batch6","spm_show_trial_num","null","<p class=block-text>Trial 18 out of 60</p>","null","","","","","","","","","","","","","","","","","","","","","","","","","",""
"","","","","","image-button-response","39","155975","0.0-2.0-2.0-1.17","644046332ff32db7f7b8a7b6","F1","batch6","spm_respsonse","4713.900000000023","img/question_2_6.jpeg","2","mat_18","3","1","1","4713.900000000023","","","","","","","","","","","","","","","","","","","","",""
"","","","","","html-keyboard-response","40","157035","0.0-2.0-2.0-0.18","644046332ff32db7f7b8a7b6","F1","batch6","spm_show_trial_num","null","<p class=block-text>Trial 19 out of 60</p>","null","","","","","","","","","","","","","","","","","","","","","","","","","",""
"","","","","","image-button-response","41","161117","0.0-2.0-2.0-1.18","644046332ff32db7f7b8a7b6","F1","batch6","spm_respsonse","4076.4000000000233","img/question_2_7.jpeg","4","mat_19","5","1","1","4076.4000000000233","","","","","","","","","","","","","","","","","","","","",""
"","","","","","html-keyboard-response","42","162186","0.0-2.0-2.0-0.19","644046332ff32db7f7b8a7b6","F1","batch6","spm_show_trial_num","null","<p class=block-text>Trial 20 out of 60</p>","null","","","","","","","","","","","","","","","","","","","","","","","","","",""
"","","","","","image-button-response","43","163889","0.0-2.0-2.0-1.19","644046332ff32db7f7b8a7b6","F1","batch6","spm_respsonse","1695.8000000000466","img/question_2_8.jpeg","4","mat_20","6","0","0","1695.8000000000466","","","","","","","","","","","","","","","","","","","","",""
"","","","","","html-keyboard-response","44","164955","0.0-2.0-2.0-0.20","644046332ff32db7f7b8a7b6","F1","batch6","spm_show_trial_num","null","<p class=block-text>Trial 21 out of 60</p>","null","","","","","","","","","","","","","","","","","","","","","","","","","",""
"","","","","","image-button-response","45","168552","0.0-2.0-2.0-1.20","644046332ff32db7f7b8a7b6","F1","batch6","spm_respsonse","3591","img/question_2_9.jpeg","5","mat_21","4","0","0","3591","","","","","","","","","","","","","","","","","","","","",""
"","","","","","html-keyboard-response","46","169624","0.0-2.0-2.0-0.21","644046332ff32db7f7b8a7b6","F1","batch6","spm_show_trial_num","null","<p class=block-text>Trial 22 out of 60</p>","null","","","","","","","","","","","","","","","","","","","","","","","","","",""
"","","","","","image-button-response","47","174019","0.0-2.0-2.0-1.21","644046332ff32db7f7b8a7b6","F1","batch6","spm_respsonse","4380.5","img/question_2_10.jpeg","2","mat_22","3","1","1","4380.5","","","","","","","","","","","","","","","","","","","","",""
"","","","","","html-keyboard-response","48","175083","0.0-2.0-2.0-0.22","644046332ff32db7f7b8a7b6","F1","batch6","spm_show_trial_num","null","<p class=block-text>Trial 23 out of 60</p>","null","","","","","","","","","","","","","","","","","","","","","","","","","",""
"","","","","","image-button-response","49","182946","0.0-2.0-2.0-1.22","644046332ff32db7f7b8a7b6","F1","batch6","spm_respsonse","7850.900000000023","img/question_2_11.jpeg","3","mat_23","4","1","1","7850.900000000023","","","","","","","","","","","","","","","","","","","","",""
"","","","","","html-keyboard-response","50","184027","0.0-2.0-2.0-0.23","644046332ff32db7f7b8a7b6","F1","batch6","spm_show_trial_num","null","<p class=block-text>Trial 24 out of 60</p>","null","","","","","","","","","","","","","","","","","","","","","","","","","",""
"","","","","","image-button-response","51","193750","0.0-2.0-2.0-1.23","644046332ff32db7f7b8a7b6","F1","batch6","spm_respsonse","9715.200000000012","img/question_2_12.jpeg","1","mat_24","5","0","0","9715.200000000012","","","","","","","","","","","","","","","","","","","","",""
"","","","","","html-button-response","52","195967","0.0-2.0-3.0","644046332ff32db7f7b8a7b6","F1","batch6","attention_check","1953.5999999999767","<p class = block-text>Attention check: Please choose 1<br></p>","0","","","true","","","","","","","","","","","","","","","","","","","","","","",""
"","","","","","html-keyboard-response","53","196779","0.0-2.0-4.0-0.0","644046332ff32db7f7b8a7b6","F1","batch6","spm_show_trial_num","null","<p class=block-text>Trial 25 out of 60</p>","null","","","","","","","","","","","","","","","","","","","","","","","","","",""
"","","","","","image-button-response","54","201546","0.0-2.0-4.0-1.0","644046332ff32db7f7b8a7b6","F1","batch6","spm_respsonse","4762.5","img/question_3_1.jpeg","7","mat_25","8","1","1","4762.5","","","","","","","","","","","","","","","","","","","","",""
"","","","","","html-keyboard-response","55","202611","0.0-2.0-4.0-0.1","644046332ff32db7f7b8a7b6","F1","batch6","spm_show_trial_num","null","<p class=block-text>Trial 26 out of 60</p>","null","","","","","","","","","","","","","","","","","","","","","","","","","",""
"","","","","","image-button-response","56","210060","0.0-2.0-4.0-1.1","644046332ff32db7f7b8a7b6","F1","batch6","spm_respsonse","7444.899999999965","img/question_3_2.jpeg","1","mat_26","2","1","1","7444.899999999965","","","","","","","","","","","","","","","","","","","","",""
"","","","","","html-keyboard-response","57","211124","0.0-2.0-4.0-0.2","644046332ff32db7f7b8a7b6","F1","batch6","spm_show_trial_num","null","<p class=block-text>Trial 27 out of 60</p>","null","","","","","","","","","","","","","","","","","","","","","","","","","",""
"","","","","","image-button-response","58","222489","0.0-2.0-4.0-1.2","644046332ff32db7f7b8a7b6","F1","batch6","spm_respsonse","11360.099999999977","img/question_3_3.jpeg","2","mat_27","3","1","1","11360.099999999977","","","","","","","","","","","","","","","","","","","","",""
"","","","","","html-keyboard-response","59","223548","0.0-2.0-4.0-0.3","644046332ff32db7f7b8a7b6","F1","batch6","spm_show_trial_num","null","<p class=block-text>Trial 28 out of 60</p>","null","","","","","","","","","","","","","","","","","","","","","","","","","",""
"","","","","","image-button-response","60","233907","0.0-2.0-4.0-1.3","644046332ff32db7f7b8a7b6","F1","batch6","spm_respsonse","10355","img/question_3_4.jpeg","7","mat_28","8","1","1","10355","","","","","","","","","","","","","","","","","","","","",""
"","","","","","html-keyboard-response","61","234964","0.0-2.0-4.0-0.4","644046332ff32db7f7b8a7b6","F1","batch6","spm_show_trial_num","null","<p class=block-text>Trial 29 out of 60</p>","null","","","","","","","","","","","","","","","","","","","","","","","","","",""
"","","","","","image-button-response","62","263267","0.0-2.0-4.0-1.4","644046332ff32db7f7b8a7b6","F1","batch6","spm_respsonse","28298.599999999977","img/question_3_5.jpeg","2","mat_29","7","0","0","28298.599999999977","","","","","","","","","","","","","","","","","","","","",""
"","","","","","html-keyboard-response","63","264329","0.0-2.0-4.0-0.5","644046332ff32db7f7b8a7b6","F1","batch6","spm_show_trial_num","null","<p class=block-text>Trial 30 out of 60</p>","null","","","","","","","","","","","","","","","","","","","","","","","","","",""
"","","","","","image-button-response","64","270626","0.0-2.0-4.0-1.5","644046332ff32db7f7b8a7b6","F1","batch6","spm_respsonse","6292.800000000047","img/question_3_6.jpeg","7","mat_30","4","0","0","6292.800000000047","","","","","","","","","","","","","","","","","","","","",""
"","","","","","html-keyboard-response","65","271692","0.0-2.0-4.0-0.6","644046332ff32db7f7b8a7b6","F1","batch6","spm_show_trial_num","null","<p class=block-text>Trial 31 out of 60</p>","null","","","","","","","","","","","","","","","","","","","","","","","","","",""
"","","","","","image-button-response","66","279748","0.0-2.0-4.0-1.6","644046332ff32db7f7b8a7b6","F1","batch6","spm_respsonse","8051","img/question_3_7.jpeg","4","mat_31","5","1","1","8051","","","","","","","","","","","","","","","","","","","","",""
"","","","","","html-keyboard-response","67","280811","0.0-2.0-4.0-0.7","644046332ff32db7f7b8a7b6","F1","batch6","spm_show_trial_num","null","<p class=block-text>Trial 32 out of 60</p>","null","","","","","","","","","","","","","","","","","","","","","","","","","",""
"","","","","","image-button-response","68","316332","0.0-2.0-4.0-1.7","644046332ff32db7f7b8a7b6","F1","batch6","spm_respsonse","35517.5","img/question_3_8.jpeg","6","mat_32","1","0","0","35517.5","","","","","","","","","","","","","","","","","","","","",""
"","","","","","html-keyboard-response","69","317387","0.0-2.0-4.0-0.8","644046332ff32db7f7b8a7b6","F1","batch6","spm_show_trial_num","null","<p class=block-text>Trial 33 out of 60</p>","null","","","","","","","","","","","","","","","","","","","","","","","","","",""
"","","","","","image-button-response","70","326226","0.0-2.0-4.0-1.8","644046332ff32db7f7b8a7b6","F1","batch6","spm_respsonse","8835.700000000012","img/question_3_9.jpeg","0","mat_33","7","0","0","8835.700000000012","","","","","","","","","","","","","","","","","","","","",""
"","","","","","html-keyboard-response","71","327283","0.0-2.0-4.0-0.9","644046332ff32db7f7b8a7b6","F1","batch6","spm_show_trial_num","null","<p class=block-text>Trial 34 out of 60</p>","null","","","","","","","","","","","","","","","","","","","","","","","","","",""
"","","","","","image-button-response","72","341420","0.0-2.0-4.0-1.9","644046332ff32db7f7b8a7b6","F1","batch6","spm_respsonse","14132.700000000012","img/question_3_10.jpeg","7","mat_34","6","0","0","14132.700000000012","","","","","","","","","","","","","","","","","","","","",""
"","","","","","html-keyboard-response","73","342483","0.0-2.0-4.0-0.10","644046332ff32db7f7b8a7b6","F1","batch6","spm_show_trial_num","null","<p class=block-text>Trial 35 out of 60</p>","null","","","","","","","","","","","","","","","","","","","","","","","","","",""
"","","","","","image-button-response","74","381801","0.0-2.0-4.0-1.10","644046332ff32db7f7b8a7b6","F1","batch6","spm_respsonse","39312.899999999965","img/question_3_11.jpeg","0","mat_35","1","1","1","39312.899999999965","","","","","","","","","","","","","","","","","","","","",""
"","","","","","html-keyboard-response","75","382867","0.0-2.0-4.0-0.11","644046332ff32db7f7b8a7b6","F1","batch6","spm_show_trial_num","null","<p class=block-text>Trial 36 out of 60</p>","null","","","","","","","","","","","","","","","","","","","","","","","","","",""
"","","","","","image-button-response","76","423090","0.0-2.0-4.0-1.11","644046332ff32db7f7b8a7b6","F1","batch6","spm_respsonse","40219.29999999993","img/question_3_12.jpeg","0","mat_36","2","0","0","40219.29999999993","","","","","","","","","","","","","","","","","","","","",""
"","","","","","html-keyboard-response","77","424153","0.0-2.0-4.0-0.12","644046332ff32db7f7b8a7b6","F1","batch6","spm_show_trial_num","null","<p class=block-text>Trial 37 out of 60</p>","null","","","","","","","","","","","","","","","","","","","","","","","","","",""
"","","","","","image-button-response","78","429320","0.0-2.0-4.0-1.12","644046332ff32db7f7b8a7b6","F1","batch6","spm_respsonse","5163.300000000047","img/question_4_1.jpeg","2","mat_37","3","1","1","5163.300000000047","","","","","","","","","","","","","","","","","","","","",""
"","","","","","html-keyboard-response","79","430377","0.0-2.0-4.0-0.13","644046332ff32db7f7b8a7b6","F1","batch6","spm_show_trial_num","null","<p class=block-text>Trial 38 out of 60</p>","null","","","","","","","","","","","","","","","","","","","","","","","","","",""
"","","","","","image-button-response","80","446953","0.0-2.0-4.0-1.13","644046332ff32db7f7b8a7b6","F1","batch6","spm_respsonse","16570.5","img/question_4_2.jpeg","3","mat_38","4","1","1","16570.5","","","","","","","","","","","","","","","","","","","","",""
"","","","","","html-keyboard-response","81","448017","0.0-2.0-4.0-0.14","644046332ff32db7f7b8a7b6","F1","batch6","spm_show_trial_num","null","<p class=block-text>Trial 39 out of 60</p>","null","","","","","","","","","","","","","","","","","","","","","","","","","",""
"","","","","","image-button-response","82","459294","0.0-2.0-4.0-1.14","644046332ff32db7f7b8a7b6","F1","batch6","spm_respsonse","11270.70000000007","img/question_4_3.jpeg","2","mat_39","3","1","1","11270.70000000007","","","","","","","","","","","","","","","","","","","","",""
"","","","","","html-keyboard-response","83","460351","0.0-2.0-4.0-0.15","644046332ff32db7f7b8a7b6","F1","batch6","spm_show_trial_num","null","<p class=block-text>Trial 40 out of 60</p>","null","","","","","","","","","","","","","","","","","","","","","","","","","",""
"","","","","","image-button-response","84","474232","0.0-2.0-4.0-1.15","644046332ff32db7f7b8a7b6","F1","batch6","spm_respsonse","13873.800000000047","img/question_4_4.jpeg","6","mat_40","7","1","1","13873.800000000047","","","","","","","","","","","","","","","","","","","","",""
"","","","","","html-keyboard-response","85","475286","0.0-2.0-4.0-0.16","644046332ff32db7f7b8a7b6","F1","batch6","spm_show_trial_num","null","<p class=block-text>Trial 41 out of 60</p>","null","","","","","","","","","","","","","","","","","","","","","","","","","",""
"","","","","","image-button-response","86","492410","0.0-2.0-4.0-1.16","644046332ff32db7f7b8a7b6","F1","batch6","spm_respsonse","17114.400000000023","img/question_4_5.jpeg","7","mat_41","8","1","1","17114.400000000023","","","","","","","","","","","","","","","","","","","","",""
"","","","","","html-keyboard-response","87","493475","0.0-2.0-4.0-0.17","644046332ff32db7f7b8a7b6","F1","batch6","spm_show_trial_num","null","<p class=block-text>Trial 42 out of 60</p>","null","","","","","","","","","","","","","","","","","","","","","","","","","",""
"","","","","","image-button-response","88","506353","0.0-2.0-4.0-1.17","644046332ff32db7f7b8a7b6","F1","batch6","spm_respsonse","12874","img/question_4_6.jpeg","4","mat_42","6","0","0","12874","","","","","","","","","","","","","","","","","","","","",""
"","","","","","html-keyboard-response","89","507420","0.0-2.0-4.0-0.18","644046332ff32db7f7b8a7b6","F1","batch6","spm_show_trial_num","null","<p class=block-text>Trial 43 out of 60</p>","null","","","","","","","","","","","","","","","","","","","","","","","","","",""
"","","","","","image-button-response","90","527824","0.0-2.0-4.0-1.18","644046332ff32db7f7b8a7b6","F1","batch6","spm_respsonse","20395.09999999992","img/question_4_7.jpeg","4","mat_43","5","1","1","20395.09999999992","","","","","","","","","","","","","","","","","","","","",""
"","","","","","html-keyboard-response","91","528884","0.0-2.0-4.0-0.19","644046332ff32db7f7b8a7b6","F1","batch6","spm_show_trial_num","null","<p class=block-text>Trial 44 out of 60</p>","null","","","","","","","","","","","","","","","","","","","","","","","","","",""
"","","","","","image-button-response","92","554535","0.0-2.0-4.0-1.19","644046332ff32db7f7b8a7b6","F1","batch6","spm_respsonse","25644.399999999907","img/question_4_8.jpeg","0","mat_44","4","0","0","25644.399999999907","","","","","","","","","","","","","","","","","","","","",""
"","","","","","html-keyboard-response","93","555595","0.0-2.0-4.0-0.20","644046332ff32db7f7b8a7b6","F1","batch6","spm_show_trial_num","null","<p class=block-text>Trial 45 out of 60</p>","null","","","","","","","","","","","","","","","","","","","","","","","","","",""
"","","","","","image-button-response","94","587203","0.0-2.0-4.0-1.20","644046332ff32db7f7b8a7b6","F1","batch6","spm_respsonse","31603.300000000047","img/question_4_9.jpeg","0","mat_45","1","1","1","31603.300000000047","","","","","","","","","","","","","","","","","","","","",""
"","","","","","html-keyboard-response","95","588267","0.0-2.0-4.0-0.21","644046332ff32db7f7b8a7b6","F1","batch6","spm_show_trial_num","null","<p class=block-text>Trial 46 out of 60</p>","null","","","","","","","","","","","","","","","","","","","","","","","","","",""
"","","","","","image-button-response","96","612713","0.0-2.0-4.0-1.21","644046332ff32db7f7b8a7b6","F1","batch6","spm_respsonse","24437.40000000014","img/question_4_10.jpeg","4","mat_46","2","0","0","24437.40000000014","","","","","","","","","","","","","","","","","","","","",""
"","","","","","html-keyboard-response","97","613780","0.0-2.0-4.0-0.22","644046332ff32db7f7b8a7b6","F1","batch6","spm_show_trial_num","null","<p class=block-text>Trial 47 out of 60</p>","null","","","","","","","","","","","","","","","","","","","","","","","","","",""
"","","","","","image-button-response","98","631961","0.0-2.0-4.0-1.22","644046332ff32db7f7b8a7b6","F1","batch6","spm_respsonse","18174.90000000014","img/question_4_11.jpeg","2","mat_47","5","0","0","18174.90000000014","","","","","","","","","","","","","","","","","","","","",""
"","","","","","html-keyboard-response","99","633019","0.0-2.0-4.0-0.23","644046332ff32db7f7b8a7b6","F1","batch6","spm_show_trial_num","null","<p class=block-text>Trial 48 out of 60</p>","null","","","","","","","","","","","","","","","","","","","","","","","","","",""
"","","","","","image-button-response","100","653135","0.0-2.0-4.0-1.23","644046332ff32db7f7b8a7b6","F1","batch6","spm_respsonse","20108.199999999953","img/question_4_12.jpeg","2","mat_48","6","0","0","20108.199999999953","","","","","","","","","","","","","","","","","","","","",""
"","","","","","html-keyboard-response","101","654195","0.0-2.0-4.0-0.24","644046332ff32db7f7b8a7b6","F1","batch6","spm_show_trial_num","null","<p class=block-text>Trial 49 out of 60</p>","null","","","","","","","","","","","","","","","","","","","","","","","","","",""
"","","","","","image-button-response","102","668302","0.0-2.0-4.0-1.24","644046332ff32db7f7b8a7b6","F1","batch6","spm_respsonse","14100.300000000047","img/question_5_1.jpeg","6","mat_49","7","1","1","14100.300000000047","","","","","","","","","","","","","","","","","","","","",""
"","","","","","html-keyboard-response","103","669364","0.0-2.0-4.0-0.25","644046332ff32db7f7b8a7b6","F1","batch6","spm_show_trial_num","null","<p class=block-text>Trial 50 out of 60</p>","null","","","","","","","","","","","","","","","","","","","","","","","","","",""
"","","","","","image-button-response","104","687873","0.0-2.0-4.0-1.25","644046332ff32db7f7b8a7b6","F1","batch6","spm_respsonse","18502.699999999953","img/question_5_2.jpeg","0","mat_50","6","0","0","18502.699999999953","","","","","","","","","","","","","","","","","","","","",""
"","","","","","html-keyboard-response","105","688939","0.0-2.0-4.0-0.26","644046332ff32db7f7b8a7b6","F1","batch6","spm_show_trial_num","null","<p class=block-text>Trial 51 out of 60</p>","null","","","","","","","","","","","","","","","","","","","","","","","","","",""
"","","","","","image-button-response","106","713032","0.0-2.0-4.0-1.26","644046332ff32db7f7b8a7b6","F1","batch6","spm_respsonse","24084.600000000093","img/question_5_3.jpeg","4","mat_51","8","0","0","24084.600000000093","","","","","","","","","","","","","","","","","","","","",""
"","","","","","html-keyboard-response","107","714100","0.0-2.0-4.0-0.27","644046332ff32db7f7b8a7b6","F1","batch6","spm_show_trial_num","null","<p class=block-text>Trial 52 out of 60</p>","null","","","","","","","","","","","","","","","","","","","","","","","","","",""
"","","","","","image-button-response","108","723577","0.0-2.0-4.0-1.27","644046332ff32db7f7b8a7b6","F1","batch6","spm_respsonse","9469.600000000093","img/question_5_4.jpeg","2","mat_52","2","0","0","9469.600000000093","","","","","","","","","","","","","","","","","","","","",""
"","","","","","html-keyboard-response","109","724635","0.0-2.0-4.0-0.28","644046332ff32db7f7b8a7b6","F1","batch6","spm_show_trial_num","null","<p class=block-text>Trial 53 out of 60</p>","null","","","","","","","","","","","","","","","","","","","","","","","","","",""
"","","","","","image-button-response","110","751506","0.0-2.0-4.0-1.28","644046332ff32db7f7b8a7b6","F1","batch6","spm_respsonse","26862.40000000014","img/question_5_5.jpeg","1","mat_53","1","0","0","26862.40000000014","","","","","","","","","","","","","","","","","","","","",""
"","","","","","html-keyboard-response","111","752572","0.0-2.0-4.0-0.29","644046332ff32db7f7b8a7b6","F1","batch6","spm_show_trial_num","null","<p class=block-text>Trial 54 out of 60</p>","null","","","","","","","","","","","","","","","","","","","","","","","","","",""
"","","","","","image-button-response","112","776831","0.0-2.0-4.0-1.29","644046332ff32db7f7b8a7b6","F1","batch6","spm_respsonse","24252.5","img/question_5_6.jpeg","1","mat_54","5","0","0","24252.5","","","","","","","","","","","","","","","","","","","","",""
"","","","","","html-keyboard-response","113","777891","0.0-2.0-4.0-0.30","644046332ff32db7f7b8a7b6","F1","batch6","spm_show_trial_num","null","<p class=block-text>Trial 55 out of 60</p>","null","","","","","","","","","","","","","","","","","","","","","","","","","",""
"","","","","","image-button-response","114","810750","0.0-2.0-4.0-1.30","644046332ff32db7f7b8a7b6","F1","batch6","spm_respsonse","32851.39999999991","img/question_5_7.jpeg","0","mat_55","1","1","1","32851.39999999991","","","","","","","","","","","","","","","","","","","","",""
"","","","","","html-keyboard-response","115","811812","0.0-2.0-4.0-0.31","644046332ff32db7f7b8a7b6","F1","batch6","spm_show_trial_num","null","<p class=block-text>Trial 56 out of 60</p>","null","","","","","","","","","","","","","","","","","","","","","","","","","",""
"","","","","","image-button-response","116","819537","0.0-2.0-4.0-1.31","644046332ff32db7f7b8a7b6","F1","batch6","spm_respsonse","7717.5","img/question_5_8.jpeg","1","mat_56","6","0","0","7717.5","","","","","","","","","","","","","","","","","","","","",""
"","","","","","html-keyboard-response","117","820603","0.0-2.0-4.0-0.32","644046332ff32db7f7b8a7b6","F1","batch6","spm_show_trial_num","null","<p class=block-text>Trial 57 out of 60</p>","null","","","","","","","","","","","","","","","","","","","","","","","","","",""
"","","","","","image-button-response","118","834890","0.0-2.0-4.0-1.32","644046332ff32db7f7b8a7b6","F1","batch6","spm_respsonse","14279.699999999953","img/question_5_9.jpeg","1","mat_57","3","0","0","14279.699999999953","","","","","","","","","","","","","","","","","","","","",""
"","","","","","html-keyboard-response","119","835950","0.0-2.0-4.0-0.33","644046332ff32db7f7b8a7b6","F1","batch6","spm_show_trial_num","null","<p class=block-text>Trial 58 out of 60</p>","null","","","","","","","","","","","","","","","","","","","","","","","","","",""
"","","","","","image-button-response","120","858407","0.0-2.0-4.0-1.33","644046332ff32db7f7b8a7b6","F1","batch6","spm_respsonse","22451","img/question_5_10.jpeg","6","mat_58","2","0","0","22451","","","","","","","","","","","","","","","","","","","","",""
"","","","","","html-keyboard-response","121","859466","0.0-2.0-4.0-0.34","644046332ff32db7f7b8a7b6","F1","batch6","spm_show_trial_num","null","<p class=block-text>Trial 59 out of 60</p>","null","","","","","","","","","","","","","","","","","","","","","","","","","",""
"","","","","","image-button-response","122","872350","0.0-2.0-4.0-1.34","644046332ff32db7f7b8a7b6","F1","batch6","spm_respsonse","12877.700000000186","img/question_5_11.jpeg","0","mat_59","4","0","0","12877.700000000186","","","","","","","","","","","","","","","","","","","","",""
"","","","","","html-keyboard-response","123","873408","0.0-2.0-4.0-0.35","644046332ff32db7f7b8a7b6","F1","batch6","spm_show_trial_num","null","<p class=block-text>Trial 60 out of 60</p>","null","","","","","","","","","","","","","","","","","","","","","","","","","",""
"","","","","","image-button-response","124","892460","0.0-2.0-4.0-1.35","644046332ff32db7f7b8a7b6","F1","batch6","spm_respsonse","19043.09999999986","img/question_5_12.jpeg","6","mat_60","5","0","0","19043.09999999986","","","","","","","","","","","","","","","","","","","","",""
"","","","","","html-button-response","125","894911","0.0-2.0-5.0","644046332ff32db7f7b8a7b6","F1","batch6","spm_goodbye","2189.8000000000466","<p class= block-text>This concludes the Standard Progressive Matrix game. Thank you for your responses!<br> When you are ready, click the button continue</p>","0","","","","","","","","","","","","","","","","","","","","","","","","","",""
"true","","","","","fullscreen","126","897455","0.0-3.0-0.0","644046332ff32db7f7b8a7b6","F1","batch6","","","","","","","","","","","","","","","","","","","","","","","","","","","","","",""
"","","","","","instructions","127","938366","0.0-3.0-1.0-0.0-0.0","644046332ff32db7f7b8a7b6","F1","batch6","tol-instructions","40906.59999999986","","","","","","","","[{""page_index"":0,""viewing_time"":7266.09999999986},{""page_index"":1,""viewing_time"":5351.800000000047},{""page_index"":2,""viewing_time"":3838.5},{""page_index"":3,""viewing_time"":9831.5},{""page_index"":4,""viewing_time"":3560.6999999999534},{""page_index"":5,""viewing_time"":9089.800000000047},{""page_index"":6,""viewing_time"":1967}]","","","","","","","","","","","","","","","","","","","",""
"","","","","","html-button-response","128","939376","0.0-3.0-1.0-1.0-0.0","644046332ff32db7f7b8a7b6","F1","batch6","tol_enter_quiz","1005.1999999999534","<p class=block-text> Let's answer a few questions <br>","0","","","","","","","","","","","","","","","","","","","","","","","","","",""
"","","","","","html-button-response","129","945234","0.0-3.0-1.0-1.0-1.0","644046332ff32db7f7b8a7b6","F1","batch6","tol_quiz","5852.399999999907","<p class = block-text>True or False: You can only move the ball on top of a peg. <br></p>","0","","","true","","","","","","","","","","","","","","","","","","","","","","",""
"","","","","","html-button-response","130","946234","0.0-3.0-1.0-1.0-2.0","644046332ff32db7f7b8a7b6","F1","batch6","tol_quiz_feedback","994.5999999998603","<p class = block-text>Correct! You can only move the ball on top of a peg.</p>","0","","","","","","","","","","","","","","","","","","","","","","","","","",""
"","","","","","html-button-response","131","949342","0.0-3.0-1.0-1.0-3.0","644046332ff32db7f7b8a7b6","F1","batch6","tol_quiz","3102.3000000000466","<p class = block-text>True or False: You should try to match your board with the target board with fewest moves possible. <br></p>","0","","","true","","","","","","","","","","","","","","","","","","","","","","",""
"","","","","","html-button-response","132","950001","0.0-3.0-1.0-1.0-4.0","644046332ff32db7f7b8a7b6","F1","batch6","tol_quiz_feedback","653.5999999998603","<p class = block-text>Correct! </p>","0","","","","","","","","","","","","","","","","","","","","","","","","","",""
"","","","","","html-button-response","133","951860","0.0-3.0-2.0","644046332ff32db7f7b8a7b6","F1","batch6","","1850","<p class=block-text> Now that you've understood the game, let's practice a few easier examples before we start!<br> <br>","0","","","","","","","","","","","","","","","","","","","","","","","","","",""
"","","","","","single-stim-button","134","954925","0.0-3.0-3.0-0.0","644046332ff32db7f7b8a7b6","F1","batch6","tol_practice","3059","","","","","","","","","tol_peg_2","3059","3059","0","[[1,2,0],[0,0],[0]]","1","[[1,2,0],[0,0],[3]]","practice","3059","","","","","","","","","","",""
"","","","","","single-stim-button","135","956371","0.0-3.0-3.0-1.0","644046332ff32db7f7b8a7b6","F1","batch6","tol_practice","1442","","","","","","","","","tol_peg_3","1442","1442","0","[[1,2,0],[0,0],[3]]","1","[[1,2,0],[0,0],[3]]","practice","1442","","","","","","","","","","",""
"","","","","","poldrack-single-stim","136","957381","0.0-3.0-4.0","644046332ff32db7f7b8a7b6","F1","batch6","tol_feedback","-1","","","","","true","","","","","1000","1000","500","","","","","","-1","none","true","","0","","","","","",""
"","","","","","single-stim-button","137","963064","0.0-3.0-5.0-0.0","644046332ff32db7f7b8a7b6","F1","batch6","tol_practice","5680","","","","","","","","","tol_peg_1","5680","5680","0","[[1,0,0],[3,0],[0]]","2","[[0,0,0],[3,1],[2]]","practice","5680","","","","","","","","","","",""
"","","","","","single-stim-button","138","964477","0.0-3.0-5.0-1.0","644046332ff32db7f7b8a7b6","F1","batch6","tol_practice","1409","","","","","","","","","tol_peg_3","1409","1409","0","[[1,0,0],[3,0],[2]]","2","[[0,0,0],[3,1],[2]]","practice","1409","","","","","","","","","","",""
"","","","","","single-stim-button","139","965619","0.0-3.0-5.1-0.1","644046332ff32db7f7b8a7b6","F1","batch6","tol_practice","1138","","","","","","","","","tol_peg_1","1138","1138","0","[[0,0,0],[3,0],[2]]","3","[[0,0,0],[3,1],[2]]","practice","1138","","","","","","","","","","",""
"","","","","","single-stim-button","140","966372","0.0-3.0-5.1-1.1","644046332ff32db7f7b8a7b6","F1","batch6","tol_practice","750","","","","","","","","","tol_peg_2","750","750","0","[[0,0,0],[3,1],[2]]","3","[[0,0,0],[3,1],[2]]","practice","750","","","","","","","","","","",""
"","","","","","poldrack-single-stim","141","967380","0.0-3.0-6.0","644046332ff32db7f7b8a7b6","F1","batch6","tol_feedback","-1","","","","","true","","","","","1000","1000","500","","","","","","-1","none","true","","0","","","","","",""
"","","","","","single-stim-button","142","973034","0.0-3.0-7.0-0.0","644046332ff32db7f7b8a7b6","F1","batch6","tol_practice","5651","","","","","","","","","tol_peg_2","5651","5651","0","[[1,2,0],[0,0],[0]]","4","[[1,0,0],[2,0],[3]]","practice","5651","","","","","","","","","","",""
"","","","","","single-stim-button","143","974107","0.0-3.0-7.0-1.0","644046332ff32db7f7b8a7b6","F1","batch6","tol_practice","1069","","","","","","","","","tol_peg_3","1069","1069","0","[[1,2,0],[0,0],[3]]","4","[[1,0,0],[2,0],[3]]","practice","1069","","","","","","","","","","",""
"","","","","","single-stim-button","144","975035","0.0-3.0-7.1-0.1","644046332ff32db7f7b8a7b6","F1","batch6","tol_practice","925","","","","","","","","","tol_peg_1","925","925","0","[[1,0,0],[0,0],[3]]","5","[[1,0,0],[2,0],[3]]","practice","925","","","","","","","","","","",""
"","","","","","single-stim-button","145","976425","0.0-3.0-7.1-1.1","644046332ff32db7f7b8a7b6","F1","batch6","tol_practice","1387","","","","","","","","","tol_peg_2","1387","1387","0","[[1,0,0],[2,0],[3]]","5","[[1,0,0],[2,0],[3]]","practice","1387","","","","","","","","","","",""
"","","","","","poldrack-single-stim","146","977436","0.0-3.0-8.0","644046332ff32db7f7b8a7b6","F1","batch6","tol_feedback","-1","","","","","true","","","","","1000","1000","500","","","","","","-1","none","true","","0","","","","","",""
"","","","","","html-button-response","147","979147","0.0-3.0-9.0","644046332ff32db7f7b8a7b6","F1","batch6","tol_instruction","1709.1999999999534","<div class = centerbox><p class = center-block-text>Great job! You are done with practice trials<br>You are about to start official trials.<br> <br> Problem <strong>1</strong> out of 25 problems</p></div>","0","","","","","","","","","","","","","","","","","","","","","","","","","",""
"","","","","","single-stim-button","148","1000130","0.0-3.0-10.0-0.0","644046332ff32db7f7b8a7b6","F1","batch6","tol_tohand","19973","","","","","","","","","tol_peg_1","19973","19973","0","[[1,0,0],[3,0],[0]]","1","[[1,3,0],[2,0],[0]]","0","0","","","","","","3","","","","",""
"","","","","","single-stim-button","149","1003022","0.0-3.0-10.0-1.0","644046332ff32db7f7b8a7b6","F1","batch6","tol_toboard","2888","","","","","","","","","tol_peg_2","2888","2888","0","[[1,0,0],[3,2],[0]]","1","[[1,3,0],[2,0],[0]]","0","0","","","","","","3","","","","",""
"","","","","","single-stim-button","150","1003609","0.0-3.0-10.1-0.1","644046332ff32db7f7b8a7b6","F1","batch6","tol_tohand","585","","","","","","","","","tol_peg_2","585","585","0","[[1,0,0],[3,0],[0]]","2","[[1,3,0],[2,0],[0]]","0","0","","","","","","3","","","","",""
"","","","","","single-stim-button","151","1004724","0.0-3.0-10.1-1.1","644046332ff32db7f7b8a7b6","F1","batch6","tol_toboard","1113","","","","","","","","","tol_peg_3","1113","1113","0","[[1,0,0],[3,0],[2]]","2","[[1,3,0],[2,0],[0]]","0","0","","","","","","3","","","","",""
"","","","","","single-stim-button","152","1006164","0.0-3.0-10.2-0.2","644046332ff32db7f7b8a7b6","F1","batch6","tol_tohand","1438","","","","","","","","","tol_peg_2","1438","1438","0","[[1,0,0],[0,0],[2]]","3","[[1,3,0],[2,0],[0]]","0","0","","","","","","3","","","","",""
"","","","","","single-stim-button","153","1007132","0.0-3.0-10.2-1.2","644046332ff32db7f7b8a7b6","F1","batch6","tol_toboard","966","","","","","","","","","tol_peg_1","966","966","0","[[1,3,0],[0,0],[2]]","3","[[1,3,0],[2,0],[0]]","0","0","","","","","","3","","","","",""
"","","","","","single-stim-button","154","1007838","0.0-3.0-10.3-0.3","644046332ff32db7f7b8a7b6","F1","batch6","tol_tohand","704","","","","","","","","","tol_peg_3","704","704","0","[[1,3,0],[0,0],[0]]","4","[[1,3,0],[2,0],[0]]","0","0","","","","","","3","","","","",""
"","","","","","single-stim-button","155","1008662","0.0-3.0-10.3-1.3","644046332ff32db7f7b8a7b6","F1","batch6","tol_toboard","823","","","","","","","","","tol_peg_2","823","823","0","[[1,3,0],[2,0],[0]]","4","[[1,3,0],[2,0],[0]]","0","0","","","","","","3","","","","",""
"","","","","","poldrack-single-stim","156","1009668","0.0-3.0-11.0","644046332ff32db7f7b8a7b6","F1","batch6","tol_feedback","-1","","","","","true","","","","","1000","1000","500","","","","","","-1","none","true","19973","22700","","","","","",""
"","","","","","html-button-response","157","1011087","0.0-3.0-12.0","644046332ff32db7f7b8a7b6","F1","batch6","tol_trial_num","1410.5","<div class = centerbox><p class = center-block-text>problem <strong>2</strong> out of 25 problems</p></div>","0","","","","","","","","","","","","","","","","","","","","","","","","","",""
"","","","","","single-stim-button","158","1020454","0.0-3.0-13.0-0.0","644046332ff32db7f7b8a7b6","F1","batch6","tol_tohand","9364","","","","","","","","","tol_peg_1","9364","9364","0","[[1,0,0],[3,0],[0]]","1","[[2,1,3],[0,0],[0]]","1","0","","","","","","5","","","","",""
"","","","","","single-stim-button","159","1024841","0.0-3.0-13.0-1.0","644046332ff32db7f7b8a7b6","F1","batch6","tol_toboard","4385","","","","","","","","","tol_peg_3","4385","4385","0","[[1,0,0],[3,0],[2]]","1","[[2,1,3],[0,0],[0]]","1","0","","","","","","5","","","","",""
"","","","","","single-stim-button","160","1025604","0.0-3.0-13.1-0.1","644046332ff32db7f7b8a7b6","F1","batch6","tol_tohand","759","","","","","","","","","tol_peg_1","759","759","0","[[0,0,0],[3,0],[2]]","2","[[2,1,3],[0,0],[0]]","1","0","","","","","","5","","","","",""
"","","","","","single-stim-button","161","1026483","0.0-3.0-13.1-1.1","644046332ff32db7f7b8a7b6","F1","batch6","tol_toboard","877","","","","","","","","","tol_peg_2","877","877","0","[[0,0,0],[3,1],[2]]","2","[[2,1,3],[0,0],[0]]","1","0","","","","","","5","","","","",""
"","","","","","single-stim-button","162","1027276","0.0-3.0-13.2-0.2","644046332ff32db7f7b8a7b6","F1","batch6","tol_tohand","790","","","","","","","","","tol_peg_3","790","790","0","[[0,0,0],[3,1],[0]]","3","[[2,1,3],[0,0],[0]]","1","0","","","","","","5","","","","",""
"","","","","","single-stim-button","163","1028062","0.0-3.0-13.2-1.2","644046332ff32db7f7b8a7b6","F1","batch6","tol_toboard","783","","","","","","","","","tol_peg_1","783","783","0","[[2,0,0],[3,1],[0]]","3","[[2,1,3],[0,0],[0]]","1","0","","","","","","5","","","","",""
"","","","","","single-stim-button","164","1028695","0.0-3.0-13.3-0.3","644046332ff32db7f7b8a7b6","F1","batch6","tol_tohand","630","","","","","","","","","tol_peg_2","630","630","0","[[2,0,0],[3,0],[0]]","4","[[2,1,3],[0,0],[0]]","1","0","","","","","","5","","","","",""
"","","","","","single-stim-button","165","1029283","0.0-3.0-13.3-1.3","644046332ff32db7f7b8a7b6","F1","batch6","tol_toboard","585","","","","","","","","","tol_peg_1","585","585","0","[[2,1,0],[3,0],[0]]","4","[[2,1,3],[0,0],[0]]","1","0","","","","","","5","","","","",""
"","","","","","single-stim-button","166","1029964","0.0-3.0-13.4-0.4","644046332ff32db7f7b8a7b6","F1","batch6","tol_tohand","678","","","","","","","","","tol_peg_2","678","678","0","[[2,1,0],[0,0],[0]]","5","[[2,1,3],[0,0],[0]]","1","0","","","","","","5","","","","",""
"","","","","","single-stim-button","167","1030529","0.0-3.0-13.4-1.4","644046332ff32db7f7b8a7b6","F1","batch6","tol_toboard","562","","","","","","","","","tol_peg_1","562","562","0","[[2,1,3],[0,0],[0]]","5","[[2,1,3],[0,0],[0]]","1","0","","","","","","5","","","","",""
"","","","","","poldrack-single-stim","168","1031538","0.0-3.0-14.0","644046332ff32db7f7b8a7b6","F1","batch6","tol_feedback","-1","","","","","true","","","","","1000","1000","500","","","","","","-1","none","true","9364","12221","","","","","",""
"","","","","","html-button-response","169","1032433","0.0-3.0-15.0","644046332ff32db7f7b8a7b6","F1","batch6","tol_trial_num","891.0999999998603","<div class = centerbox><p class = center-block-text>problem <strong>3</strong> out of 25 problems</p></div>","0","","","","","","","","","","","","","","","","","","","","","","","","","",""
"","","","","","single-stim-button","170","1037922","0.0-3.0-16.0-0.0","644046332ff32db7f7b8a7b6","F1","batch6","tol_tohand","5485","","","","","","","","","tol_peg_1","5485","5485","0","[[2,0,0],[0,0],[1]]","1","[[1,2,0],[3,0],[0]]","2","0","","","","","","4","","","","",""
"","","","","","single-stim-button","171","1038810","0.0-3.0-16.0-1.0","644046332ff32db7f7b8a7b6","F1","batch6","tol_toboard","884","","","","","","","","","tol_peg_2","884","884","0","[[2,0,0],[3,0],[1]]","1","[[1,2,0],[3,0],[0]]","2","0","","","","","","4","","","","",""
"","","","","","single-stim-button","172","1040712","0.0-3.0-16.1-0.1","644046332ff32db7f7b8a7b6","F1","batch6","tol_tohand","1900","","","","","","","","","tol_peg_1","1900","1900","0","[[0,0,0],[3,0],[1]]","2","[[1,2,0],[3,0],[0]]","2","0","","","","","","4","","","","",""
"","","","","","single-stim-button","173","1041925","0.0-3.0-16.1-1.1","644046332ff32db7f7b8a7b6","F1","batch6","tol_toboard","1212","","","","","","","","","tol_peg_2","1212","1212","0","[[0,0,0],[3,2],[1]]","2","[[1,2,0],[3,0],[0]]","2","0","","","","","","4","","","","",""
"","","","","","single-stim-button","174","1042760","0.0-3.0-16.2-0.2","644046332ff32db7f7b8a7b6","F1","batch6","tol_tohand","833","","","","","","","","","tol_peg_3","833","833","0","[[0,0,0],[3,2],[0]]","3","[[1,2,0],[3,0],[0]]","2","0","","","","","","4","","","","",""
"","","","","","single-stim-button","175","1043623","0.0-3.0-16.2-1.2","644046332ff32db7f7b8a7b6","F1","batch6","tol_toboard","860","","","","","","","","","tol_peg_1","860","860","0","[[1,0,0],[3,2],[0]]","3","[[1,2,0],[3,0],[0]]","2","0","","","","","","4","","","","",""
"","","","","","single-stim-button","176","1044345","0.0-3.0-16.3-0.3","644046332ff32db7f7b8a7b6","F1","batch6","tol_tohand","720","","","","","","","","","tol_peg_2","720","720","0","[[1,0,0],[3,0],[0]]","4","[[1,2,0],[3,0],[0]]","2","0","","","","","","4","","","","",""
"","","","","","single-stim-button","177","1045092","0.0-3.0-16.3-1.3","644046332ff32db7f7b8a7b6","F1","batch6","tol_toboard","744","","","","","","","","","tol_peg_1","744","744","0","[[1,2,0],[3,0],[0]]","4","[[1,2,0],[3,0],[0]]","2","0","","","","","","4","","","","",""
"","","","","","poldrack-single-stim","178","1046100","0.0-3.0-17.0","644046332ff32db7f7b8a7b6","F1","batch6","tol_feedback","-1","","","","","true","","","","","1000","1000","500","","","","","","-1","none","true","5485","8938","","","","","",""
"","","","","","html-button-response","179","1047671","0.0-3.0-18.0","644046332ff32db7f7b8a7b6","F1","batch6","tol_trial_num","1567.1000000000931","<div class = centerbox><p class = center-block-text>problem <strong>4</strong> out of 25 problems</p></div>","0","","","","","","","","","","","","","","","","","","","","","","","","","",""
"","","","","","single-stim-button","180","1071393","0.0-3.0-19.0-0.0","644046332ff32db7f7b8a7b6","F1","batch6","tol_tohand","23718","","","","","","","","","tol_peg_2","23718","23718","0","[[3,0,0],[2,0],[0]]","1","[[3,0,0],[1,0],[2]]","3","0","","","","","","3","","","","",""
"","","","","","single-stim-button","181","1072636","0.0-3.0-19.0-1.0","644046332ff32db7f7b8a7b6","F1","batch6","tol_toboard","1240","","","","","","","","","tol_peg_1","1240","1240","0","[[3,1,0],[2,0],[0]]","1","[[3,0,0],[1,0],[2]]","3","0","","","","","","3","","","","",""
"","","","","","single-stim-button","182","1073628","0.0-3.0-19.1-0.1","644046332ff32db7f7b8a7b6","F1","batch6","tol_tohand","991","","","","","","","","","tol_peg_2","991","991","0","[[3,1,0],[0,0],[0]]","2","[[3,0,0],[1,0],[2]]","3","0","","","","","","3","","","","",""
"","","","","","single-stim-button","183","1074755","0.0-3.0-19.1-1.1","644046332ff32db7f7b8a7b6","F1","batch6","tol_toboard","1125","","","","","","","","","tol_peg_3","1125","1125","0","[[3,1,0],[0,0],[2]]","2","[[3,0,0],[1,0],[2]]","3","0","","","","","","3","","","","",""
"","","","","","single-stim-button","184","1076581","0.0-3.0-19.2-0.2","644046332ff32db7f7b8a7b6","F1","batch6","tol_tohand","1824","","","","","","","","","tol_peg_1","1824","1824","0","[[3,0,0],[0,0],[2]]","3","[[3,0,0],[1,0],[2]]","3","0","","","","","","3","","","","",""
"","","","","","single-stim-button","185","1077570","0.0-3.0-19.2-1.2","644046332ff32db7f7b8a7b6","F1","batch6","tol_toboard","987","","","","","","","","","tol_peg_2","987","987","0","[[3,0,0],[1,0],[2]]","3","[[3,0,0],[1,0],[2]]","3","0","","","","","","3","","","","",""
"","","","","","poldrack-single-stim","186","1078581","0.0-3.0-20.0","644046332ff32db7f7b8a7b6","F1","batch6","tol_feedback","-1","","","","","true","","","","","1000","1000","500","","","","","","-1","none","true","23718","26533","","","","","",""
"","","","","","html-button-response","187","1079387","0.0-3.0-21.0","644046332ff32db7f7b8a7b6","F1","batch6","tol_trial_num","803","<div class = centerbox><p class = center-block-text>problem <strong>5</strong> out of 25 problems</p></div>","0","","","","","","","","","","","","","","","","","","","","","","","","","",""
"","","","","","single-stim-button","188","1099843","0.0-3.0-22.0-0.0","644046332ff32db7f7b8a7b6","F1","batch6","tol_tohand","20454","","","","","","","","","tol_peg_3","20454","20454","0","[[1,0,0],[2,0],[0]]","1","[[0,0,0],[1,2],[3]]","4","0","","","","","","7","","","","",""
"","","","","","single-stim-button","189","1101771","0.0-3.0-22.0-1.0","644046332ff32db7f7b8a7b6","F1","batch6","tol_toboard","1926","","","","","","","","","tol_peg_1","1926","1926","0","[[1,3,0],[2,0],[0]]","1","[[0,0,0],[1,2],[3]]","4","0","","","","","","7","","","","",""
"","","","","","single-stim-button","190","1102761","0.0-3.0-22.1-0.1","644046332ff32db7f7b8a7b6","F1","batch6","tol_tohand","987","","","","","","","","","tol_peg_2","987","987","0","[[1,3,0],[0,0],[0]]","2","[[0,0,0],[1,2],[3]]","4","0","","","","","","7","","","","",""
"","","","","","single-stim-button","191","1106141","0.0-3.0-22.1-1.1","644046332ff32db7f7b8a7b6","F1","batch6","tol_toboard","3379","","","","","","","","","tol_peg_3","3379","3379","0","[[1,3,0],[0,0],[2]]","2","[[0,0,0],[1,2],[3]]","4","0","","","","","","7","","","","",""
"","","","","","single-stim-button","192","1107378","0.0-3.0-22.2-0.2","644046332ff32db7f7b8a7b6","F1","batch6","tol_tohand","1232","","","","","","","","","tol_peg_1","1232","1232","0","[[1,0,0],[0,0],[2]]","3","[[0,0,0],[1,2],[3]]","4","0","","","","","","7","","","","",""
"","","","","","single-stim-button","193","1108131","0.0-3.0-22.2-1.2","644046332ff32db7f7b8a7b6","F1","batch6","tol_toboard","750","","","","","","","","","tol_peg_2","750","750","0","[[1,0,0],[3,0],[2]]","3","[[0,0,0],[1,2],[3]]","4","0","","","","","","7","","","","",""
"","","","","","single-stim-button","194","1114680","0.0-3.0-22.3-0.3","644046332ff32db7f7b8a7b6","F1","batch6","tol_tohand","6547","","","","","","","","","tol_peg_1","6547","6547","0","[[0,0,0],[3,0],[2]]","4","[[0,0,0],[1,2],[3]]","4","0","","","","","","7","","","","",""
"","","","","","single-stim-button","195","1117452","0.0-3.0-22.3-1.3","644046332ff32db7f7b8a7b6","F1","batch6","tol_toboard","2769","","","","","","","","","tol_peg_1","2769","2769","0","[[1,0,0],[3,0],[2]]","4","[[0,0,0],[1,2],[3]]","4","0","","","","","","7","","","","",""
"","","","","","single-stim-button","196","1120640","0.0-3.0-22.4-0.4","644046332ff32db7f7b8a7b6","F1","batch6","tol_tohand","3186","","","","","","","","","tol_peg_3","3186","3186","0","[[1,0,0],[3,0],[0]]","5","[[0,0,0],[1,2],[3]]","4","0","","","","","","7","","","","",""
"","","","","","single-stim-button","197","1121505","0.0-3.0-22.4-1.4","644046332ff32db7f7b8a7b6","F1","batch6","tol_toboard","862","","","","","","","","","tol_peg_2","862","862","0","[[1,0,0],[3,2],[0]]","5","[[0,0,0],[1,2],[3]]","4","0","","","","","","7","","","","",""
"","","","","","single-stim-button","198","1122274","0.0-3.0-22.5-0.5","644046332ff32db7f7b8a7b6","F1","batch6","tol_tohand","767","","","","","","","","","tol_peg_2","767","767","0","[[1,0,0],[3,0],[0]]","6","[[0,0,0],[1,2],[3]]","4","0","","","","","","7","","","","",""
"","","","","","single-stim-button","199","1123724","0.0-3.0-22.5-1.5","644046332ff32db7f7b8a7b6","F1","batch6","tol_toboard","1448","","","","","","","","","tol_peg_1","1448","1448","0","[[1,2,0],[3,0],[0]]","6","[[0,0,0],[1,2],[3]]","4","0","","","","","","7","","","","",""
"","","","","","single-stim-button","200","1124415","0.0-3.0-22.6-0.6","644046332ff32db7f7b8a7b6","F1","batch6","tol_tohand","689","","","","","","","","","tol_peg_2","689","689","0","[[1,2,0],[0,0],[0]]","7","[[0,0,0],[1,2],[3]]","4","0","","","","","","7","","","","",""
"","","","","","single-stim-button","201","1125636","0.0-3.0-22.6-1.6","644046332ff32db7f7b8a7b6","F1","batch6","tol_toboard","1219","","","","","","","","","tol_peg_3","1219","1219","0","[[1,2,0],[0,0],[3]]","7","[[0,0,0],[1,2],[3]]","4","0","","","","","","7","","","","",""
"","","","","","single-stim-button","202","1126890","0.0-3.0-22.7-0.7","644046332ff32db7f7b8a7b6","F1","batch6","tol_tohand","1252","","","","","","","","","tol_peg_1","1252","1252","0","[[1,0,0],[0,0],[3]]","8","[[0,0,0],[1,2],[3]]","4","0","","","","","","7","","","","",""
"","","","","","single-stim-button","203","1130872","0.0-3.0-22.7-1.7","644046332ff32db7f7b8a7b6","F1","batch6","tol_toboard","3979","","","","","","","","","tol_peg_2","3979","3979","0","[[1,0,0],[2,0],[3]]","8","[[0,0,0],[1,2],[3]]","4","0","","","","","","7","","","","",""
"","","","","","single-stim-button","204","1131650","0.0-3.0-22.8-0.8","644046332ff32db7f7b8a7b6","F1","batch6","tol_tohand","774","","","","","","","","","tol_peg_1","774","774","0","[[0,0,0],[2,0],[3]]","9","[[0,0,0],[1,2],[3]]","4","0","","","","","","7","","","","",""
"","","","","","single-stim-button","205","1132793","0.0-3.0-22.8-1.8","644046332ff32db7f7b8a7b6","F1","batch6","tol_toboard","1138","","","","","","","","","tol_peg_2","1138","1138","0","[[0,0,0],[2,1],[3]]","9","[[0,0,0],[1,2],[3]]","4","0","","","","","","7","","","","",""
"","","","","","single-stim-button","206","1133568","0.0-3.0-22.9-0.9","644046332ff32db7f7b8a7b6","F1","batch6","tol_tohand","773","","","","","","","","","tol_peg_3","773","773","0","[[0,0,0],[2,1],[0]]","10","[[0,0,0],[1,2],[3]]","4","0","","","","","","7","","","","",""
"","","","","","single-stim-button","207","1134315","0.0-3.0-22.9-1.9","644046332ff32db7f7b8a7b6","F1","batch6","tol_toboard","744","","","","","","","","","tol_peg_1","744","744","0","[[3,0,0],[2,1],[0]]","10","[[0,0,0],[1,2],[3]]","4","0","","","","","","7","","","","",""
"","","","","","single-stim-button","208","1135395","0.0-3.0-22.10-0.10","644046332ff32db7f7b8a7b6","F1","batch6","tol_tohand","1077","","","","","","","","","tol_peg_2","1077","1077","0","[[3,0,0],[2,0],[0]]","11","[[0,0,0],[1,2],[3]]","4","0","","","","","","7","","","","",""
"","","","","","single-stim-button","209","1136037","0.0-3.0-22.10-1.10","644046332ff32db7f7b8a7b6","F1","batch6","tol_toboard","639","","","","","","","","","tol_peg_3","639","639","0","[[3,0,0],[2,0],[1]]","11","[[0,0,0],[1,2],[3]]","4","0","","","","","","7","","","","",""
"","","","","","single-stim-button","210","1137987","0.0-3.0-22.11-0.11","644046332ff32db7f7b8a7b6","F1","batch6","tol_tohand","1947","","","","","","","","","tol_peg_2","1947","1947","0","[[3,0,0],[0,0],[1]]","12","[[0,0,0],[1,2],[3]]","4","0","","","","","","7","","","","",""
"","","","","","single-stim-button","211","1138822","0.0-3.0-22.11-1.11","644046332ff32db7f7b8a7b6","F1","batch6","tol_toboard","832","","","","","","","","","tol_peg_1","832","832","0","[[3,2,0],[0,0],[1]]","12","[[0,0,0],[1,2],[3]]","4","0","","","","","","7","","","","",""
"","","","","","single-stim-button","212","1140168","0.0-3.0-22.12-0.12","644046332ff32db7f7b8a7b6","F1","batch6","tol_tohand","1343","","","","","","","","","tol_peg_3","1343","1343","0","[[3,2,0],[0,0],[0]]","13","[[0,0,0],[1,2],[3]]","4","0","","","","","","7","","","","",""
"","","","","","single-stim-button","213","1140852","0.0-3.0-22.12-1.12","644046332ff32db7f7b8a7b6","F1","batch6","tol_toboard","682","","","","","","","","","tol_peg_2","682","682","0","[[3,2,0],[1,0],[0]]","13","[[0,0,0],[1,2],[3]]","4","0","","","","","","7","","","","",""
"","","","","","single-stim-button","214","1141518","0.0-3.0-22.13-0.13","644046332ff32db7f7b8a7b6","F1","batch6","tol_tohand","662","","","","","","","","","tol_peg_1","662","662","0","[[3,0,0],[1,0],[0]]","14","[[0,0,0],[1,2],[3]]","4","0","","","","","","7","","","","",""
"","","","","","single-stim-button","215","1142264","0.0-3.0-22.13-1.13","644046332ff32db7f7b8a7b6","F1","batch6","tol_toboard","741","","","","","","","","","tol_peg_2","741","741","0","[[3,0,0],[1,2],[0]]","14","[[0,0,0],[1,2],[3]]","4","0","","","","","","7","","","","",""
"","","","","","single-stim-button","216","1142992","0.0-3.0-22.14-0.14","644046332ff32db7f7b8a7b6","F1","batch6","tol_tohand","725","","","","","","","","","tol_peg_1","725","725","0","[[0,0,0],[1,2],[0]]","15","[[0,0,0],[1,2],[3]]","4","0","","","","","","7","","","","",""
"","","","","","single-stim-button","217","1143946","0.0-3.0-22.14-1.14","644046332ff32db7f7b8a7b6","F1","batch6","tol_toboard","952","","","","","","","","","tol_peg_3","952","952","0","[[0,0,0],[1,2],[3]]","15","[[0,0,0],[1,2],[3]]","4","0","","","","","","7","","","","",""
"","","","","","poldrack-single-stim","218","1144956","0.0-3.0-23.0","644046332ff32db7f7b8a7b6","F1","batch6","tol_feedback","-1","","","","","true","","","","","1000","1000","500","","","","","","-1","none","true","20454","42415","","","","","",""
"","","","","","html-button-response","219","1145712","0.0-3.0-24.0","644046332ff32db7f7b8a7b6","F1","batch6","tol_trial_num","750.9000000001397","<div class = centerbox><p class = center-block-text>problem <strong>6</strong> out of 25 problems</p></div>","0","","","","","","","","","","","","","","","","","","","","","","","","","",""
"","","","","","single-stim-button","220","1156008","0.0-3.0-25.0-0.0","644046332ff32db7f7b8a7b6","F1","batch6","tol_tohand","10291","","","","","","","","","tol_peg_2","10291","10291","0","[[0,0,0],[1,0],[3]]","1","[[1,0,0],[2,3],[0]]","5","0","","","","","","6","","","","",""
"","","","","","single-stim-button","221","1164198","0.0-3.0-25.0-1.0","644046332ff32db7f7b8a7b6","F1","batch6","tol_toboard","8187","","","","","","","","","tol_peg_1","8187","8187","0","[[2,0,0],[1,0],[3]]","1","[[1,0,0],[2,3],[0]]","5","0","","","","","","6","","","","",""
"","","","","","single-stim-button","222","1168108","0.0-3.0-25.1-0.1","644046332ff32db7f7b8a7b6","F1","batch6","tol_tohand","3906","","","","","","","","","tol_peg_3","3906","3906","0","[[2,0,0],[1,0],[0]]","2","[[1,0,0],[2,3],[0]]","5","0","","","","","","6","","","","",""
"","","","","","single-stim-button","223","1170227","0.0-3.0-25.1-1.1","644046332ff32db7f7b8a7b6","F1","batch6","tol_toboard","2117","","","","","","","","","tol_peg_1","2117","2117","0","[[2,3,0],[1,0],[0]]","2","[[1,0,0],[2,3],[0]]","5","0","","","","","","6","","","","",""
"","","","","","single-stim-button","224","1172988","0.0-3.0-25.2-0.2","644046332ff32db7f7b8a7b6","F1","batch6","tol_tohand","2758","","","","","","","","","tol_peg_2","2758","2758","0","[[2,3,0],[0,0],[0]]","3","[[1,0,0],[2,3],[0]]","5","0","","","","","","6","","","","",""
"","","","","","single-stim-button","225","1174416","0.0-3.0-25.2-1.2","644046332ff32db7f7b8a7b6","F1","batch6","tol_toboard","1425","","","","","","","","","tol_peg_3","1425","1425","0","[[2,3,0],[0,0],[1]]","3","[[1,0,0],[2,3],[0]]","5","0","","","","","","6","","","","",""
"","","","","","single-stim-button","226","1175678","0.0-3.0-25.3-0.3","644046332ff32db7f7b8a7b6","F1","batch6","tol_tohand","1260","","","","","","","","","tol_peg_1","1260","1260","0","[[2,0,0],[0,0],[1]]","4","[[1,0,0],[2,3],[0]]","5","0","","","","","","6","","","","",""
"","","","","","single-stim-button","227","1177861","0.0-3.0-25.3-1.3","644046332ff32db7f7b8a7b6","F1","batch6","tol_toboard","2181","","","","","","","","","tol_peg_2","2181","2181","0","[[2,0,0],[3,0],[1]]","4","[[1,0,0],[2,3],[0]]","5","0","","","","","","6","","","","",""
"","","","","","single-stim-button","228","1178496","0.0-3.0-25.4-0.4","644046332ff32db7f7b8a7b6","F1","batch6","tol_tohand","633","","","","","","","","","tol_peg_1","633","633","0","[[0,0,0],[3,0],[1]]","5","[[1,0,0],[2,3],[0]]","5","0","","","","","","6","","","","",""
"","","","","","single-stim-button","229","1179645","0.0-3.0-25.4-1.4","644046332ff32db7f7b8a7b6","F1","batch6","tol_toboard","1146","","","","","","","","","tol_peg_2","1146","1146","0","[[0,0,0],[3,2],[1]]","5","[[1,0,0],[2,3],[0]]","5","0","","","","","","6","","","","",""
"","","","","","single-stim-button","230","1180955","0.0-3.0-25.5-0.5","644046332ff32db7f7b8a7b6","F1","batch6","tol_tohand","1308","","","","","","","","","tol_peg_3","1308","1308","0","[[0,0,0],[3,2],[0]]","6","[[1,0,0],[2,3],[0]]","5","0","","","","","","6","","","","",""
"","","","","","single-stim-button","231","1181718","0.0-3.0-25.5-1.5","644046332ff32db7f7b8a7b6","F1","batch6","tol_toboard","761","","","","","","","","","tol_peg_1","761","761","0","[[1,0,0],[3,2],[0]]","6","[[1,0,0],[2,3],[0]]","5","0","","","","","","6","","","","",""
"","","","","","single-stim-button","232","1182392","0.0-3.0-25.6-0.6","644046332ff32db7f7b8a7b6","F1","batch6","tol_tohand","671","","","","","","","","","tol_peg_2","671","671","0","[[1,0,0],[3,0],[0]]","7","[[1,0,0],[2,3],[0]]","5","0","","","","","","6","","","","",""
"","","","","","single-stim-button","233","1183510","0.0-3.0-25.6-1.6","644046332ff32db7f7b8a7b6","F1","batch6","tol_toboard","1117","","","","","","","","","tol_peg_3","1117","1117","0","[[1,0,0],[3,0],[2]]","7","[[1,0,0],[2,3],[0]]","5","0","","","","","","6","","","","",""
"","","","","","single-stim-button","234","1184256","0.0-3.0-25.7-0.7","644046332ff32db7f7b8a7b6","F1","batch6","tol_tohand","743","","","","","","","","","tol_peg_2","743","743","0","[[1,0,0],[0,0],[2]]","8","[[1,0,0],[2,3],[0]]","5","0","","","","","","6","","","","",""
"","","","","","single-stim-button","235","1184962","0.0-3.0-25.7-1.7","644046332ff32db7f7b8a7b6","F1","batch6","tol_toboard","704","","","","","","","","","tol_peg_1","704","704","0","[[1,3,0],[0,0],[2]]","8","[[1,0,0],[2,3],[0]]","5","0","","","","","","6","","","","",""
"","","","","","single-stim-button","236","1185660","0.0-3.0-25.8-0.8","644046332ff32db7f7b8a7b6","F1","batch6","tol_tohand","696","","","","","","","","","tol_peg_3","696","696","0","[[1,3,0],[0,0],[0]]","9","[[1,0,0],[2,3],[0]]","5","0","","","","","","6","","","","",""
"","","","","","single-stim-button","237","1186549","0.0-3.0-25.8-1.8","644046332ff32db7f7b8a7b6","F1","batch6","tol_toboard","887","","","","","","","","","tol_peg_2","887","887","0","[[1,3,0],[2,0],[0]]","9","[[1,0,0],[2,3],[0]]","5","0","","","","","","6","","","","",""
"","","","","","single-stim-button","238","1187223","0.0-3.0-25.9-0.9","644046332ff32db7f7b8a7b6","F1","batch6","tol_tohand","673","","","","","","","","","tol_peg_1","673","673","0","[[1,0,0],[2,0],[0]]","10","[[1,0,0],[2,3],[0]]","5","0","","","","","","6","","","","",""
"","","","","","single-stim-button","239","1188248","0.0-3.0-25.9-1.9","644046332ff32db7f7b8a7b6","F1","batch6","tol_toboard","1018","","","","","","","","","tol_peg_2","1018","1018","0","[[1,0,0],[2,3],[0]]","10","[[1,0,0],[2,3],[0]]","5","0","","","","","","6","","","","",""
"","","","","","poldrack-single-stim","240","1189252","0.0-3.0-26.0","644046332ff32db7f7b8a7b6","F1","batch6","tol_feedback","-1","","","","","true","","","","","1000","1000","500","","","","","","-1","none","true","10291","22939","","","","","",""
"","","","","","html-button-response","241","1190025","0.0-3.0-27.0","644046332ff32db7f7b8a7b6","F1","batch6","tol_trial_num","769","<div class = centerbox><p class = center-block-text>problem <strong>7</strong> out of 25 problems</p></div>","0","","","","","","","","","","","","","","","","","","","","","","","","","",""
"","","","","","single-stim-button","242","1197156","0.0-3.0-28.0-0.0","644046332ff32db7f7b8a7b6","F1","batch6","tol_tohand","7129","","","","","","","","","tol_peg_3","7129","7129","0","[[2,1,0],[0,0],[0]]","1","[[1,2,0],[3,0],[0]]","6","0","","","","","","5","","","","",""
"","","","","","single-stim-button","243","1198140","0.0-3.0-28.0-1.0","644046332ff32db7f7b8a7b6","F1","batch6","tol_toboard","983","","","","","","","","","tol_peg_2","983","983","0","[[2,1,0],[3,0],[0]]","1","[[1,2,0],[3,0],[0]]","6","0","","","","","","5","","","","",""
"","","","","","single-stim-button","244","1199085","0.0-3.0-28.1-0.1","644046332ff32db7f7b8a7b6","F1","batch6","tol_tohand","942","","","","","","","","","tol_peg_1","942","942","0","[[2,0,0],[3,0],[0]]","2","[[1,2,0],[3,0],[0]]","6","0","","","","","","5","","","","",""
"","","","","","single-stim-button","245","1200560","0.0-3.0-28.1-1.1","644046332ff32db7f7b8a7b6","F1","batch6","tol_toboard","1475","","","","","","","","","tol_peg_3","1475","1475","0","[[2,0,0],[3,0],[1]]","2","[[1,2,0],[3,0],[0]]","6","0","","","","","","5","","","","",""
"","","","","","single-stim-button","246","1202838","0.0-3.0-28.2-0.2","644046332ff32db7f7b8a7b6","F1","batch6","tol_tohand","2277","","","","","","","","","tol_peg_1","2277","2277","0","[[0,0,0],[3,0],[1]]","3","[[1,2,0],[3,0],[0]]","6","0","","","","","","5","","","","",""
"","","","","","single-stim-button","247","1204425","0.0-3.0-28.2-1.2","644046332ff32db7f7b8a7b6","F1","batch6","tol_toboard","1586","","","","","","","","","tol_peg_2","1586","1586","0","[[0,0,0],[3,2],[1]]","3","[[1,2,0],[3,0],[0]]","6","0","","","","","","5","","","","",""
"","","","","","single-stim-button","248","1206187","0.0-3.0-28.3-0.3","644046332ff32db7f7b8a7b6","F1","batch6","tol_tohand","1760","","","","","","","","","tol_peg_3","1760","1760","0","[[0,0,0],[3,2],[0]]","4","[[1,2,0],[3,0],[0]]","6","0","","","","","","5","","","","",""
"","","","","","single-stim-button","249","1207218","0.0-3.0-28.3-1.3","644046332ff32db7f7b8a7b6","F1","batch6","tol_toboard","1030","","","","","","","","","tol_peg_1","1030","1030","0","[[1,0,0],[3,2],[0]]","4","[[1,2,0],[3,0],[0]]","6","0","","","","","","5","","","","",""
"","","","","","single-stim-button","250","1208012","0.0-3.0-28.4-0.4","644046332ff32db7f7b8a7b6","F1","batch6","tol_tohand","793","","","","","","","","","tol_peg_2","793","793","0","[[1,0,0],[3,0],[0]]","5","[[1,2,0],[3,0],[0]]","6","0","","","","","","5","","","","",""
"","","","","","single-stim-button","251","1208798","0.0-3.0-28.4-1.4","644046332ff32db7f7b8a7b6","F1","batch6","tol_toboard","784","","","","","","","","","tol_peg_1","784","784","0","[[1,2,0],[3,0],[0]]","5","[[1,2,0],[3,0],[0]]","6","0","","","","","","5","","","","",""
"","","","","","poldrack-single-stim","252","1209804","0.0-3.0-29.0","644046332ff32db7f7b8a7b6","F1","batch6","tol_feedback","-1","","","","","true","","","","","1000","1000","500","","","","","","-1","none","true","7129","12901","","","","","",""
"","","","","","html-button-response","253","1210625","0.0-3.0-30.0","644046332ff32db7f7b8a7b6","F1","batch6","tol_trial_num","816.6000000000931","<div class = centerbox><p class = center-block-text>problem <strong>8</strong> out of 25 problems</p></div>","0","","","","","","","","","","","","","","","","","","","","","","","","","",""
"","","","","","single-stim-button","254","1213598","0.0-3.0-31.0-0.0","644046332ff32db7f7b8a7b6","F1","batch6","tol_tohand","2970","","","","","","","","","tol_peg_3","2970","2970","0","[[0,0,0],[2,3],[0]]","1","[[1,2,0],[3,0],[0]]","7","0","","","","","","4","","","","",""
"","","","","","single-stim-button","255","1217789","0.0-3.0-31.0-1.0","644046332ff32db7f7b8a7b6","F1","batch6","tol_toboard","4189","","","","","","","","","tol_peg_1","4189","4189","0","[[1,0,0],[2,3],[0]]","1","[[1,2,0],[3,0],[0]]","7","0","","","","","","4","","","","",""
"","","","","","single-stim-button","256","1218631","0.0-3.0-31.1-0.1","644046332ff32db7f7b8a7b6","F1","batch6","tol_tohand","841","","","","","","","","","tol_peg_2","841","841","0","[[1,0,0],[2,0],[0]]","2","[[1,2,0],[3,0],[0]]","7","0","","","","","","4","","","","",""
"","","","","","single-stim-button","257","1219854","0.0-3.0-31.1-1.1","644046332ff32db7f7b8a7b6","F1","batch6","tol_toboard","1221","","","","","","","","","tol_peg_3","1221","1221","0","[[1,0,0],[2,0],[3]]","2","[[1,2,0],[3,0],[0]]","7","0","","","","","","4","","","","",""
"","","","","","single-stim-button","258","1221313","0.0-3.0-31.2-0.2","644046332ff32db7f7b8a7b6","F1","batch6","tol_tohand","1457","","","","","","","","","tol_peg_2","1457","1457","0","[[1,0,0],[0,0],[3]]","3","[[1,2,0],[3,0],[0]]","7","0","","","","","","4","","","","",""
"","","","","","single-stim-button","259","1222154","0.0-3.0-31.2-1.2","644046332ff32db7f7b8a7b6","F1","batch6","tol_toboard","839","","","","","","","","","tol_peg_1","839","839","0","[[1,2,0],[0,0],[3]]","3","[[1,2,0],[3,0],[0]]","7","0","","","","","","4","","","","",""
"","","","","","single-stim-button","260","1223209","0.0-3.0-31.3-0.3","644046332ff32db7f7b8a7b6","F1","batch6","tol_tohand","1054","","","","","","","","","tol_peg_3","1054","1054","0","[[1,2,0],[0,0],[0]]","4","[[1,2,0],[3,0],[0]]","7","0","","","","","","4","","","","",""
"","","","","","single-stim-button","261","1224066","0.0-3.0-31.3-1.3","644046332ff32db7f7b8a7b6","F1","batch6","tol_toboard","855","","","","","","","","","tol_peg_2","855","855","0","[[1,2,0],[3,0],[0]]","4","[[1,2,0],[3,0],[0]]","7","0","","","","","","4","","","","",""
"","","","","","poldrack-single-stim","262","1225076","0.0-3.0-32.0","644046332ff32db7f7b8a7b6","F1","batch6","tol_feedback","-1","","","","","true","","","","","1000","1000","500","","","","","","-1","none","true","2970","6322","","","","","",""
"","","","","","html-button-response","263","1225638","0.0-3.0-33.0","644046332ff32db7f7b8a7b6","F1","batch6","tol_trial_num","557.6000000000931","<div class = centerbox><p class = center-block-text>problem <strong>9</strong> out of 25 problems</p></div>","0","","","","","","","","","","","","","","","","","","","","","","","","","",""
"","","","","","single-stim-button","264","1229113","0.0-3.0-34.0-0.0","644046332ff32db7f7b8a7b6","F1","batch6","tol_tohand","3471","","","","","","","","","tol_peg_1","3471","3471","0","[[3,0,0],[0,0],[1]]","1","[[2,1,0],[3,0],[0]]","8","0","","","","","","6","","","","",""
"","","","","","single-stim-button","265","1231313","0.0-3.0-34.0-1.0","644046332ff32db7f7b8a7b6","F1","batch6","tol_toboard","2197","","","","","","","","","tol_peg_2","2197","2197","0","[[3,0,0],[2,0],[1]]","1","[[2,1,0],[3,0],[0]]","8","0","","","","","","6","","","","",""
"","","","","","single-stim-button","266","1237074","0.0-3.0-34.1-0.1","644046332ff32db7f7b8a7b6","F1","batch6","tol_tohand","5758","","","","","","","","","tol_peg_1","5758","5758","0","[[0,0,0],[2,0],[1]]","2","[[2,1,0],[3,0],[0]]","8","0","","","","","","6","","","","",""
"","","","","","single-stim-button","267","1238707","0.0-3.0-34.1-1.1","644046332ff32db7f7b8a7b6","F1","batch6","tol_toboard","1630","","","","","","","","","tol_peg_2","1630","1630","0","[[0,0,0],[2,3],[1]]","2","[[2,1,0],[3,0],[0]]","8","0","","","","","","6","","","","",""
"","","","","","single-stim-button","268","1242096","0.0-3.0-34.2-0.2","644046332ff32db7f7b8a7b6","F1","batch6","tol_tohand","3387","","","","","","","","","tol_peg_3","3387","3387","0","[[0,0,0],[2,3],[0]]","3","[[2,1,0],[3,0],[0]]","8","0","","","","","","6","","","","",""
"","","","","","single-stim-button","269","1248008","0.0-3.0-34.2-1.2","644046332ff32db7f7b8a7b6","F1","batch6","tol_toboard","5910","","","","","","","","","tol_peg_1","5910","5910","0","[[1,0,0],[2,3],[0]]","3","[[2,1,0],[3,0],[0]]","8","0","","","","","","6","","","","",""
"","","","","","single-stim-button","270","1249143","0.0-3.0-34.3-0.3","644046332ff32db7f7b8a7b6","F1","batch6","tol_tohand","1133","","","","","","","","","tol_peg_2","1133","1133","0","[[1,0,0],[2,0],[0]]","4","[[2,1,0],[3,0],[0]]","8","0","","","","","","6","","","","",""
"","","","","","single-stim-button","271","1250858","0.0-3.0-34.3-1.3","644046332ff32db7f7b8a7b6","F1","batch6","tol_toboard","1714","","","","","","","","","tol_peg_3","1714","1714","0","[[1,0,0],[2,0],[3]]","4","[[2,1,0],[3,0],[0]]","8","0","","","","","","6","","","","",""
"","","","","","single-stim-button","272","1258577","0.0-3.0-34.4-0.4","644046332ff32db7f7b8a7b6","F1","batch6","tol_tohand","7717","","","","","","","","","tol_peg_2","7717","7717","0","[[1,0,0],[0,0],[3]]","5","[[2,1,0],[3,0],[0]]","8","0","","","","","","6","","","","",""
"","","","","","single-stim-button","273","1259965","0.0-3.0-34.4-1.4","644046332ff32db7f7b8a7b6","F1","batch6","tol_toboard","1384","","","","","","","","","tol_peg_1","1384","1384","0","[[1,2,0],[0,0],[3]]","5","[[2,1,0],[3,0],[0]]","8","0","","","","","","6","","","","",""
"","","","","","single-stim-button","274","1261338","0.0-3.0-34.5-0.5","644046332ff32db7f7b8a7b6","F1","batch6","tol_tohand","1371","","","","","","","","","tol_peg_1","1371","1371","0","[[1,0,0],[0,0],[3]]","6","[[2,1,0],[3,0],[0]]","8","0","","","","","","6","","","","",""
"","","","","","single-stim-button","275","1262569","0.0-3.0-34.5-1.5","644046332ff32db7f7b8a7b6","F1","batch6","tol_toboard","1229","","","","","","","","","tol_peg_2","1229","1229","0","[[1,0,0],[2,0],[3]]","6","[[2,1,0],[3,0],[0]]","8","0","","","","","","6","","","","",""
"","","","","","single-stim-button","276","1263576","0.0-3.0-34.6-0.6","644046332ff32db7f7b8a7b6","F1","batch6","tol_tohand","1005","","","","","","","","","tol_peg_3","1005","1005","0","[[1,0,0],[2,0],[0]]","7","[[2,1,0],[3,0],[0]]","8","0","","","","","","6","","","","",""
"","","","","","single-stim-button","277","1264664","0.0-3.0-34.6-1.6","644046332ff32db7f7b8a7b6","F1","batch6","tol_toboard","1084","","","","","","","","","tol_peg_1","1084","1084","0","[[1,3,0],[2,0],[0]]","7","[[2,1,0],[3,0],[0]]","8","0","","","","","","6","","","","",""
"","","","","","single-stim-button","278","1265678","0.0-3.0-34.7-0.7","644046332ff32db7f7b8a7b6","F1","batch6","tol_tohand","1011","","","","","","","","","tol_peg_2","1011","1011","0","[[1,3,0],[0,0],[0]]","8","[[2,1,0],[3,0],[0]]","8","0","","","","","","6","","","","",""
"","","","","","single-stim-button","279","1266806","0.0-3.0-34.7-1.7","644046332ff32db7f7b8a7b6","F1","batch6","tol_toboard","1126","","","","","","","","","tol_peg_3","1126","1126","0","[[1,3,0],[0,0],[2]]","8","[[2,1,0],[3,0],[0]]","8","0","","","","","","6","","","","",""
"","","","","","single-stim-button","280","1268099","0.0-3.0-34.8-0.8","644046332ff32db7f7b8a7b6","F1","batch6","tol_tohand","1290","","","","","","","","","tol_peg_1","1290","1290","0","[[1,0,0],[0,0],[2]]","9","[[2,1,0],[3,0],[0]]","8","0","","","","","","6","","","","",""
"","","","","","single-stim-button","281","1268940","0.0-3.0-34.8-1.8","644046332ff32db7f7b8a7b6","F1","batch6","tol_toboard","839","","","","","","","","","tol_peg_2","839","839","0","[[1,0,0],[3,0],[2]]","9","[[2,1,0],[3,0],[0]]","8","0","","","","","","6","","","","",""
"","","","","","single-stim-button","282","1270833","0.0-3.0-34.9-0.9","644046332ff32db7f7b8a7b6","F1","batch6","tol_tohand","1890","","","","","","","","","tol_peg_1","1890","1890","0","[[0,0,0],[3,0],[2]]","10","[[2,1,0],[3,0],[0]]","8","0","","","","","","6","","","","",""
"","","","","","single-stim-button","283","1271142","0.0-3.0-34.9-1.9","644046332ff32db7f7b8a7b6","F1","batch6","tol_toboard","306","","","","","","","","","tol_peg_2","306","306","0","[[0,0,0],[3,1],[2]]","10","[[2,1,0],[3,0],[0]]","8","0","","","","","","6","","","","",""
"","","","","","single-stim-button","284","1272500","0.0-3.0-34.10-0.10","644046332ff32db7f7b8a7b6","F1","batch6","tol_tohand","1355","","","","","","","","","tol_peg_3","1355","1355","0","[[0,0,0],[3,1],[0]]","11","[[2,1,0],[3,0],[0]]","8","0","","","","","","6","","","","",""
"","","","","","single-stim-button","285","1272832","0.0-3.0-34.10-1.10","644046332ff32db7f7b8a7b6","F1","batch6","tol_toboard","329","","","","","","","","","tol_peg_1","329","329","0","[[2,0,0],[3,1],[0]]","11","[[2,1,0],[3,0],[0]]","8","0","","","","","","6","","","","",""
"","","","","","single-stim-button","286","1273181","0.0-3.0-34.11-0.11","644046332ff32db7f7b8a7b6","F1","batch6","tol_tohand","347","","","","","","","","","tol_peg_2","347","347","0","[[2,0,0],[3,0],[0]]","12","[[2,1,0],[3,0],[0]]","8","0","","","","","","6","","","","",""
"","","","","","single-stim-button","287","1273638","0.0-3.0-34.11-1.11","644046332ff32db7f7b8a7b6","F1","batch6","tol_toboard","454","","","","","","","","","tol_peg_1","454","454","0","[[2,1,0],[3,0],[0]]","12","[[2,1,0],[3,0],[0]]","8","0","","","","","","6","","","","",""
"","","","","","poldrack-single-stim","288","1274644","0.0-3.0-35.0","644046332ff32db7f7b8a7b6","F1","batch6","tol_feedback","-1","","","","","true","","","","","1000","1000","500","","","","","","-1","none","true","3471","29735","","","","","",""
"","","","","","html-button-response","289","1275404","0.0-3.0-36.0","644046332ff32db7f7b8a7b6","F1","batch6","tol_trial_num","755","<div class = centerbox><p class = center-block-text>problem <strong>10</strong> out of 25 problems</p></div>","0","","","","","","","","","","","","","","","","","","","","","","","","","",""
"","","","","","single-stim-button","290","1281066","0.0-3.0-37.0-0.0","644046332ff32db7f7b8a7b6","F1","batch6","tol_tohand","5657","","","","","","","","","tol_peg_2","5657","5657","0","[[3,0,0],[0,0],[2]]","1","[[3,0,0],[2,1],[0]]","9","0","","","","","","3","","","","",""
"","","","","","single-stim-button","291","1284638","0.0-3.0-37.0-1.0","644046332ff32db7f7b8a7b6","F1","batch6","tol_toboard","3567","","","","","","","","","tol_peg_1","3567","3567","0","[[3,1,0],[0,0],[2]]","1","[[3,0,0],[2,1],[0]]","9","0","","","","","","3","","","","",""
"","","","","","single-stim-button","292","1285091","0.0-3.0-37.1-0.1","644046332ff32db7f7b8a7b6","F1","batch6","tol_tohand","449","","","","","","","","","tol_peg_3","449","449","0","[[3,1,0],[0,0],[0]]","2","[[3,0,0],[2,1],[0]]","9","0","","","","","","3","","","","",""
"","","","","","single-stim-button","293","1285618","0.0-3.0-37.1-1.1","644046332ff32db7f7b8a7b6","F1","batch6","tol_toboard","524","","","","","","","","","tol_peg_2","524","524","0","[[3,1,0],[2,0],[0]]","2","[[3,0,0],[2,1],[0]]","9","0","","","","","","3","","","","",""
"","","","","","single-stim-button","294","1286637","0.0-3.0-37.2-0.2","644046332ff32db7f7b8a7b6","F1","batch6","tol_tohand","1015","","","","","","","","","tol_peg_1","1015","1015","0","[[3,0,0],[2,0],[0]]","3","[[3,0,0],[2,1],[0]]","9","0","","","","","","3","","","","",""
"","","","","","single-stim-button","295","1287090","0.0-3.0-37.2-1.2","644046332ff32db7f7b8a7b6","F1","batch6","tol_toboard","451","","","","","","","","","tol_peg_2","451","451","0","[[3,0,0],[2,1],[0]]","3","[[3,0,0],[2,1],[0]]","9","0","","","","","","3","","","","",""
"","","","","","poldrack-single-stim","296","1288100","0.0-3.0-38.0","644046332ff32db7f7b8a7b6","F1","batch6","tol_feedback","-1","","","","","true","","","","","1000","1000","500","","","","","","-1","none","true","5657","7121","","","","","",""
"","","","","","html-button-response","297","1288608","0.0-3.0-39.0","644046332ff32db7f7b8a7b6","F1","batch6","tol_trial_num","504.69999999995343","<div class = centerbox><p class = center-block-text>problem <strong>11</strong> out of 25 problems</p></div>","0","","","","","","","","","","","","","","","","","","","","","","","","","",""
"","","","","","single-stim-button","298","1300959","0.0-3.0-40.0-0.0","644046332ff32db7f7b8a7b6","F1","batch6","tol_tohand","12349","","","","","","","","","tol_peg_2","12349","12349","0","[[1,2,0],[0,0],[0]]","1","[[2,0,0],[1,3],[0]]","10","0","","","","","","6","","","","",""
"","","","","","single-stim-button","299","1307604","0.0-3.0-40.0-1.0","644046332ff32db7f7b8a7b6","F1","batch6","tol_toboard","6642","","","","","","","","","tol_peg_3","6642","6642","0","[[1,2,0],[0,0],[3]]","1","[[2,0,0],[1,3],[0]]","10","0","","","","","","6","","","","",""
"","","","","","single-stim-button","300","1309066","0.0-3.0-40.1-0.1","644046332ff32db7f7b8a7b6","F1","batch6","tol_tohand","1460","","","","","","","","","tol_peg_1","1460","1460","0","[[1,0,0],[0,0],[3]]","2","[[2,0,0],[1,3],[0]]","10","0","","","","","","6","","","","",""
"","","","","","single-stim-button","301","1310157","0.0-3.0-40.1-1.1","644046332ff32db7f7b8a7b6","F1","batch6","tol_toboard","1088","","","","","","","","","tol_peg_2","1088","1088","0","[[1,0,0],[2,0],[3]]","2","[[2,0,0],[1,3],[0]]","10","0","","","","","","6","","","","",""
"","","","","","single-stim-button","302","1311724","0.0-3.0-40.2-0.2","644046332ff32db7f7b8a7b6","F1","batch6","tol_tohand","1564","","","","","","","","","tol_peg_1","1564","1564","0","[[0,0,0],[2,0],[3]]","3","[[2,0,0],[1,3],[0]]","10","0","","","","","","6","","","","",""
"","","","","","single-stim-button","303","1312789","0.0-3.0-40.2-1.2","644046332ff32db7f7b8a7b6","F1","batch6","tol_toboard","1062","","","","","","","","","tol_peg_2","1062","1062","0","[[0,0,0],[2,1],[3]]","3","[[2,0,0],[1,3],[0]]","10","0","","","","","","6","","","","",""
"","","","","","single-stim-button","304","1313705","0.0-3.0-40.3-0.3","644046332ff32db7f7b8a7b6","F1","batch6","tol_tohand","913","","","","","","","","","tol_peg_3","913","913","0","[[0,0,0],[2,1],[0]]","4","[[2,0,0],[1,3],[0]]","10","0","","","","","","6","","","","",""
"","","","","","single-stim-button","305","1316702","0.0-3.0-40.3-1.3","644046332ff32db7f7b8a7b6","F1","batch6","tol_toboard","2994","","","","","","","","","tol_peg_1","2994","2994","0","[[3,0,0],[2,1],[0]]","4","[[2,0,0],[1,3],[0]]","10","0","","","","","","6","","","","",""
"","","","","","single-stim-button","306","1318006","0.0-3.0-40.4-0.4","644046332ff32db7f7b8a7b6","F1","batch6","tol_tohand","1300","","","","","","","","","tol_peg_2","1300","1300","0","[[3,0,0],[2,0],[0]]","5","[[2,0,0],[1,3],[0]]","10","0","","","","","","6","","","","",""
"","","","","","single-stim-button","307","1318742","0.0-3.0-40.4-1.4","644046332ff32db7f7b8a7b6","F1","batch6","tol_toboard","734","","","","","","","","","tol_peg_3","734","734","0","[[3,0,0],[2,0],[1]]","5","[[2,0,0],[1,3],[0]]","10","0","","","","","","6","","","","",""
"","","","","","single-stim-button","308","1320106","0.0-3.0-40.5-0.5","644046332ff32db7f7b8a7b6","F1","batch6","tol_tohand","1362","","","","","","","","","tol_peg_2","1362","1362","0","[[3,0,0],[0,0],[1]]","6","[[2,0,0],[1,3],[0]]","10","0","","","","","","6","","","","",""
"","","","","","single-stim-button","309","1320617","0.0-3.0-40.5-1.5","644046332ff32db7f7b8a7b6","F1","batch6","tol_toboard","509","","","","","","","","","tol_peg_1","509","509","0","[[3,2,0],[0,0],[1]]","6","[[2,0,0],[1,3],[0]]","10","0","","","","","","6","","","","",""
"","","","","","single-stim-button","310","1321528","0.0-3.0-40.6-0.6","644046332ff32db7f7b8a7b6","F1","batch6","tol_tohand","908","","","","","","","","","tol_peg_3","908","908","0","[[3,2,0],[0,0],[0]]","7","[[2,0,0],[1,3],[0]]","10","0","","","","","","6","","","","",""
"","","","","","single-stim-button","311","1322080","0.0-3.0-40.6-1.6","644046332ff32db7f7b8a7b6","F1","batch6","tol_toboard","549","","","","","","","","","tol_peg_2","549","549","0","[[3,2,0],[1,0],[0]]","7","[[2,0,0],[1,3],[0]]","10","0","","","","","","6","","","","",""
"","","","","","single-stim-button","312","1323036","0.0-3.0-40.7-0.7","644046332ff32db7f7b8a7b6","F1","batch6","tol_tohand","953","","","","","","","","","tol_peg_1","953","953","0","[[3,0,0],[1,0],[0]]","8","[[2,0,0],[1,3],[0]]","10","0","","","","","","6","","","","",""
"","","","","","single-stim-button","313","1323312","0.0-3.0-40.7-1.7","644046332ff32db7f7b8a7b6","F1","batch6","tol_toboard","273","","","","","","","","","tol_peg_3","273","273","0","[[3,0,0],[1,0],[2]]","8","[[2,0,0],[1,3],[0]]","10","0","","","","","","6","","","","",""
"","","","","","single-stim-button","314","1323542","0.0-3.0-40.8-0.8","644046332ff32db7f7b8a7b6","F1","batch6","tol_tohand","227","","","","","","","","","tol_peg_1","227","227","0","[[0,0,0],[1,0],[2]]","9","[[2,0,0],[1,3],[0]]","10","0","","","","","","6","","","","",""
"","","","","","single-stim-button","315","1323929","0.0-3.0-40.8-1.8","644046332ff32db7f7b8a7b6","F1","batch6","tol_toboard","384","","","","","","","","","tol_peg_2","384","384","0","[[0,0,0],[1,3],[2]]","9","[[2,0,0],[1,3],[0]]","10","0","","","","","","6","","","","",""
"","","","","","single-stim-button","316","1324331","0.0-3.0-40.9-0.9","644046332ff32db7f7b8a7b6","F1","batch6","tol_tohand","399","","","","","","","","","tol_peg_3","399","399","0","[[0,0,0],[1,3],[0]]","10","[[2,0,0],[1,3],[0]]","10","0","","","","","","6","","","","",""
"","","","","","single-stim-button","317","1324609","0.0-3.0-40.9-1.9","644046332ff32db7f7b8a7b6","F1","batch6","tol_toboard","275","","","","","","","","","tol_peg_1","275","275","0","[[2,0,0],[1,3],[0]]","10","[[2,0,0],[1,3],[0]]","10","0","","","","","","6","","","","",""
"","","","","","poldrack-single-stim","318","1325614","0.0-3.0-41.0","644046332ff32db7f7b8a7b6","F1","batch6","tol_feedback","-1","","","","","true","","","","","1000","1000","500","","","","","","-1","none","true","12349","21435","","","","","",""
"","","","","","html-button-response","319","1326150","0.0-3.0-42.0","644046332ff32db7f7b8a7b6","F1","batch6","tol_trial_num","531","<div class = centerbox><p class = center-block-text>problem <strong>12</strong> out of 25 problems</p></div>","0","","","","","","","","","","","","","","","","","","","","","","","","","",""
"","","","","","single-stim-button","320","1348997","0.0-3.0-43.0-0.0","644046332ff32db7f7b8a7b6","F1","batch6","tol_tohand","22842","","","","","","","","","tol_peg_1","22842","22842","0","[[1,0,0],[3,0],[0]]","1","[[2,3,0],[0,0],[1]]","11","0","","","","","","4","","","","",""
"","","","","","single-stim-button","321","1349414","0.0-3.0-43.0-1.0","644046332ff32db7f7b8a7b6","F1","batch6","tol_toboard","412","","","","","","","","","tol_peg_2","412","412","0","[[1,0,0],[3,2],[0]]","1","[[2,3,0],[0,0],[1]]","11","0","","","","","","4","","","","",""
"","","","","","single-stim-button","322","1349842","0.0-3.0-43.1-0.1","644046332ff32db7f7b8a7b6","F1","batch6","tol_tohand","426","","","","","","","","","tol_peg_1","426","426","0","[[0,0,0],[3,2],[0]]","2","[[2,3,0],[0,0],[1]]","11","0","","","","","","4","","","","",""
"","","","","","single-stim-button","323","1350160","0.0-3.0-43.1-1.1","644046332ff32db7f7b8a7b6","F1","batch6","tol_toboard","317","","","","","","","","","tol_peg_3","317","317","0","[[0,0,0],[3,2],[1]]","2","[[2,3,0],[0,0],[1]]","11","0","","","","","","4","","","","",""
"","","","","","single-stim-button","324","1350535","0.0-3.0-43.2-0.2","644046332ff32db7f7b8a7b6","F1","batch6","tol_tohand","373","","","","","","","","","tol_peg_2","373","373","0","[[0,0,0],[3,0],[1]]","3","[[2,3,0],[0,0],[1]]","11","0","","","","","","4","","","","",""
"","","","","","single-stim-button","325","1350998","0.0-3.0-43.2-1.2","644046332ff32db7f7b8a7b6","F1","batch6","tol_toboard","460","","","","","","","","","tol_peg_1","460","460","0","[[2,0,0],[3,0],[1]]","3","[[2,3,0],[0,0],[1]]","11","0","","","","","","4","","","","",""
"","","","","","single-stim-button","326","1351437","0.0-3.0-43.3-0.3","644046332ff32db7f7b8a7b6","F1","batch6","tol_tohand","436","","","","","","","","","tol_peg_2","436","436","0","[[2,0,0],[0,0],[1]]","4","[[2,3,0],[0,0],[1]]","11","0","","","","","","4","","","","",""
"","","","","","single-stim-button","327","1351809","0.0-3.0-43.3-1.3","644046332ff32db7f7b8a7b6","F1","batch6","tol_toboard","369","","","","","","","","","tol_peg_1","369","369","0","[[2,3,0],[0,0],[1]]","4","[[2,3,0],[0,0],[1]]","11","0","","","","","","4","","","","",""
"","","","","","poldrack-single-stim","328","1352821","0.0-3.0-44.0","644046332ff32db7f7b8a7b6","F1","batch6","tol_feedback","-1","","","","","true","","","","","1000","1000","500","","","","","","-1","none","true","22842","24077","","","","","",""
"","","","","","html-button-response","329","1353325","0.0-3.0-45.0","644046332ff32db7f7b8a7b6","F1","batch6","tol_trial_num","499.5","<div class = centerbox><p class = center-block-text>problem <strong>13</strong> out of 25 problems</p></div>","0","","","","","","","","","","","","","","","","","","","","","","","","","",""
"","","","","","single-stim-button","330","1375332","0.0-3.0-46.0-0.0","644046332ff32db7f7b8a7b6","F1","batch6","tol_tohand","22002","","","","","","","","","tol_peg_1","22002","22002","0","[[1,0,0],[3,0],[0]]","1","[[0,0,0],[2,3],[1]]","12","0","","","","","","4","","","","",""
"","","","","","single-stim-button","331","1375780","0.0-3.0-46.0-1.0","644046332ff32db7f7b8a7b6","F1","batch6","tol_toboard","445","","","","","","","","","tol_peg_2","445","445","0","[[1,0,0],[3,2],[0]]","1","[[0,0,0],[2,3],[1]]","12","0","","","","","","4","","","","",""
"","","","","","single-stim-button","332","1376217","0.0-3.0-46.1-0.1","644046332ff32db7f7b8a7b6","F1","batch6","tol_tohand","432","","","","","","","","","tol_peg_1","432","432","0","[[0,0,0],[3,2],[0]]","2","[[0,0,0],[2,3],[1]]","12","0","","","","","","4","","","","",""
"","","","","","single-stim-button","333","1376546","0.0-3.0-46.1-1.1","644046332ff32db7f7b8a7b6","F1","batch6","tol_toboard","326","","","","","","","","","tol_peg_3","326","326","0","[[0,0,0],[3,2],[1]]","2","[[0,0,0],[2,3],[1]]","12","0","","","","","","4","","","","",""
"","","","","","single-stim-button","334","1378171","0.0-3.0-46.2-0.2","644046332ff32db7f7b8a7b6","F1","batch6","tol_tohand","1622","","","","","","","","","tol_peg_2","1622","1622","0","[[0,0,0],[3,0],[1]]","3","[[0,0,0],[2,3],[1]]","12","0","","","","","","4","","","","",""
"","","","","","single-stim-button","335","1379524","0.0-3.0-46.2-1.2","644046332ff32db7f7b8a7b6","F1","batch6","tol_toboard","1351","","","","","","","","","tol_peg_1","1351","1351","0","[[2,0,0],[3,0],[1]]","3","[[0,0,0],[2,3],[1]]","12","0","","","","","","4","","","","",""
"","","","","","single-stim-button","336","1382066","0.0-3.0-46.3-0.3","644046332ff32db7f7b8a7b6","F1","batch6","tol_tohand","2538","","","","","","","","","tol_peg_2","2538","2538","0","[[2,0,0],[0,0],[1]]","4","[[0,0,0],[2,3],[1]]","12","0","","","","","","4","","","","",""
"","","","","","single-stim-button","337","1383037","0.0-3.0-46.3-1.3","644046332ff32db7f7b8a7b6","F1","batch6","tol_toboard","970","","","","","","","","","tol_peg_2","970","970","0","[[2,0,0],[3,0],[1]]","4","[[0,0,0],[2,3],[1]]","12","0","","","","","","4","","","","",""
"","","","","","single-stim-button","338","1383594","0.0-3.0-46.4-0.4","644046332ff32db7f7b8a7b6","F1","batch6","tol_tohand","552","","","","","","","","","tol_peg_1","552","552","0","[[0,0,0],[3,0],[1]]","5","[[0,0,0],[2,3],[1]]","12","0","","","","","","4","","","","",""
"","","","","","single-stim-button","339","1383793","0.0-3.0-46.4-1.4","644046332ff32db7f7b8a7b6","F1","batch6","tol_toboard","196","","","","","","","","","tol_peg_2","196","196","0","[[0,0,0],[3,2],[1]]","5","[[0,0,0],[2,3],[1]]","12","0","","","","","","4","","","","",""
"","","","","","single-stim-button","340","1384761","0.0-3.0-46.5-0.5","644046332ff32db7f7b8a7b6","F1","batch6","tol_tohand","964","","","","","","","","","tol_peg_2","964","964","0","[[0,0,0],[3,0],[1]]","6","[[0,0,0],[2,3],[1]]","12","0","","","","","","4","","","","",""
"","","","","","single-stim-button","341","1385082","0.0-3.0-46.5-1.5","644046332ff32db7f7b8a7b6","F1","batch6","tol_toboard","318","","","","","","","","","tol_peg_1","318","318","0","[[2,0,0],[3,0],[1]]","6","[[0,0,0],[2,3],[1]]","12","0","","","","","","4","","","","",""
"","","","","","single-stim-button","342","1385442","0.0-3.0-46.6-0.6","644046332ff32db7f7b8a7b6","F1","batch6","tol_tohand","356","","","","","","","","","tol_peg_2","356","356","0","[[2,0,0],[0,0],[1]]","7","[[0,0,0],[2,3],[1]]","12","0","","","","","","4","","","","",""
"","","","","","single-stim-button","343","1385741","0.0-3.0-46.6-1.6","644046332ff32db7f7b8a7b6","F1","batch6","tol_toboard","296","","","","","","","","","tol_peg_1","296","296","0","[[2,3,0],[0,0],[1]]","7","[[0,0,0],[2,3],[1]]","12","0","","","","","","4","","","","",""
"","","","","","single-stim-button","344","1386967","0.0-3.0-46.7-0.7","644046332ff32db7f7b8a7b6","F1","batch6","tol_tohand","1223","","","","","","","","","tol_peg_3","1223","1223","0","[[2,3,0],[0,0],[0]]","8","[[0,0,0],[2,3],[1]]","12","0","","","","","","4","","","","",""
"","","","","","single-stim-button","345","1387360","0.0-3.0-46.7-1.7","644046332ff32db7f7b8a7b6","F1","batch6","tol_toboard","390","","","","","","","","","tol_peg_2","390","390","0","[[2,3,0],[1,0],[0]]","8","[[0,0,0],[2,3],[1]]","12","0","","","","","","4","","","","",""
"","","","","","single-stim-button","346","1388240","0.0-3.0-46.8-0.8","644046332ff32db7f7b8a7b6","F1","batch6","tol_tohand","878","","","","","","","","","tol_peg_1","878","878","0","[[2,0,0],[1,0],[0]]","9","[[0,0,0],[2,3],[1]]","12","0","","","","","","4","","","","",""
"","","","","","single-stim-button","347","1395373","0.0-3.0-46.8-1.8","644046332ff32db7f7b8a7b6","F1","batch6","tol_toboard","7130","","","","","","","","","tol_peg_2","7130","7130","0","[[2,0,0],[1,3],[0]]","9","[[0,0,0],[2,3],[1]]","12","0","","","","","","4","","","","",""
"","","","","","single-stim-button","348","1397206","0.0-3.0-46.9-0.9","644046332ff32db7f7b8a7b6","F1","batch6","tol_tohand","1828","","","","","","","","","tol_peg_1","1828","1828","0","[[0,0,0],[1,3],[0]]","10","[[0,0,0],[2,3],[1]]","12","0","","","","","","4","","","","",""
"","","","","","single-stim-button","349","1398082","0.0-3.0-46.9-1.9","644046332ff32db7f7b8a7b6","F1","batch6","tol_toboard","874","","","","","","","","","tol_peg_3","874","874","0","[[0,0,0],[1,3],[2]]","10","[[0,0,0],[2,3],[1]]","12","0","","","","","","4","","","","",""
"","","","","","single-stim-button","350","1399434","0.0-3.0-46.10-0.10","644046332ff32db7f7b8a7b6","F1","batch6","tol_tohand","1349","","","","","","","","","tol_peg_2","1349","1349","0","[[0,0,0],[1,0],[2]]","11","[[0,0,0],[2,3],[1]]","12","0","","","","","","4","","","","",""
"","","","","","single-stim-button","351","1399980","0.0-3.0-46.10-1.10","644046332ff32db7f7b8a7b6","F1","batch6","tol_toboard","541","","","","","","","","","tol_peg_1","541","541","0","[[3,0,0],[1,0],[2]]","11","[[0,0,0],[2,3],[1]]","12","0","","","","","","4","","","","",""
"","","","","","single-stim-button","352","1400530","0.0-3.0-46.11-0.11","644046332ff32db7f7b8a7b6","F1","batch6","tol_tohand","546","","","","","","","","","tol_peg_3","546","546","0","[[3,0,0],[1,0],[0]]","12","[[0,0,0],[2,3],[1]]","12","0","","","","","","4","","","","",""
"","","","","","single-stim-button","353","1401118","0.0-3.0-46.11-1.11","644046332ff32db7f7b8a7b6","F1","batch6","tol_toboard","585","","","","","","","","","tol_peg_1","585","585","0","[[3,2,0],[1,0],[0]]","12","[[0,0,0],[2,3],[1]]","12","0","","","","","","4","","","","",""
"","","","","","single-stim-button","354","1401797","0.0-3.0-46.12-0.12","644046332ff32db7f7b8a7b6","F1","batch6","tol_tohand","674","","","","","","","","","tol_peg_2","674","674","0","[[3,2,0],[0,0],[0]]","13","[[0,0,0],[2,3],[1]]","12","0","","","","","","4","","","","",""
